// Start Time: 1747398475.5038033
// Update Rate: 100Hz 
// Filter Profile: 46.1 human
// Option Flags: AHS Disabled ICC Disabled 
// Firmware Version: 4.0.2 
PacketCounter	SampleTimeFine	Year	Month	Day	Second	UTC_Nano	UTC_Year	UTC_Month	UTC_Day	UTC_Hour	UTC_Minute	UTC_Second	UTC_Valid	Acc_X	Acc_Y	Acc_Z	Mat[1][1]	Mat[2][1]	Mat[3][1]	Mat[1][2]	Mat[2][2]	Mat[3][2]	Mat[1][3]	Mat[2][3]	Mat[3][3]
0														9.809159569274504	-0.07554866476729273	0.18705662987489644	0.006100745355276882	-0.015549190232553689	0.9998604920633789	0.9949350485618025	-0.10022994230868199	-0.007629404178705779	0.10033459049317855	0.9948427922782124	0.01485895698412315
1														9.845824214692913	-0.08251548290349288	0.09397961190528831	0.006110603711322715	-0.015561189209385484	0.9998602451906329	0.9949324972436044	-0.10025439817270282	-0.007640783705481047	0.10035928681934697	0.9948401404433873	0.014869717942623595
2														9.875943800221902	-0.06585694757981193	0.14314802447239436	0.006110649300150761	-0.015570878278495792	0.9998600940705491	0.994930604616207	-0.10027308010870456	-0.00764208110023834	0.10037804522483923	0.9948381060027557	0.014879209713238972
3														9.823104542060138	-0.07903373268983928	0.16824063332932837	0.006131659383589616	-0.015564731088002326	0.9998600611582409	0.9949307022510294	-0.10027056584017519	-0.0076623328278041525	0.10037579624330051	0.9948384556159099	0.014871003875802924
4														9.842772199752524	-0.05841308748207074	0.14916723994839096	0.006119860872205507	-0.015572890876452916	0.999860006387222	0.9949322408765693	-0.10025614825575857	-0.007651196066496058	0.10036126427677894	0.9948397809731324	0.01488041753772712
5														9.875446503390638	-0.0920444425072426	0.17760362470470137	0.006118685259515644	-0.015597173988267099	0.9998596350759819	0.9949318496006699	-0.10025993007801906	-0.0076525205613198755	0.10036521479519528	0.9948390194319539	0.014904666208401696
6														9.828304713433042	-0.08134246035293878	0.20341329058608923	0.006107874649349754	-0.015620090827067445	0.9998593434227746	0.9949318977683654	-0.10026009701292671	-0.007644066326086829	0.10036539578115022	0.994838643051984	0.014928550505001803
7														9.856239061586015	-0.08732874513889118	0.1641162498742068	0.006109569088822819	-0.01561265167450776	0.9998594492593647	0.9949311296444004	-0.1002676389680045	-0.007645118723714761	0.10037290685272943	0.9948379997182824	0.014920921099614404
8														9.842262388693737	-0.08455249653254031	0.18415726624736364	0.006113650768620249	-0.015621133576788793	0.9998592918306338	0.9949301396059944	-0.10027707688956647	-0.00765017346741137	0.10038247146726798	0.9948369152963018	0.014928877582157385
9														9.87068628791544	-0.06486389750477364	0.11127706352919896	0.006104313025979191	-0.015625977081453413	0.9998592731993496	0.994931532296848	-0.10026394440826475	-0.007641170927514485	0.10036923534593628	0.9948381628646678	0.014934734819398443
10														9.84274046018081	-0.0591621074950956	0.15095566235660654	0.0061297072710526646	-0.015590685575407215	0.9998596687596013	0.9949329942148671	-0.10024779667394709	-0.007662655196328305	0.10035319482413135	0.994840343866948	0.014897197833223186
11														9.856220475242694	-0.08795293684927066	0.16489733894513942	0.006109214910495653	-0.015613676969751356	0.9998594354131294	0.994931737625968	-0.1002616318275622	-0.00764477912346484	0.10036690170444434	0.9948385890559126	0.01492202290213368
12														9.864972116984386	-0.0890296837723958	0.1111757644147316	0.006123085302321307	-0.015573857280207548	0.9998599715939209	0.9949319401601779	-0.10025887705938683	-0.007654542435377998	0.10036404872007082	0.994839490842722	0.014881034383025016
13														9.837024503002917	-0.08332596911531465	0.15085338255445116	0.006123343468415754	-0.01558227915303112	0.9998598387980009	0.9949313605047156	-0.10026453854609088	-0.007655729512894338	0.10036977906224037	0.9948387883906298	0.014889343990269588
14														9.870180079543722	-0.09126151064866028	0.1457205603631756	0.006107366515882673	-0.015605552057309235	0.9998595735498199	0.9949304967596551	-0.1002741327126078	-0.007642311582275296	0.10037931406334138	0.9948374565996807	0.01491402878004916
15														9.831798220194885	-0.08146131066618656	0.11748235720768287	0.006099465621883515	-0.015594531527520106	0.9998597937238829	0.9949317008816441	-0.10026288060211158	-0.007633174577221624	0.10036785889858907	0.9948387634987919	0.014903943783744378
16														9.861903581103329	-0.06463124728473368	0.1666312264280044	0.006082521219077597	-0.015619096487738626	0.999859513512037	0.9949287804267285	-0.10029291701898158	-0.0076192305653158265	0.10039783271666397	0.9948353505081791	0.014929854824022037
17														9.842708354923174	-0.05988891538530805	0.1527517523139778	0.006102095387839124	-0.01562881613497441	0.9998592423626924	0.9949290667786166	-0.10028852531995042	-0.007639618326915731	0.10039380713425006	0.9948356405936455	0.014937593304216568
18														9.83699763803919	-0.08381069122148854	0.15232945281827917	0.006097646580847216	-0.015588947696192845	0.9998598918928099	0.994929955123488	-0.10028036315004507	-0.0076310657493204315	0.10038527334300812	0.994837088912663	0.014898436818307548
19														9.86189402593576	-0.0651295521951052	0.1670022616648713	0.006110499808993697	-0.015563362835225358	0.9998602119943285	0.9949318365090569	-0.10026093893660948	-0.0076409962874535164	0.1003658432575531	0.9948394472782072	0.014871840719685836
20														9.845259198426117	-0.11079896104751906	0.13217633471040188	0.006107142419829958	-0.015591680557714482	0.9998597913251889	0.9949325937006079	-0.10025347120139969	-0.007640386394085985	0.10035854125905141	0.9948397564479701	0.014900408950729027
21														9.837485973060314	-0.05852428341700601	0.11922848561941987	0.006103975466722922	-0.015585387818669916	0.9998599087722453	0.9949304065772046	-0.10027543734177363	-0.007636932239715899	0.1003804141833437	0.9948376412020492	0.014894297429643544
22														9.847902160489417	-0.06259885094183863	0.18754430529686106	0.006113365516407954	-0.015579099239123984	0.9998599494073963	0.9949328521552716	-0.1002505337607468	-0.007645271928605424	0.1003556000641706	0.994840249561498	0.01488728948389717
23														9.856163257637858	-0.08947126157467797	0.1674802418149665	0.006118487200066469	-0.015586380694907198	0.9998598045982325	0.9949336912861182	-0.10024177088964431	-0.007650968088211585	0.10034696835560797	0.9948410185078524	0.014894087286474511
24														9.831763712526739	-0.0827626063066122	0.11944434974995242	0.006118628938040049	-0.015596866079581329	0.999859640223774	0.9949323948826507	-0.10025453162220377	-0.007652352728821754	0.10035981263928478	0.9948395683011955	0.014904407042868661
25														9.862365287203206	-0.04031116697477337	0.13502264685617116	0.0061092962063517	-0.01560171079251188	0.9998596217070723	0.9949337875449753	-0.10024139623377984	-0.007643355448486655	0.10034657393888757	0.9948408159607489	0.01491026482924468
26														9.861853845268072	-0.06624863216188082	0.16892385039276783	0.006138348121727755	-0.015616476903731802	0.999859213255272	0.9949303145840772	-0.10027350272040758	-0.0076742278966305255	0.10037922994307891	0.9948373486662508	0.014921792611441942
27														9.856138813515392	-0.09022020777695978	0.16851377891542316	0.00613332185352139	-0.015573732689840691	0.9998599107940808	0.9949311417659392	-0.10026601436225296	-0.007664822779032077	0.10037133807699583	0.9948387734773985	0.014879827909607235
28														9.85093203605764	-0.08832950054651795	0.1345213510512073	0.006130657601700895	-0.015585535911189663	0.9998597432178838	0.9949304236821228	-0.10027324338101842	-0.007663464853676805	0.10037861858525055	0.9948378600215277	0.014891782925651798
29														9.881026783691095	-0.07162479871320268	0.1836162850220908	0.006137214708232863	-0.015576954367468088	0.999859836721257	0.9949310742290659	-0.10026636319015175	-0.007669025102144511	0.1003717695819985	0.9948386878812334	0.014882639743130588
30														9.842148050294197	-0.08758399263095965	0.18879285655427522	0.006124903269800364	-0.01556988776004653	0.9998600222806567	0.9949299745836917	-0.10027825099722051	-0.007656242670738278	0.10038342111539322	0.9948376003007116	0.014876753445951296
31														9.861836280616386	-0.06680687264699504	0.16972746539932898	0.006110705635049951	-0.015575876372152464	0.9998600158781634	0.9949299487698633	-0.10027953746197057	-0.007642735584221516	0.10038454222358562	0.9948373768820977	0.014884127146342296
32														9.856118625992709	-0.0906565363972118	0.16945771495848164	0.006122522827138266	-0.015569460837171645	0.9998600435078255	0.9949318300783503	-0.10026004455401263	-0.007653558843566388	0.10036517429455144	0.9948394419981885	0.01487670775262856
33														9.856625517410626	-0.06529779758712308	0.1360374542263515	0.006153125581130736	-0.015566903713238378	0.999859895462542	0.9949299537168801	-0.10027633508629433	-0.007683997565578082	0.10038190196698515	0.9948378401178977	0.014870965908325873
34														9.850907316004271	-0.08926939170228945	0.13570590346375874	0.006146449361252304	-0.015559208734863939	0.9998600562997777	0.9949320366427881	-0.10025625746869268	-0.00767628166530443	0.10036166410579006	0.994839984048649	0.014864135225448494
35														9.850903497813142	-0.08946005144958638	0.13585746452911848	0.0061674624115089505	-0.01555306907926468	0.9998600224279492	0.9949321326814493	-0.10025375140156836	-0.007696537393936886	0.10035942290261723	0.9948403326022368	0.014855936945392834
36														9.842631526471246	-0.06287243699552465	0.1564584048609342	0.006137392230447403	-0.015574787473339069	0.9998598693875909	0.9949322093842728	-0.10025511454115416	-0.007668815949666119	0.10036050590914453	0.9948398554558924	0.014880552750492215
37														9.8700728397734	-0.09447784412375633	0.1508443375967522	0.00613765074014655	-0.015583217856178111	0.9998597364453872	0.994931629974863	-0.1002607735450124	-0.007670004153737808	0.10036623395821226	0.9948391531345169	0.014888870730944526
38														9.856604518629053	-0.06599868996901556	0.13721553252599214	0.006147764991219551	-0.015560441149827464	0.999860029032482	0.9949337993536415	-0.10023867336471437	-0.007677451778429378	0.10034410739719957	0.9948417366763948	0.014865365025938715
39														9.850886464347669	-0.08989685219000826	0.13680091283843993	0.006149458914307515	-0.015553005527378427	0.9998601343058574	0.994933031231735	-0.1002462166103012	-0.007678503718338392	0.10035161941440307	0.9948410928758353	0.014857738943758692
40														9.856599520163256	-0.06638435615030959	0.13738845113483747	0.00616966767421373	-0.015533182564321069	0.9998603179645718	0.9949345178876823	-0.10023008934260177	-0.00769638265556255	0.10033563831658493	0.9948430275323836	0.014836113163693487
41														9.875776946094751	-0.07137568902130316	0.151755245604355	0.006142453387634139	-0.015520865223631941	0.9998606767990685	0.994934858261744	-0.10022888231906055	-0.007668048301628705	0.10033393285456782	0.9948433413818392	0.014826598603634389
42														9.856593456458208	-0.06660427447693704	0.13771671477034816	0.006173222086211627	-0.015536835205823385	0.9998602392739004	0.994935020436184	-0.10022480689236984	-0.007700207337292986	0.10033043625303556	0.9948435026853091	0.014839431461525276
43														9.850347689805512	-0.11626878762187058	0.1710451462052874	0.006165329577009437	-0.015525811334474782	0.9998604592109908	0.9949362246394704	-0.10021355294415141	-0.0076910796685014104	0.10031897931779571	0.9948448084946295	0.014829342531603285
44														9.870568106492772	-0.0698995207475872	0.11847797304115865	0.006165758344264305	-0.015552570241796682	0.9998600406971535	0.9949365705067155	-0.10020988439477571	-0.007694136593581091	0.1003155226890392	0.994844760064835	0.0148559509680532
45														9.85657670634152	-0.06711371292788403	0.13866490422517835	0.006170885820795391	-0.015559848884068583	0.9998598958208552	0.9949374089102635	-0.10020112195948971	-0.007699838244443813	0.1003068916830635	0.9948455288439328	0.014862746049022824
46														9.856571610846256	-0.06723341277443215	0.1389687706820897	0.006162292031356376	-0.015566838786918558	0.9998598400211411	0.9949382799347049	-0.10019308503256014	-0.0076918679284452285	0.10029878003989245	0.9948462289428652	0.01487062475718448
47														9.861755948945438	-0.06931475614192623	0.17335070583660225	0.006167419135625241	-0.0155741183334695	0.9998596950469305	0.9949391182070555	-0.10018432258570059	-0.00769756905858604	0.10029014908042039	0.9948469974554779	0.014877420853349754
48														9.870548992856213	-0.07048024543692534	0.11971973758440602	0.006170206428224967	-0.015567907228100586	0.999859774577001	0.9949391391380182	-0.10018394988987653	-0.0076997140052856294	0.10028976998644262	0.9948471322012247	0.014870964564091427
49														9.836853459501384	-0.08829515409491284	0.15896228460145823	0.006142993331497648	-0.015555588741402782	0.9998601338646516	0.9949394796376492	-0.10018274187996201	-0.007671381086754081	0.10028806255629075	0.9948474465405852	0.014861447452528764
50														9.856023127209138	-0.09336157978353105	0.17349537540381693	0.006173824862497901	-0.015570698009116035	0.9998597087842258	0.9949390184833994	-0.10018484876827483	-0.0077036080227771975	0.10029074426814216	0.9948469980056167	0.01487337128412014
51														9.856551281086501	-0.06805542023722229	0.14000670482471217	0.006197710331147743	-0.015532821751529757	0.9998601501385511	0.9949387354935082	-0.1001861202418744	-0.007723595371264047	0.10029207845702232	0.9948474620560257	0.014833281479652405
52														9.842561050971458	-0.06524207625876144	0.15988421067907277	0.006180229567340267	-0.015541707299953245	0.9998601202651789	0.9949379420465947	-0.10019525990221395	-0.007707228374409125	0.10030102810331742	0.9948464028317794	0.014843804569150965
53														9.84255721136227	-0.06524404359597846	0.16011958019966888	0.006172337825292029	-0.015530679342692255	0.9998603403700566	0.9949391459206512	-0.10018400646203829	-0.007698101317839212	0.10028957154388446	0.9948477083696625	0.014833711308210873
54														9.84255464877524	-0.06524535466540135	0.16027649379957717	0.006154572962180471	-0.015523800762069828	0.9998605566985592	0.9949354457292708	-0.10022211230453937	-0.007680301863417616	0.10032736447824259	0.9948439776241879	0.014828355328020237
55														9.845635477765569	-0.09002266387618481	0.1060819820679232	0.006156265686578288	-0.015516358668580255	0.9998606617956649	0.9949346774841776	-0.10022965815201612	-0.007681351846271611	0.10033487894173437	0.9948433335155836	0.014820722902393946
56														9.861721121916057	-0.07036436476793027	0.17490214980606078	0.0061602321271825855	-0.015511452605940168	0.9998607134887305	0.9949354684182428	-0.10022155102496674	-0.007684685648895295	0.10032679215200485	0.9948442267753299	0.01481550634587836
57														9.85081199781613	-0.09222768682590603	0.1405599811396865	0.006150904167090521	-0.015516288582823556	0.9998606958804523	0.994936861313525	-0.10020841149277418	-0.007675693173072873	0.10031355031858652	0.9948454749631774	0.014821355126000912
58														9.84253582716752	-0.06573154591034636	0.16123090686118313	0.006170249038220332	-0.015542724011895048	0.9998601661017892	0.9949385360390206	-0.10019012293442803	-0.007697322321156719	0.10029575031544419	0.9948469043006947	0.01484585706477809
59														9.85079815094945	-0.09251835842875841	0.14133723928546238	0.006141599595417713	-0.01554626435250367	0.9998602874497478	0.994939065564439	-0.10018702694766998	-0.007669122840866016	0.10029225577366879	0.9948471607719798	0.014852277123729718
60														9.861694724152633	-0.07077565680326332	0.17621967318983434	0.0061464339850586525	-0.015554894965742638	0.9998601235132207	0.9949391040621562	-0.1001862108875761	-0.007674787031890229	0.10029157769853886	0.9948471080475612	0.014860385329563353
61														9.875680321522205	-0.07390614067806194	0.15674982957293987	0.006146691379840086	-0.015563315069953787	0.9998599909032841	0.994938524862821	-0.1001918718811699	-0.007675972429746436	0.10029730768508188	0.9948464062522324	0.0148686932224531
62														9.817618871783305	-0.08490512416745435	0.14777031432522486	0.006134206648994001	-0.01557097584666789	0.9998599483027458	0.9949404161250542	-0.10017400207471344	-0.00766405044598939	0.10027930928008433	0.9948480859003134	0.014877705158773902
63														9.783906323760045	-0.102785191848639	0.18700613162594212	0.006137333284683466	-0.015547664703758401	0.9998602918720259	0.9949394591486151	-0.10018343650456468	-0.007664964396347784	0.10028861236059733	0.9948475004604453	0.014854125971947907
64														9.994333504759805	-0.1026257352216961	0.15489437178782126	0.006116664644255254	-0.015489847764414644	0.9998613158982923	0.9949415919598651	-0.10016428886353548	-0.007638312957138016	0.10026871397399434	0.9948503303777394	0.014798822429634206
65														9.928005233322493	-0.08680995426766282	0.16602326428836645	0.006104472179370379	-0.015526407806987441	0.9998608233549418	0.9949433612319323	-0.1001473775060584	-0.0076295949540777785	0.10025189953270491	0.9948514630030302	0.014836549491519191
66														9.712943974759703	-0.05946456579965225	0.13070807059417897	0.006116855893698758	-0.015524995364616934	0.9998607696039005	0.9949411422608508	-0.10016846753347794	-0.007642090595360307	0.10027316445913559	0.9948493617784167	0.014833740540671436
67														9.790162792513279	-0.05356641662650661	0.15464241308089266	0.006096358597974583	-0.015547983882055416	0.9998605375796406	0.9949398883402178	-0.10018228421124828	-0.007624206173181047	0.10028685358210915	0.9948476115101346	0.014858562217811733
68														9.981417277694325	-0.048588706126430535	0.1087248034814064	0.00610974206661441	-0.015541435655624936	0.9998605576927424	0.9949440145892174	-0.10014037972083303	-0.007636241382940279	0.10024509406933896	0.994851932765439	0.014851026493140407
69														9.760089216274594	-0.07069767285550517	0.10630534992145485	0.006110003632460614	-0.015549853760141286	0.9998604252112644	0.9949434355732809	-0.10014604169926528	-0.007637430301247028	0.10025082476093994	0.9948512312803399	0.014859332244218038
70														9.869917027185164	-0.09842195007547057	0.15833172731546516	0.006112289948345451	-0.01556018634308548	0.9998602504913154	0.99494485049775	-0.10013174722696608	-0.007640527814573972	0.10023664190104165	0.9948525085650857	0.014869493002752643
71														9.875079995477424	-0.100530733699582	0.1927368987408313	0.006112552306177854	-0.015568603747017629	0.9998601178573299	0.9949442714992597	-0.10013740941642851	-0.0076417174885445305	0.10024237285256371	0.9948518069605823	0.01487779796047406
72														9.870461522989384	-0.07297737759903089	0.1253049250864452	0.006105669271225356	-0.015560474923139223	0.9998602864515209	0.9949462531008864	-0.10011832512954541	-0.007633767992418328	0.1002231222984889	0.9948538548919743	0.014870546840017707
73														9.847075006659363	-0.09479713005593522	0.2326894185691969	0.006107365945673127	-0.015553028882977216	0.9998603919416806	0.9949454853408766	-0.10012587419139413	-0.007634822670972874	0.10023064043002877	0.9948532115895163	0.014862910516177164
74														9.869898347311196	-0.09876446228219603	0.15928004673204396	0.006080321190190974	-0.015558722402939651	0.9998604681911438	0.9949474576525046	-0.10010829893422593	-0.007608218931788924	0.10021270480853461	0.9948548912488115	0.014871420687802173
75														9.831564717487772	-0.08882473853931248	0.1309185412475277	0.0060626941059839234	-0.015549982779452132	0.9998607111871818	0.9949458263797741	-0.10012588815607942	-0.007590065245147604	0.10022996712384274	0.9948532578006245	0.014864357834712905
76														9.894783358247173	-0.07996254955582946	0.17439230615093684	0.006074976735347071	-0.015526302597845432	0.9998610046327967	0.9949450881318456	-0.10013246938553408	-0.007600011649308014	0.10023655151679717	0.9948529652679312	0.014839516084605098
77														9.836725496877778	-0.09114213833485468	0.16515338819743536	0.006091124913955137	-0.015521296437654653	0.9998609841143808	0.9949437669091431	-0.10014440045775785	-0.007615756403801799	0.1002486852079787	0.9948518424438142	0.01483282509237216
78														9.82844806843746	-0.06461824639817132	0.18558993626456058	0.006084611122069816	-0.015512360722223784	0.9998611624482256	0.9949456631848375	-0.10012614056489669	-0.007608106549123306	0.10023025898987514	0.9948538197345389	0.01482472739784424
79														9.895334354554251	-0.05465770741131535	0.14119031743951208	0.006057401067650403	-0.015500033009155423	0.9998615188459958	0.9949460016153124	-0.10012492627255146	-0.007579776290870699	0.10022854763992717	0.9948541340898334	0.014815199032062631
80														9.829004448301426	-0.03881048991285175	0.15230116641537683	0.006045916265940754	-0.015492802535884698	0.9998617004196584	0.9949464514182842	-0.100121379784883	-0.0075675702927931465	0.10022477591229811	0.9948546036379169	0.014809183426992834
81														9.764662104806158	-0.09916476878748932	0.17614109958266141	0.006039464263973282	-0.015465902087984651	0.9998621558715031	0.9949474641265816	-0.10011201484040544	-0.007558314142701861	0.10021511113344889	0.9948559646286492	0.014783137126847312
82														9.89533545605573	-0.05470182337306371	0.14109610928124516	0.006049126438293695	-0.01538174733050901	0.9998633956288197	0.9949459387521525	-0.10012706756278089	-0.007559715727187277	0.10022967140488442	0.9948557544641025	0.014698325745818919
83														10.005161425503955	-0.08237971426854561	0.19257865759932974	0.006041240877586729	-0.015370712004205644	0.9998636130098659	0.9949471404526171	-0.10011581392530577	-0.007550596481980809	0.10021821747476417	0.9948570575789053	0.014688222207726698
84														9.811825290516259	-0.11020498623992041	0.15079862315032408	0.006018142208537025	-0.015427217871268606	0.9998628820558897	0.9949458083151344	-0.10013034021103509	-0.007533490914974295	0.10023283135031885	0.9948547210110503	0.014746647128203838
85														9.80926643310488	-0.05983977949706339	0.17220937082117943	0.006016969967118813	-0.015451500050119193	0.9998625141581297	0.9949454183275919	-0.10013411562995769	-0.007534814924047728	0.10023677279994686	0.9948539641742438	0.014770895214725244
86														9.875589012351105	-0.07569286967758306	0.1615756160237726	0.006005284619046036	-0.015444600481544501	0.9998626910094259	0.9949457601408529	-0.10013164830972868	-0.007522458675068511	0.10023408070305001	0.9948543196482303	0.01476522071870795
87														9.865264584126752	-0.07187084594286809	0.09356506881203648	0.006011852076965418	-0.015436003850300306	0.9998627842957943	0.9949464092162212	-0.10012477990352969	-0.007528030088767013	0.1002272439127822	0.9948551443473583	0.01475606123748524
88														9.837256003964425	-0.06615912836006173	0.13337198900662744	0.006023043033319575	-0.015450058563504065	0.9998624998683588	0.9949452412018231	-0.10013543006323286	-0.007540733114109577	0.10023816619664194	0.9948538542602308	0.014768842239617053
89														9.822681015925436	-0.08893282220126864	0.18698312874931772	0.005995833794328775	-0.015437726035753607	0.9998628538914502	0.9949455779737111	-0.10013421327995708	-0.007512403168214887	0.10023645468425402	0.994854168180266	0.014759309153290157
90														9.870419257861869	-0.07405009098232399	0.12797646195437587	0.005994086159165746	-0.01536500034001742	0.9998639845977392	0.9949458476675324	-0.10013221284940643	-0.00750334318934337	0.10023388219685192	0.9948554953933926	0.01468714217658329
91														9.86469398046907	-0.09791533434430343	0.12722602138162764	0.006006959877532025	-0.015339386457641047	0.999864300620906	0.9949477245903917	-0.10011281465945401	-0.007513299765393	0.10021447882133883	0.9948578428921719	0.014660513991756441
92														9.822685903619988	-0.08913397343365591	0.18663024956597946	0.005994184758220389	-0.01533089298816076	0.9998645075555339	0.9949459316733305	-0.10013162761417196	-0.007500013201695188	0.10023304243498316	0.9948560804817563	0.014653202131429066
93														9.884421994479478	-0.0773441197607003	0.1079382005327992	0.006000177509832061	-0.015275840139638452	0.9998653142188096	0.9949445965898389	-0.10014484485135644	-0.007500651063793384	0.10024593551128919	0.994855596937428	0.014597727759500634
94														9.856418954250788	-0.0714606334029998	0.14742910803725082	0.005983743701814703	-0.015269700968728206	0.9998655064775647	0.9949438244836528	-0.10015377504810294	-0.007483813563734731	0.10025458060933545	0.99485479220635	0.014593200159891129
95														9.881309202897114	-0.05263632829940114	0.16223710304074482	0.005973852190892026	-0.015228072803556647	0.9998662004931915	0.994943230215161	-0.10016071721746217	-0.007469897958140681	0.10026106791283862	0.9948547313679386	0.014552722625131409
96														9.816958550229721	-0.1130330341130319	0.18600545069608235	0.005976247447017802	-0.01522362248553788	0.9998662539484318	0.9949418431741214	-0.10017433506255241	-0.007472034265012806	0.10027468856961891	0.9948534283567572	0.014547952401373743
97														9.889582213758649	-0.07940253498083465	0.14196633970690803	0.005951903365768896	-0.015179553448598948	0.9998670691664099	0.994941800459594	-0.1001768889887687	-0.007443427352621712	0.10027656029474874	0.994853844576998	0.014506529075577201
98														9.856421313488788	-0.0714592934137126	0.14727194616064243	0.005947265238774091	-0.015138923918848135	0.9998677127594228	0.9949417160503538	-0.10017837105967933	-0.00743475854395137	0.10027767298335821	0.9948543144372493	0.014466559599094264
99														9.831528698830173	-0.09026272154440797	0.1326287868134582	0.005926762616457859	-0.015161906160811423	0.9998674862632846	0.9949404594631737	-0.10019217666268992	-0.007416863137603924	0.10029135360587066	0.9948525741722558	0.014491378634869267
100														9.870985231447502	-0.04888760519917145	0.09430967734260513	0.0059513576443889216	-0.015142166317414829	0.9998676393110267	0.9949424189785742	-0.1001710709474718	-0.007439049825155253	0.10027045556520198	0.9948550001605527	0.014469429715594784
101														9.856981346189412	-0.04613399623760116	0.11415302866909995	0.00594834396076821	-0.01512997320254228	0.9998678418246161	0.9949450376525821	-0.10014539894011404	-0.007434455032350962	0.10024464701233193	0.9948577702274916	0.014457792478701825
102														9.83724687184196	-0.06694068580576146	0.1336552480158547	0.005934636076996236	-0.015138523805925952	0.9998677938565739	0.9949446492037405	-0.10015020104482053	-0.007421741812326632	0.10024931478808435	0.9948571567454598	0.014467638261310423
103														9.861561536626299	-0.0739428291248299	0.18226878963261092	0.005946074900067155	-0.015128773838638865	0.9998678734690011	0.9949467159753181	-0.10012891771591667	-0.007431837388490015	0.10022812261642222	0.9948594473789645	0.01445694980308554
104														9.85639893048504	-0.07217660841998798	0.14841574710055727	0.0059473678389186935	-0.015139200025241828	0.999867707968601	0.9949473088989128	-0.10012285929375947	-0.007434081090000433	0.10022215987793948	0.9948598985130706	0.014467238850692399
105														9.850664013763694	-0.09605035012014519	0.14816506146815478	0.005949060552947416	-0.01513174503005904	0.9998678107484418	0.9949465410089215	-0.10013041199896788	-0.0074351279275267634	0.10022968229481272	0.9948592517965854	0.014459595492912758
106														9.878669096386988	-0.10208436077165782	0.10876622996896006	0.0059419787790098155	-0.015122631751710913	0.9998679907353234	0.9949478821026346	-0.10011768989103112	-0.007426982588238873	0.10021678895111569	0.9948606707372576	0.014451333244446807
107														9.86212151115696	-0.04873714473958409	0.1492955072357556	0.005936959928147301	-0.015079854045222219	0.9998686666301659	0.994948704430141	-0.10011021366017409	-0.007417592176571841	0.10020892205584903	0.994862072411492	0.014409330918390695
108														9.856392181039297	-0.07234140529790418	0.14878328623557735	0.005896502489688371	-0.01506701952132572	0.9998690995230992	0.9949503751624397	-0.10009669213364764	-0.0073758516811621155	0.10019472153017756	0.9948636274116396	0.014400716330947139
109														9.850661261707286	-0.09590264904742453	0.14844343970551166	0.005878868529600345	-0.015058269365202936	0.9998693351776204	0.9949487408672396	-0.10011427252665017	-0.007357681914457959	0.10021198506918422	0.994861990911395	0.014393647498427586
110														9.87612281059372	-0.05149171845976874	0.12981959650825076	0.005885673175649475	-0.015052528356758244	0.9998693815900846	0.9949482921780437	-0.10011827179121402	-0.0073639354651385824	0.10021604034915554	0.9948616753316059	0.014387223954844208
111														9.845501157227991	-0.09416530496774266	0.11460926282583146	0.005883924422131925	-0.015030355837505671	0.999869725432665	0.9949459177802203	-0.1001421311015141	-0.007360317311262632	0.10023971331697806	0.9948596091820421	0.014365162452437852
112														9.851228468736064	-0.07058442738917658	0.11527111614981676	0.005889591528306204	-0.015039145469228798	0.9998695599002829	0.994946179585391	-0.10013905374394272	-0.007366793312067077	0.10023678187204871	0.9948597861099941	0.014373362206255236
113														9.876113865829751	-0.051998270378475306	0.13029729433532056	0.005901031763804299	-0.015029395477366536	0.9998696390508657	0.9949482464276473	-0.10011777258880297	-0.00737689246276424	0.10021559137515984	0.9948620753066442	0.014362672518905606
114														9.818056299811097	-0.0630929395321909	0.12118950107381471	0.0059012887147923965	-0.015038972771060699	0.9998694935287786	0.9949466979870321	-0.10013305361986691	-0.007378328907192366	0.1002309480959176	0.9948603926535383	0.014372062240379069
115														9.8372109542052	-0.06816532372265949	0.1356647446993333	0.005904412055756814	-0.015015651443027356	0.9998698255923204	0.9949457408677378	-0.10014249657065666	-0.007379235037893117	0.10024026460172725	0.994859794439567	0.014348475885549217
116														9.855782857616916	-0.09882695973078386	0.1838107821266689	0.005883805861788438	-0.015040933883487317	0.9998695670618708	0.9949430252615721	-0.10017076541659989	-0.007361673668595026	0.10026842629627308	0.9948565665782001	0.014375486924058156
117														9.86150987985231	-0.07515292657644132	0.18455437450002948	0.00588692896912435	-0.015017614897740839	0.9998698991919375	0.9949420678236711	-0.10018020815523959	-0.00736257894559289	0.10027774300446585	0.9948559680359543	0.0143519030506159
118														9.864630732788086	-0.10013484252503532	0.1303638519176317	0.005908177454555685	-0.01502793679181591	0.9998696187778418	0.9949443308735696	-0.10015612286091122	-0.007384410336316982	0.1002540368349849	0.9948582372223951	0.014360220368720977
119														9.856350411312667	-0.07370111207307864	0.15086843125755076	0.005914742893067815	-0.0150193330458957	0.9998697092378412	0.9949449803506243	-0.10014925983641457	-0.0073899816856516365	0.10024720390916064	0.9948590580524835	0.014351052899364669
120														9.86977060176966	-0.10249505723682042	0.1647451410208344	0.005913245613747287	-0.01499298426593293	0.9998701135393102	0.9949464172080003	-0.10013530384314584	-0.007385648868244887	0.10023303054021482	0.9948608602950679	0.014325091332414164
121														9.842924782065223	-0.04530446537285057	0.13718100101811026	0.005914934035956554	-0.014985529329623881	0.9998702153109981	0.9949456492346802	-0.10014285733663578	-0.007386690289657605	0.10024055379102503	0.9948602123088277	0.014317448812669498
122														9.836598620315279	-0.09490241669061532	0.1705055666829566	0.005926114731551024	-0.014994234913341287	0.9998700185941932	0.9949479384209695	-0.10011925022843429	-0.007398348840058466	0.10021716916801993	0.9948624571532791	0.014325164951538072
123														9.842918501717584	-0.04549706533768972	0.13756734031531456	0.005890580941476209	-0.014968324792264565	0.9998706167845344	0.9949452488690917	-0.10014874002960358	-0.007360816755240029	0.10024596155952253	0.9948598791404729	0.014302729376261814
124														9.837181859011828	-0.0692243016666833	0.13722926328616974	0.005900857984472041	-0.014976333896352556	0.999870436255654	0.9949468469489285	-0.10013206861437687	-0.007371606432176436	0.10022949476791887	0.9948614367126862	0.01430979107244551
125														9.856331607312375	-0.07438837461338067	0.15175699552580993	0.0059122979037645185	-0.014966584426417406	0.9998705146588256	0.9949489133851533	-0.10011078942213306	-0.007381706779662323	0.10020830548013832	0.9948637249351718	0.014299102101706429
126														9.837174317827206	-0.06957826976333913	0.1375903238194094	0.005902189677661207	-0.014958415565890726	0.9998706966207014	0.9949518705184434	-0.10008222755422613	-0.007370419230573189	0.10017953637774141	0.9948667214916487	0.01429219925688724
127														9.881213395642629	-0.0558282678802383	0.16693731757556685	0.005912199174903876	-0.01496453171329204	0.9998705459665854	0.9949541249680316	-0.10005905794344619	-0.007380659358623254	0.10015655300585291	0.9948689600716627	0.014297453476539934
128														9.837164593795528	-0.06991126384901096	0.13811578779840417	0.005917997307842593	-0.014973868334143603	0.9998703718857642	0.9949549514258373	-0.10005035397750056	-0.007387239145086155	0.10014800018509717	0.9948696949531073	0.014306226715567194
129														9.856312288004663	-0.07491482440812687	0.15274954242150088	0.005898924130901817	-0.014980988366141923	0.9998703779398971	0.9949535079106794	-0.10006603823425966	-0.00736919862227986	0.10016346534706544	0.9948680103308551	0.014315104959238212
130														9.85056887212378	-0.09883783926022509	0.15259117245342982	0.0059286740247301295	-0.014995885866491976	0.9998699786629198	0.9949519120013515	-0.10007959608697106	-0.007400489978624913	0.10017756050714899	0.9948664221161292	0.014326846013293926
131														9.848026675084325	-0.04851291586193867	0.1735316210424182	0.0058931385621687205	-0.014969975842899386	0.9998705769954181	0.9949492239081867	-0.10010908403628974	-0.007362957144527393	0.10020635090843372	0.994863845516902	0.014304409143259422
132														9.850562594060454	-0.09894077104672311	0.15292932801100823	0.005904499643951455	-0.014977156576629846	0.9998704024346522	0.9949530689612467	-0.10007001795313833	-0.00737442007582817	0.10016749696658478	0.9948676677265864	0.014310704514856498
133														9.8754428723226	-0.08036004693386885	0.16812135098666092	0.005908201051864015	-0.015000286770823212	0.9998700338329598	0.994954096125044	-0.10005937366514597	-0.00738026732142405	0.10015707545814095	0.9948683898579409	0.014333425868943539
134														9.837135933958674	-0.07059792957297693	0.13979750108767425	0.005896437409333821	-0.014992324429203785	0.9998702226959695	0.9949542731459868	-0.1000585357780282	-0.007367751794014388	0.10015601017621933	0.9948685941500851	0.014326688361742612
135														9.864558483183814	-0.10230432003481481	0.13409312216885794	0.005896693263788333	-0.01500073596940088	0.9998700950268139	0.9949536948464335	-0.10006419925525681	-0.007368930643937621	0.10016173980110221	0.9948678977370721	0.01433498978847636
136														9.856880230970031	-0.049927055028221846	0.12107818784877544	0.005869996756070639	-0.015005070555861033	0.9998701870721509	0.9949564784609761	-0.10003846614939918	-0.007342428686034408	0.10013565352369608	0.994870420279993	0.014342166687538682
137														9.856271424606962	-0.07570202524957757	0.15498189846137647	0.005889583755150141	-0.015014773101970635	0.9998699262363522	0.9949567656323387	-0.10003411058519182	-0.00736282838763852	0.10013164996956397	0.9948707118556293	0.014349890809576715
138														9.851134055638367	-0.07399045917070278	0.12105847914141635	0.005893505893352524	-0.014993589704634547	0.9998702210067334	0.9949562698675805	-0.1000389052246157	-0.007364678720121365	0.10013634524724413	0.9948705492219725	0.014328386206942378
139														9.850523749372352	-0.0997643297251056	0.15488389950177217	0.00588276030592777	-0.015014274144095285	0.9998699738981608	0.9949578472965639	-0.10002386570343477	-0.007355840722065965	0.1001213025992479	0.9948717494540023	0.014350153454323833
140														9.881143784007314	-0.05732032028827056	0.1705137124922685	0.00588002990108627	-0.0150099313443941	0.9998700551618691	0.9949553583574466	-0.10004882582925895	-0.0073530487549025025	0.10014619375776435	0.9948693051910003	0.014345921532237627
141														9.850514084768896	-0.0999409783130242	0.15538382601696554	0.005876841013387868	-0.01500362296053992	0.9998701685907834	0.994953174484325	-0.10007079767005223	-0.007349560343588246	0.10016807536969013	0.9948671905092346	0.014339802125365342
142														9.84223131061129	-0.07331237562042521	0.1758853430829757	0.0058679111174942955	-0.015011383920890187	0.999870104549534	0.9949538528461829	-0.10006465455386024	-0.007341363330626072	0.10016186063394	0.9948676913347803	0.0143484637697181
143														9.869651090514996	-0.10497121888981951	0.17025372843318326	0.005853718774953998	-0.015017353012248491	0.9998700981052534	0.994953824967788	-0.1000659217360666	-0.007327857059149123	0.10016296799951407	0.9948674737951868	0.014355815055628718
144														9.831965303570735	-0.06943486789844204	0.10832968388417362	0.0058409841292396125	-0.015025305477379458	0.9998700531067595	0.9949549974687366	-0.10005514329758441	-0.0073158261110263245	0.10015206396469761	0.9948684377821079	0.014365082269163054
145														9.856236397624142	-0.07629726127537229	0.15690559379687402	0.005824778123317553	-0.015000687271943092	0.9998705172877054	0.9949531740714934	-0.10007461061520717	-0.007297514321704557	0.10017112041339526	0.994866851237684	0.01434206901186269
146														9.86197278742609	-0.0526241310717865	0.15757095990144201	0.00582521714356804	-0.015012049227654034	0.9998703442062966	0.9949515365128923	-0.10009075822044078	-0.007299322536609643	0.10018735866298939	0.9948650554205052	0.014353211044563052
147														9.8370813362603	-0.07147089308250003	0.14315552779145474	0.005804712272223844	-0.01503503806373796	0.9998701180382678	0.9949502804066327	-0.10010454744698441	-0.007281421509457486	0.10020102212153648	0.9948633208691822	0.014378037242369468
148														9.856220099589372	-0.07654976636212192	0.15780385410604997	0.005826703516658482	-0.015031103010593294	0.9998700492906132	0.9949509189556082	-0.10009664350139133	-0.007302795981383614	0.10019340495022266	0.9948641756049112	0.014371976288610866
149														9.85683208148628	-0.05113623321272951	0.12444649739343883	0.005831845105011613	-0.015038370239632615	0.9998699100399044	0.9949517573797328	-0.10008789191999817	-0.007308514075499428	0.10018477963070116	0.9948649462673547	0.014378755815484923
150														9.895114231355459	-0.06119310457638583	0.15340768903192417	0.005838651816555962	-0.015047987315300826	0.999869725625656	0.9949540869760027	-0.10006419087968715	-0.007315908237754076	0.10016124477418764	0.9948671849957427	0.014387816510269713
151														9.851081496389929	-0.07515045822872403	0.12457002917970476	0.005824463809714464	-0.01505396063815051	0.999869718458577	0.9949540588739989	-0.1000654565084379	-0.007302406720560317	0.1001623499698559	0.9948669673292316	0.014395171609021262
152														9.884244498986437	-0.08311413318389395	0.11930485935127798	0.005823152494257466	-0.015036059060033025	0.9998699954608958	0.9949509473015069	-0.10009658332633958	-0.007299758230749298	0.10019332991203983	0.9948641067675206	0.014377263536597795
153														9.864477582362742	-0.10388739401206047	0.1387466847054187	0.005804083528655579	-0.015043187741437203	0.9998699991083684	0.9949495019840127	-0.10011226195855338	-0.007281724198810402	0.10020878761943958	0.9948624213971087	0.014386152220944859
154														9.870214320611225	-0.08031024613001675	0.13948920383736377	0.005825008276436283	-0.015037961648449505	0.999869956038304	0.9949486636943643	-0.10011910726902104	-0.007302121092793101	0.10021589640061607	0.994861811544254	0.014378805218340451
155														9.842162965487931	-0.07454065119653223	0.1791629878819395	0.005817135589862021	-0.01502692038612674	0.999870167870428	0.9949498632054267	-0.10010784983518839	-0.007293017816914549	0.10020444421796681	0.9948631112193698	0.014368691446474846
156														9.837041516071261	-0.07261202750097519	0.14530142070601015	0.005805192856047248	-0.015033519171477272	0.9998701380865541	0.9949523836699481	-0.1000836389376519	-0.00728144535693509	0.10018010763316443	0.994865447444185	0.014376630908841115
157														9.88934672070421	-0.08541001576410848	0.15434419503668728	0.005784304587028666	-0.015004160919879661	0.9998707001285393	0.9949539427278029	-0.10006987688531574	-0.007257519587172245	0.10016583085486241	0.9948672750147372	0.01434961441666549
158														9.837038464769746	-0.07260862414499461	0.14550953703828073	0.005791898592799716	-0.014995415025224557	0.9998707873715043	0.9949556832691955	-0.1000521036775654	-0.00726394383389295	0.10014810153477183	0.9948691944561933	0.014340281763830787
159														9.856801452506774	-0.05203503258955647	0.12648323390198205	0.0057921615194382325	-0.015003829355097864	0.9998706596203413	0.994955104989304	-0.10005776802153982	-0.007265130024410538	0.10015383128296501	0.994868497924842	0.014348585857587692
160														9.85616858578182	-0.07778554682376468	0.1603957253273682	0.005777579508234487	-0.015012042957978589	0.9998706207011254	0.9949534903222375	-0.10007479759031992	-0.007251688276113888	0.10017071263909161	0.9948666611428308	0.014358094438059688
161														9.856791984762229	-0.05228008592437826	0.12711843416057814	0.005797173998609573	-0.0150217546311317	0.9998703614276365	0.9949537789615512	-0.10007044689053718	-0.0072720966204555815	0.10016671355175283	0.9948669521835223	0.014365825744134697
162														9.870181815411495	-0.0811798110723123	0.14127447191085116	0.005798613395080032	-0.015030461517911486	0.9998702222334923	0.9949543713885258	-0.10006439533182199	-0.007274313832977108	0.10016074549222459	0.9948674293660618	0.01437438864809143
163														9.870810338432676	-0.0556019686136282	0.10791398856056457	0.0057907421764166744	-0.015019409648850512	0.9998704339257395	0.9949555697764254	-0.1000531402364935	-0.007265211606377442	0.10014929593319744	0.9948687282564554	0.014364263345827244
164														9.861259237301825	-0.08017393855289115	0.19550904746416878	0.005758745836362822	-0.01500952126414401	0.99987076720835	0.9949537038369266	-0.10007405011532988	-0.007232683782455951	0.10016967638749125	0.9948667743798347	0.014357477755149561
165														9.870172660637708	-0.08120761874845736	0.14189672215001967	0.00576389026021229	-0.015016783472578399	0.9998706285231136	0.9949545421508211	-0.10006530146879886	-0.007238404203174398	0.10016105342156872	0.9948675447797544	0.014364251508016013
166														9.842110764421305	-0.07541083278318195	0.18164920457668335	0.0057672319547893425	-0.015011023098398246	0.9998706957507656	0.9949552508536197	-0.1000580632629266	-0.007241047913393417	0.100153820867661	0.9948683597147979	0.014358238192652029
167														9.870163754519647	-0.08145153689500942	0.1423755990560792	0.005753044569442534	-0.01501698964565712	0.9998706878892714	0.9949552218280349	-0.10005932806338544	-0.007227546238514904	0.10015492516750274	0.9948681424638575	0.014365586490146909
168														9.87016032820737	-0.08145356543698277	0.1426117493874587	0.005741540460917904	-0.015007900984610134	0.9998708904759513	0.9949561824013035	-0.10005067696954772	-0.007215063364896579	0.10014604243084146	0.9948691496603819	0.014357758859541547
169														9.861867738619862	-0.05487286356490068	0.16327545030436	0.005748502261837818	-0.015051645491823529	0.9998701929199274	0.9949540171729618	-0.10007136912914738	-0.007226672263381917	0.10016715246591601	0.9948664076390382	0.014400434655368999
170														9.856115962719114	-0.0787939504237451	0.16311409404705704	0.005752948664867252	-0.015029627542268387	0.999870498553488	0.9949543173567261	-0.1000682275586054	-0.00722884544660396	0.10016391543300973	0.9948670565101753	0.014378105435314537
171														9.856116557752136	-0.0788879392172459	0.16303269238488385	0.005747945087690831	-0.014986830714521115	0.9998711697175812	0.9949551361642297	-0.10006076281315665	-0.007219471287359447	0.10015606895085638	0.9948684529375651	0.014336080424154185
172														9.831233080059361	-0.09767743765245263	0.14835617155888103	0.0057292088143623965	-0.015012693170661118	0.9998708892702726	0.994955194943649	-0.10006133471632939	-0.0072034262287267725	0.10015655855213601	0.9948680054854266	0.014363684779410635
173														9.87014025660377	-0.08189797730339123	0.1437419046988143	0.005726228330546035	-0.01500048739610288	0.9998710895345386	0.9949578089830569	-0.10003566690095814	-0.007198867363348016	0.10013075777572528	0.9948707708670306	0.01435202500343119
174														9.851000315182615	-0.07706058548939564	0.129716620548898	0.005721132511570359	-0.01502908966104255	0.9998706891927304	0.9949560969096107	-0.10005283463464085	-0.0071969093343361434	0.10014805971749274	0.994868612805497	0.014380868864152463
175														9.85099585860288	-0.07722972878362531	0.1299541889408463	0.005734034173019653	-0.015003462644513299	0.9998710001599092	0.994957972407229	-0.10003346300540514	-0.007206901028984636	0.10012868717504486	0.9948709476046733	0.014354219476554131
176														9.875227175477972	-0.08430643227374114	0.17853598457895695	0.005735211721985822	-0.015013941046603918	0.9998708361187224	0.994957831487848	-0.10003470327733502	-0.007209140116169299	0.10013002001149818	0.9948706648175252	0.014364518022973838
177														9.86183583268004	-0.055650036575882925	0.16493102249544983	0.005708013105504561	-0.01500159436817644	0.9998711770787276	0.9949581613866698	-0.10003345892653931	-0.007180820652979036	0.10012829608280199	0.9948709761881716	0.014354966455887797
178														9.856086761148907	-0.07923005962003427	0.16466003434493934	0.005680214931702954	-0.015007317335687886	0.999871249504013	0.9949589464925923	-0.10002759679481693	-0.007153647587399725	0.10012207525156896	0.9948714792905866	0.014363486397099778
179														9.856731300997017	-0.05360336276869486	0.13120693857035057	0.005693118508163619	-0.014981691801334351	0.9998715604078465	0.9949608218256185	-0.10000822596109582	-0.007163642383886559	0.1001027044277118	0.9948738129284962	0.014336837704806094
180														9.856081318764595	-0.07944351184374374	0.1648827857800679	0.005689491912435507	-0.014977829640471063	0.9998716389122351	0.9949569742180608	-0.10004674389761689	-0.007160201835513524	0.10014114607202657	0.9948699983690057	0.014333080919165742
181														9.851628771441053	-0.05187283740329583	0.09736438611076534	0.005676741106028782	-0.01496793073037822	0.9998718596200542	0.9949567547984433	-0.1000499008078844	-0.007146567657453917	0.1001440497052381	0.9948698298762421	0.014324486400974723
182														9.856724171188777	-0.05394114310938217	0.13160352968283834	0.005688819486679597	-0.014960745489818739	0.9998718985086223	0.9949587214898546	-0.10002955395010404	-0.007157574157285129	0.10012382266035286	0.994871983941116	0.014316274129329898
183														9.875202512560557	-0.08473938934939775	0.17969141587117562	0.005690517239106185	-0.01495329487674174	0.9998720003009789	0.9949579538625615	-0.10003711369918739	-0.007158626150395531	0.1001313540264821	0.9948713358294454	0.014308636754010784
184														9.836936060752596	-0.07505791576659057	0.1510828932342684	0.00570357187293874	-0.01492975773230143	0.9998722776444726	0.9949590922856851	-0.10002504128598319	-0.007169085979596812	0.10011929856893592	0.994872903163913	0.014283998189307534
185														9.870099824308896	-0.08307706632847908	0.1458264903238463	0.005684501020968069	-0.014936882387390105	0.9998722798401241	0.9949576463997669	-0.10004071366602627	-0.007151047463684723	0.10013475080499457	0.9948712203867076	0.014292883805735013
186														9.8643463003001	-0.106852377924558	0.14565659805402148	0.005685452446665962	-0.014946459231763298	0.999872131318255	0.9949575314307236	-0.10004171979777743	-0.007152967858405079	0.10013583913742924	0.9948709753813989	0.014302309740272134
187														9.842017392692764	-0.07720742376888633	0.1859036862014158	0.005667813972591751	-0.014937711797025077	0.9998723621798141	0.9949558953057589	-0.10005928809301909	-0.007134792403025225	0.10015309421624552	0.9948693399801742	0.014295246983687226
188														9.870085538219406	-0.08332901948301173	0.1466473918619327	0.005689045154125383	-0.014949360996627914	0.9998720675021515	0.9949576377655113	-0.10004038714452121	-0.007156814378495802	0.10013457852963809	0.9948710657898173	0.014304846623607426
189														9.836912776080371	-0.0756682672260951	0.15228967184544093	0.005695632406744866	-0.014940758568758816	0.9998721585807249	0.9949582864370572	-0.10003353509978824	-0.007162409208854359	0.10012775849744604	0.9948718840075995	0.014295677299366427
190														9.856037664972432	-0.08072402100509818	0.1668584725118576	0.005687314830653045	-0.014948378814901409	0.9998720920301869	0.9949598464751324	-0.10001857052043103	-0.007154680512085676	0.10011272822272632	0.9948732741017094	0.014304199591264777
191														9.861781910959383	-0.057048872447646816	0.16765479539795222	0.005678023186503622	-0.014953202604838789	0.9998720727095797	0.9949612329763943	-0.10000541705569282	-0.007145728346992952	0.10009947515739326	0.9948745238930257	0.014310023823838114
192														9.831146524402369	-0.09967638882976083	0.1526988688422518	0.005682852572080066	-0.014978285374631806	0.9998716698426254	0.9949626668552123	-0.09999064232369362	-0.007152832450092739	0.1000849476745026	0.9948756316318796	0.01433460268234893
193														9.86177017060939	-0.057287871126811045	0.16826276483337593	0.005676423925043861	-0.01495136740934544	0.9998721092339828	0.9949636738156674	-0.09998128164514947	-0.007143606079784315	0.10007530164157902	0.9948769772857264	0.014308531306983119
194														9.85093263727785	-0.07906230256349016	0.13359361443769804	0.005660982627605449	-0.014912564490303981	0.9998727762550659	0.9949601117803338	-0.10001805833209071	-0.007124884107459595	0.10011158395388703	0.9948738630740088	0.014271206341539444
195														9.836891393222784	-0.07616758302548113	0.1534177928201368	0.005671026241317656	-0.014918683015036904	0.999872628067429	0.9949623660161679	-0.09999489847909826	-0.0071351586992843274	0.10008860910652828	0.9948760994089927	0.014276454457213428
196														9.86496419435532	-0.08234137121812717	0.11430885484989713	0.005670569125735048	-0.014944374840165253	0.9998722469927983	0.9949621550740217	-0.09999684427386907	-0.0071373038135253974	0.10009073191983986	0.9948755182413047	0.014302048379394472
197														9.86175552184604	-0.057744954843343306	0.1689636304566804	0.005677155425676872	-0.014935772085069243	0.9998723381604754	0.9949628034203025	-0.09998999358250019	-0.0071428981082319876	0.10008391337415679	0.9948763359813093	0.014292878930426911
198														9.855998719084356	-0.0816357458730985	0.1687051512806919	0.005677456942028147	-0.0149459483816205	0.9998721843864071	0.994961484427864	-0.10000300993922112	-0.007144403977752067	0.10009700788621356	0.9948748748611907	0.014302880204956181
199														9.850908040227898	-0.07985937138193876	0.1349266416531645	0.005682611048813457	-0.01495321624624485	0.9998720464417241	0.9949623224182116	-0.09999426255199875	-0.007150134603015279	0.10008838543920667	0.9948756448826032	0.01430965826278957
200														9.836861235143518	-0.07703633274748632	0.1549104197472534	0.005685637066135174	-0.014947764759293103	0.9998721107520967	0.9949623916714574	-0.0999933980334157	-0.007152587583830361	0.10008752514956926	0.9948758136965798	0.014303937604821015
201														9.875776960116816	-0.061342035621892825	0.1502427570330982	0.005676345112876124	-0.01495258503042679	0.9998720914732382	0.9949637778815086	-0.0999802439901136	-0.007143634609470095	0.10007427146832398	0.994877063265902	0.01430975812161045
202														9.86493904148298	-0.08316502438707861	0.1158725112669654	0.005668754124909803	-0.014942393891302141	0.9998722868904156	0.9949647326762122	-0.0999713631976128	-0.0071349331437456365	0.10006520852537137	0.9948781088179643	0.014300441866102742
203														9.856644082610565	-0.056737203099502934	0.13634099321772786	0.0057076938895533336	-0.014953402313233943	0.9998719007901573	0.9949658887543923	-0.09995701904185905	-0.0071745773010051805	0.10005149896751081	0.9948793847012432	0.014307601155685579
204														9.842596768467017	-0.05400635493266596	0.15624195955018133	0.0057082416757257	-0.014956211991019486	0.9998718556394367	0.9949653225652514	-0.09996258963382512	-0.007175483699673968	0.10005709804704666	0.9948787827653067	0.014310301667837755
205														9.86425358839776	-0.10945456672242611	0.14994013006481932	0.005709936030918961	-0.014948759473103146	0.9998719574129169	0.9949645552331486	-0.09997015159194253	-0.0071765326158530485	0.10006463141502692	0.994878134939601	0.014302662649852249
206														9.850880899733424	-0.08096306580585526	0.1362439357261605	0.005715903722272486	-0.01494431912026739	0.9998719896920152	0.9949628235917769	-0.09998697261044606	-0.007182268337832809	0.10008150735733573	0.994876511248622	0.014297526039635022
207														9.884042673433099	-0.08913906066323755	0.13109385012676777	0.005730611867890922	-0.014955192132815653	0.9998717429330077	0.9949616969029029	-0.099997042519119	-0.007198137503959479	0.1000918667211077	0.9948753357660952	0.01430679910336119
208														9.875745845045618	-0.0626665882540499	0.1517340230358924	0.005736274151992349	-0.014977687516518179	0.9998713737453993	0.9949649714509468	-0.09996392187810968	-0.00720554705521792	0.10005898632542182	0.9948783258265332	0.014328853971072586
209														9.85086405142619	-0.08152165693106014	0.13712616010327935	0.005720060671424776	-0.014953066745967858	0.999871835137287	0.9949631481637229	-0.09998338629908743	-0.0071872289723608485	0.10007804305665113	0.9948767402342151	0.014305839328505099
210														9.864908749296081	-0.08451790695957567	0.11746166944542263	0.005712830061687324	-0.014943182070009109	0.9998720242522585	0.9949643135083456	-0.09997238836510228	-0.007178886365180437	0.10006686972996248	0.9948779939641845	0.014296807624325947
211														9.85593586315922	-0.08346814937804467	0.17145814377427035	0.005695184390345054	-0.014934430747428118	0.999872255667198	0.9949626793864692	-0.09998995424800264	-0.007160703707090543	0.10008412213162665	0.9948763600708045	0.014289740004948204
212														9.869976827276036	-0.08663312066056078	0.15195344071758776	0.005720299086826308	-0.014944130621318996	0.9998719673729883	0.9949644347201105	-0.09997064299668573	-0.007186388586803316	0.10006523782237559	0.9948781551018206	0.01429701649818077
213														9.875727965262385	-0.06315458292277482	0.15269233148399508	0.005717099674235837	-0.014937826381377528	0.9998720798753786	0.9949622518231926	-0.09999261744989046	-0.007182889560789163	0.10008712313898066	0.9948760414235135	0.014290905613110527
214														9.864893380074506	-0.08507746466816588	0.11834519967722597	0.005721644650588276	-0.014947713364153459	0.9998719061198169	0.9949610798290601	-0.10000387080830814	-0.0071885637471191255	0.10009851351485483	0.9948747618110225	0.014300206417324934
215														9.850842415504241	-0.0821501982162071	0.1383003075267341	0.005704227424448094	-0.014933056356715657	0.9998722246453978	0.9949642411241622	-0.09997379433206363	-0.007169332679546336	0.10006808019398561	0.9948780047195218	0.014287583826268935
216														9.870644712482271	-0.06149693126359413	0.11926794095749528	0.0057109019429186225	-0.014942024437728796	0.9998720525670777	0.9949659316212045	-0.09995644551001076	-0.007176622754010986	0.10005088961197445	0.9948796132732377	0.014295963806121303
217														9.842543534691606	-0.05567034993755894	0.15898731665931967	0.005712593118259723	-0.014934569900464878	0.999872154278613	0.9949651642156079	-0.09996400890180884	-0.007177668262657977	0.10005842431936907	0.9948789652747555	0.014288323084179377
218														9.870636879411197	-0.061813423290591606	0.11975161535911599	0.005712416048717195	-0.014944968454244534	0.9998719999183836	0.994963000464432	-0.09998545868416156	-0.0071788410298885275	0.10007994809001924	0.9948766536458775	0.014298532116255647
219														9.86994224561736	-0.08781250005495178	0.15351466630745575	0.005754216898369968	-0.014924236681981617	0.9998720698906169	0.9949637747027157	-0.09997491921263613	-0.0072182101486656935	0.10006985568696464	0.9948780240249993	0.01427379749411467
220														9.869937542173128	-0.088053690514141	0.1536787794095781	0.005736182593001959	-0.014930862316262283	0.9998720745974223	0.9949633406396676	-0.09998047947549049	-0.007201007360380429	0.10007520668183983	0.9948773658468387	0.014282154362811994
221														9.85081669544091	-0.08309111872195078	0.13956441057431768	0.005723425571348917	-0.014920953674912085	0.9998722956163755	0.9949631222772882	-0.09998363402263402	-0.00718736640628892	0.10007810803547151	0.994877197481709	0.014273549768063665
222														9.861639434423786	-0.06131638868815338	0.1743936067926957	0.005709681945545442	-0.014930049271715817	0.9998722384189015	0.9949622214429085	-0.09999350465061335	-0.007174742439995663	0.10008784858050068	0.9948760689937373	0.014283903881463
223														9.85080853262825	-0.08326224195796672	0.14003780894225754	0.0057307115237836825	-0.01492389107631048	0.9998722100451509	0.9949623198616346	-0.09999106850931508	-0.007195017298134154	0.10008566830963445	0.9948764062402469	0.014275689318066442
224														9.85656485173721	-0.059783487609881135	0.1406974728495976	0.005731896283145466	-0.014917844611563813	0.9998722934840955	0.9949601750540207	-0.10001234491605071	-0.007195896112787037	0.10010691994798548	0.9948743582867833	0.014269400898057283
225														9.874982967665662	-0.0904399361692454	0.1887496634600627	0.005715675520979013	-0.014893218821856069	0.9998727534473897	0.9949583507965818	-0.10003180842823955	-0.007177568022896541	0.10012597681663943	0.9948727704263001	0.014246383078293956
226														9.842507840548901	-0.05703032612074661	0.16070581579658774	0.005745809827916226	-0.014908773523369723	0.9998723489233264	0.9949567316483239	-0.10004562956924173	-0.007209310076500441	0.10014034060810106	0.9948711476749754	0.014258741416077969
227														9.869909876821886	-0.08883951020144237	0.15499762397891942	0.005720038384510462	-0.014880544687629227	0.9998729172003203	0.9949568729370142	-0.1000462714478656	-0.007180847079393815	0.10014041220345249	0.9948715057529686	0.014233231697094173
228														9.850791145237842	-0.08391998662497707	0.1408658716513283	0.005724829777516427	-0.014904366117634738	0.9998725349736584	0.9949586113020037	-0.10002848645572618	-0.007187746055947408	0.10012286512084367	0.9948729374990596	0.014256581356876907
229														9.842494240997006	-0.05739222082103315	0.16140829220563851	0.005731413324104817	-0.014895755520564102	0.9998726255722679	0.9949592590566513	-0.10002164126550725	-0.007193336916528514	0.10011605125427575	0.99487375467746	0.014247404508381523
230														9.864833494924033	-0.08730497550111632	0.12166807386559998	0.005735798688561222	-0.014904578800356894	0.9998724689400084	0.9949584265187182	-0.10002953691277378	-0.007198697410790045	0.10012407359271991	0.994872828695105	0.01425568698448565
231														9.870592061987416	-0.06373288188773862	0.12241001797931898	0.005732589036022084	-0.014898273895662728	0.999872581311176	0.9949562424207714	-0.10005151150205704	-0.007195186869932535	0.10014595893436534	0.9948707134502874	0.01424957641590996
232														9.856535474493006	-0.060805120073827684	0.14230845355584082	0.005724549009300806	-0.014889839070789612	0.9998727530196461	0.9949561004195278	-0.10005355722384177	-0.007186370768457462	0.1001478296150567	0.9948706339918278	0.014241974725864415
233														9.836716216415791	-0.08176150804553341	0.1615547602633216	0.0057579906429790495	-0.01485554196726585	0.999873071152841	0.9949538517099936	-0.1000737482302334	-0.0072165007171144935	0.10016825101399962	0.9948691159082237	0.014204354993653079
234														9.864820112650865	-0.08800651079503787	0.12224633810479711	0.0057469019745262084	-0.014878316059816155	0.9998727963240726	0.9949540850950943	-0.1000720603595959	-0.007207724187994757	0.1001665696242015	0.9948689453624585	0.014228137021774556
235														9.836708809986646	-0.08204763420065674	0.16186032858652666	0.005741900968438907	-0.014835511126117806	0.9998734610853995	0.9949549027601927	-0.10006460507199719	-0.007198352953357523	0.10015873425081068	0.9948703344765149	0.014186103477114909
236														9.870581271150176	-0.0643351307748123	0.12296386902648732	0.00572330595995818	-0.014844218291228728	0.9998734384671948	0.9949531617135752	-0.10008316256450364	-0.007180986509358334	0.10017709201733277	0.9948683378992467	0.014196495361227579
237														9.864812413510153	-0.08810633716071876	0.1227944649997216	0.005723555655584134	-0.014852635771378853	0.9998733120357303	0.9949525835847893	-0.1000888255823047	-0.007182159251108433	0.10018281952815433	0.9948676425556308	0.014204804370054891
238														9.842461202678615	-0.05855121501792693	0.1629988246859837	0.005730373249052678	-0.01484494651459728	0.9998733871772993	0.994952818524975	-0.10008606120804914	-0.007188133350688852	0.10018009648445741	0.9948680354272308	0.01419649088780145
239														9.87562656593252	-0.06661804439750268	0.15769672243641567	0.005723938751632018	-0.014818011427046363	0.9998738235710127	0.9949538263236952	-0.10007670509467523	-0.007178898330008232	0.1001704547708891	0.9948693781772271	0.014170404237420997
240														9.842457045745872	-0.058836186311729134	0.1631471678668355	0.005739931812242138	-0.014814534477049224	0.9998737834101955	0.9949515918375385	-0.10009777852388549	-0.0071947643832723784	0.10019173160864348	0.9948673098975616	0.014165190236988257
241														9.864800816791531	-0.08863584224431412	0.12334377361358209	0.005712720747112154	-0.014802171674772269	0.9998741223450962	0.9949519234086593	-0.10009651532814359	-0.007166430392621215	0.10018999414649693	0.9948676210093851	0.014155625738611122
242														9.856505713249248	-0.062060466445937636	0.14381990672868633	0.0057420856638529805	-0.014817053489107945	0.9998737337174781	0.9949497100558504	-0.10011629014344159	-0.007197423684485171	0.10021029344338211	0.9948654096780205	0.014167346758519217
243														9.856500050850709	-0.062207918968200805	0.14414384652408652	0.005713440525145219	-0.014820562487948441	0.9998738458050125	0.994950232156969	-0.10011312464474548	-0.007169226224532588	0.10020674691934911	0.994865675959024	0.014173731704636927
244														9.855781139085176	-0.08796527709548892	0.1779798391152487	0.0057342925399676	-0.014814237515016038	0.9998738201672825	0.9949499862712239	-0.10011412478380807	-0.00718935585879088	0.10020799722556223	0.9948656695180619	0.014165341733290704
245														9.83738288936933	-0.057476878004980636	0.13023494433831298	0.0057105430650709055	-0.014816588719189117	0.9998739212503888	0.9949519250184617	-0.10009655099485118	-0.0071657086873844755	0.10019010230536385	0.9948674028118831	0.014170187803242862
246														9.861537138825824	-0.0643907118361727	0.179009112352765	0.005710385583336808	-0.01482766463999885	0.9998737579603807	0.9949499032895756	-0.1001165561418963	-0.007166947073287133	0.10021018631134454	0.9948652248157088	0.014181079360731152
247														9.850717371863565	-0.08624068442569194	0.14457429869546673	0.005710385583336863	-0.014827664639998683	0.9998737579603802	0.994949903289575	-0.10011655614189607	-0.007166947073287189	0.10021018631134432	0.9948652248157084	0.01418107936073093
248														9.869824976320887	-0.09126029019857623	0.1589471447487996	0.005712688917581976	-0.014807548611482924	0.999874042912131	0.994946988624325	-0.10014546842135011	-0.007167634341713247	0.10023898948372867	0.9948626144643227	0.014160625992306497
249														9.8647727425775	-0.0893205086683291	0.12508298837668635	0.005682604118932955	-0.014826931032867474	0.9998739271161015	0.994947700688442	-0.10014039870217156	-0.0071395687932435115	0.10023363160741422	0.9948628361055193	0.014182962697280976
250														9.836647604045732	-0.08340667163529535	0.16485764328782715	0.005703533778311509	-0.014821157527735052	0.9998738935445703	0.9949473757889051	-0.10014217930019559	-0.007159841882314555	0.10023566786933641	0.9948627429020279	0.014175107486101512
251														9.850704209482611	-0.08669731188933237	0.14519670047235778	0.00571643556511614	-0.014795519090750275	0.9998741995767597	0.9949492509881832	-0.10012283171688555	-0.0071698345201387514	0.1002163176457998	0.9948650718483527	0.014148444921216807
252														9.883869735633997	-0.09472469001925579	0.13991858047524683	0.005694085838921725	-0.014788382839922787	0.9998744326761428	0.9949460661206785	-0.10015608252368913	-0.007147352271593299	0.10024920397412268	0.9948618310431292	0.01414334599968764
253														9.836638786126777	-0.08379290122860092	0.16518757565400746	0.005695755563295768	-0.014780921206589193	0.9998745334975031	0.9949452970312509	-0.1001636494811361	-0.007148373102857597	0.10025674183794686	0.9948611801105249	0.014135700376513238
254														9.869802193152102	-0.0918936238469669	0.15999353390531784	0.00569640254302034	-0.014776740894482276	0.9998745915996696	0.994942278801187	-0.10019357926738556	-0.007149022834764096	0.1002866534089642	0.9948582283934371	0.014131261299077769
255														9.870522260380174	-0.066403030448528	0.12654917283719685	0.0057029686195435025	-0.014768129466495084	0.9998746813981167	0.9949429276977576	-0.10018673757474175	-0.007154595610145531	0.10027984230711268	0.994859045275355	0.014122084147530911
256														9.83662785305428	-0.08427427892929706	0.16559323137431248	0.005707074909616916	-0.01474651998708465	0.9998749769067362	0.9949420138593312	-0.10019566632734572	-0.007156640745299148	0.1002886751010007	0.9948584666159752	0.014100108120017774
257														9.864747924863524	-0.09033972485628017	0.1263023066814696	0.005687964198131112	-0.014753633303574598	0.9998749808689209	0.9949405672337682	-0.10021131989866136	-0.007138559848895554	0.10030411126084954	0.9948567845014238	0.014108989887986478
258														9.856452365957715	-0.06361740332388341	0.14676546637836946	0.00567977066946479	-0.014744763693350205	0.9998751582816581	0.9949403878941383	-0.10021374175325007	-0.007129551239432819	0.10030635444579317	0.9948566720424813	0.014100969837381738
259														9.851404446642704	-0.061868018510091737	0.11297286620977404	0.005697910934396311	-0.014770355782516675	0.9998746773476375	0.9949408681470964	-0.1002075108506238	-0.007150081106166106	0.10030056182138924	0.9948569200438727	0.014124657133314233
260														9.855711970317484	-0.08954348220431976	0.18099748947371055	0.005665518383437429	-0.014761292398870807	0.9998749952609882	0.994938536298153	-0.10023299366142205	-0.0071173007915657505	0.1003255246202841	0.9948544874645657	0.014118706784985724
261														9.869772794861607	-0.0925302521323893	0.16143367429250977	0.00566718306605446	-0.014753836929230657	0.9998750958654591	0.9949377667675616	-0.10024055980780364	-0.007118316443857076	0.10033306182745838	0.9948538357292911	0.014111067962546908
262														9.842372062183935	-0.06095186853154841	0.16744086731539753	0.00566012787497161	-0.014745721417678381	0.9998752555455661	0.994938392017828	-0.1002349154604471	-0.007110401649418341	0.10032725971249284	0.9948545247534986	0.014103741917404655
263														9.85643303157522	-0.06407829500423017	0.14785935139745618	0.0056666928827779905	-0.014737115282978164	0.99987534524305	0.9949390414103257	-0.10022807389021646	-0.00711597370424133	0.10032044890885605	0.9948553415634825	0.014094569639831467
264														9.856428361285085	-0.06424746774025865	0.14809709304227542	0.005668344344751219	-0.014746196135040246	0.9998752019986975	0.9949391440584613	-0.10022687473188488	-0.007118511199363853	0.10031933758057676	0.9948553278145651	0.01410344732213653
265														9.86975536609125	-0.09315540159263294	0.16213818440857042	0.005690789813315278	-0.014724170190645092	0.9998753990990564	0.9949390521550514	-0.10022635621911463	-0.0071386284289657875	0.10031897830474723	0.9948557062867136	0.014079284806252701
266														9.842356221256562	-0.06157510060305185	0.16814253840373045	0.005663699899854935	-0.01473019045720153	0.999875464241692	0.9949398952855402	-0.10021986630357224	-0.007112184424817869	0.1003121491776689	0.9948562709694244	0.014088038904277234
267														9.8564165504141	-0.06463193023464796	0.14871458181174876	0.005673733539828751	-0.014736302973851867	0.9998753172883017	0.9949421536216145	-0.10019671450628018	-0.007122453856002242	0.10028918034615159	0.9948585124412468	0.01409327955754991
268														9.870477023902712	-0.06778937375111374	0.12931231755247366	0.005664258852587034	-0.014751226551327878	0.9998751509497983	0.9949372857778469	-0.10024555390105652	-0.007115215532995212	0.10033799649515385	0.9948533712252783	0.014108728540755622
269														9.855667719465615	-0.0903947514247307	0.18297312632726287	0.005635602435375642	-0.014754738472017193	0.9998752610590046	0.994937807169916	-0.1002423771731705	-0.0070870080140119085	0.10033443999499492	0.9948536392411167	0.014115120955789484
270														9.8373017561985	-0.059788792631151735	0.13522684052415643	0.0056366812372715125	-0.014749008936570274	0.9998753395098905	0.9949357645110728	-0.10026259364354095	-0.007087793213538085	0.10035463278492468	0.9948516869620616	0.014109168201696443
271														9.855658849105675	-0.0904207166961953	0.1834374960923185	0.005612924674092912	-0.014751366624475126	0.9998754383718573	0.9949377045348848	-0.10024500987028631	-0.0070641412047697805	0.10033672892544221	0.9948534239669766	0.01411402315875221
272														9.845591937404851	-0.08649244157283695	0.11545532492458702	0.005602624484647822	-0.014742980261880367	0.9998756198307281	0.994938969872226	-0.10023324331448955	-0.007052883399937315	0.10032475680747394	0.9948547338519615	0.014106796371432362
273														9.862165886236783	-0.04116692165925405	0.15063375660002265	0.0056250713910016015	-0.014720960163315921	0.9998758182413037	0.9949388790701074	-0.10023272693960775	-0.007073002542686113	0.10032440125196329	0.9948551119545601	0.01408263935897519
274														9.836551528363994	-0.08568408364121434	0.16936073777582886	0.005600301880775371	-0.014695877148598768	0.9998763262592423	0.9949387584209712	-0.10023583458189939	-0.007045882301565332	0.10032698346198593	0.994855169690797	0.01406014683120399
275														9.864686756706046	-0.09189546921219567	0.12990607451118003	0.005642094738172954	-0.014675163385627799	0.9998763955342537	0.994939536883031	-0.10022533258829527	-0.00708524202451527	0.10031692137394288	0.9948565335198696	0.014035419440951324
276														9.856386269041808	-0.0654317666977766	0.15036267675302079	0.005626843410131199	-0.014697614023619965	0.9998761517184268	0.9949397324565932	-0.1002243049048023	-0.007072304119039308	0.10031583829306723	0.9948563056282862	0.014059293694822117
277														9.865420475680004	-0.06665175885112241	0.096859555060317	0.005642951981695454	-0.014692622120035026	0.99987613430273	0.9949384132066732	-0.10023629162642109	-0.007088001606311456	0.10032801711745476	0.9948551717190908	0.014052625557481824
278														9.83727686694711	-0.060868920978991777	0.13654913042752267	0.005649177445288922	-0.014702949928297626	0.9998759473342674	0.9949390436383998	-0.10022952894802689	-0.007095137120892603	0.10032141465359856	0.994855700486389	0.014062324546038674
279														9.856369001328837	-0.06601297191745871	0.15123797430671657	0.005654310779995841	-0.01471022353987761	0.9998758113350927	0.9949398838870068	-0.10022078308428706	-0.007100851278661613	0.10031279190867237	0.9948564740510959	0.014069108646544537
280														9.832242005078664	-0.0591953814104156	0.10291519095513252	0.005638069950394786	-0.014687320539030824	0.9998762397330072	0.9949373748396937	-0.10024696815064232	-0.007082762434472867	0.10033858836127568	0.99485417423459	0.01404776472178404
281														9.889530433188149	-0.07419848415108156	0.14622561447979973	0.005657645376486997	-0.01469705208698563	0.9998759861646578	0.9949376651553534	-0.10024264371876518	-0.0071031567269395635	0.10033460770845054	0.9948544662613854	0.01405551335832983
282														9.831484876120918	-0.08518736874867779	0.1369178161631357	0.005650341511830914	-0.014689009037208711	0.9998761456572032	0.9949383009405552	-0.1002369107909088	-0.007095000818647945	0.10032871454534292	0.9948551626888209	0.01404828491592136
283														9.870426324136572	-0.06939022073530421	0.1322986386985529	0.005621683874764805	-0.014692523597964524	0.9998762555540244	0.9949388224384497	-0.10023372710721418	-0.0070667924116262215	0.10032515275445486	0.9948554315580335	0.014054679799821779
284														9.85057594001437	-0.09011577563849793	0.15167308202930302	0.005630242338780511	-0.014669692698733028	0.9998765426228038	0.9949389598833993	-0.10023192548916665	-0.007072992215033935	0.10032330974078957	0.9948559499891727	0.01403111876489993
285														9.875447435523755	-0.07146958240002556	0.1665422975010495	0.005623802025620295	-0.014642762271252274	0.9998769736141766	0.9949399681456018	-0.10022256845087138	-0.007063749679861786	0.10031367123780277	0.9948572894069674	0.014005037544256527
286														9.864644822612076	-0.09327128359914957	0.13209144590997918	0.005609646306959981	-0.01464978318432053	0.9998769502898663	0.9949396234096021	-0.10022692856942728	-0.007050429710212525	0.10031788294153016	0.994856746794327	0.014013412144732729
287														9.862121377407881	-0.04292205325268422	0.1530386943265146	0.0056162120211100675	-0.014641183864190555	0.9998770393891383	0.9949402728768123	-0.10022008888972186	-0.007056003879684469	0.10031107401652029	0.9948575624268987	0.014004246201098192
288														9.831469453978057	-0.08554167678999686	0.13780146145500338	0.005612915939197549	-0.014630617997141993	0.9998772125574623	0.9949420191061684	-0.10020307394223216	-0.0070514246410045	0.10029393696330657	0.994859431773931	0.013994185179960539
289														9.85055934067407	-0.09066309111840858	0.15242315701240852	0.005622678316928309	-0.014642660598402024	0.999876981422787	0.9949394726043495	-0.10022756228143723	-0.007062691618635097	0.10031864902561066	0.9948567878090397	0.01400501367210022
290														9.856327734577496	-0.06714643693858248	0.15341283234348405	0.005619714023678668	-0.014685174224674968	0.9998763745945216	0.9949383300305965	-0.10023879981572276	-0.007064166435774566	0.10033014626831221	0.9948550289713046	0.014047529330265318
291														9.851301750500005	-0.0654523395062944	0.11970750424975604	0.005640719023178031	-0.01467903536032017	0.9998763464597975	0.9949384294907395	-0.10023638336654403	-0.00708441755525846	0.10032798119868452	0.994855363040521	0.014039331113365694
292														9.856313739779988	-0.0675591142376232	0.15412905086323622	0.005624829329846093	-0.014701157862190506	0.9998761109520126	0.9949382669934104	-0.10023895337582336	-0.0070708626255286955	0.10033048473499806	0.9948547774341896	0.014062917521262985
293														9.8563082268675	-0.06763415950013899	0.15444830272114743	0.005626484578101498	-0.014693711412426202	0.9998762110962641	0.9949374974609675	-0.10024652018954183	-0.007071869342357373	0.10033802278996717	0.994854125002664	0.014055288961238144
294														9.837212816993693	-0.06282606801504823	0.14022738313934224	0.0056287517729362024	-0.01468928075399839	0.9998762634368356	0.9949361304999145	-0.10025994506794705	-0.007073870286390727	0.10035144931357542	0.9948528375824747	0.014050557809654363
295														9.870378351221257	-0.07089384914542309	0.13505188280795888	0.005620870555043234	-0.014678222996325596	0.9998764701621268	0.9949373300981663	-0.1002486825599983	-0.00706475916912036	0.1003399969669943	0.9948541357478771	0.014040427130566357
296														9.850519323639402	-0.09171425954976845	0.15436799072019747	0.005629798415591192	-0.014660712515379981	0.9998766768348697	0.9949334398632135	-0.10028674433174567	-0.0070724220245810265	0.10037806339910388	0.9948505578326232	0.014021838979428936
297														9.837204506222637	-0.06321297574344831	0.14063593624351403	0.005630294587119278	-0.014663218175684667	0.9998766372986196	0.9949376692647118	-0.10024476521738152	-0.0070725755291579095	0.10033610547039307	0.9948547517498447	0.014024580556645183
298														9.875379645460672	-0.07317074814329422	0.16979166435728482	0.005609768887684163	-0.014689873601800685	0.999876361410045	0.9949351756938409	-0.10027073559672395	-0.007055193119874625	0.10036197815952824	0.9948517413144815	0.014052976320032218
299														9.875372185569104	-0.07326887498947303	0.17018275477332806	0.005619801129109148	-0.014695999040915564	0.9998762150623746	0.9949374357076685	-0.10024758477153092	-0.007065463532202054	0.10033900967579573	0.9948539839391835	0.014058228110841287
300														9.865347688152543	-0.06951565359124857	0.10211732693086381	0.005621187504925518	-0.014697812561092205	0.9998761806128567	0.9949379980482078	-0.10024189908553766	-0.0070669447110944805	0.10033335582377007	0.9948545300563516	0.014059933694611282
301														9.856278079946685	-0.06857728728842902	0.15594899843211438	0.005638720337709513	-0.014676957301391735	0.9998763882387296	0.9949364871674339	-0.10025579673909601	-0.007082494132450934	0.10034735340745282	0.994853437519609	0.01403732593970708
302														9.870354711400319	-0.07176453529520925	0.13631385756930392	0.005630644701225207	-0.014667508624295278	0.9998765723983163	0.9949370317880935	-0.10025103083279732	-0.007073442843510747	0.10034240687240592	0.9948540571398995	0.014028769558831478
303														9.856272519239923	-0.06884118722417548	0.1561839882266109	0.005632298063102559	-0.014660068352484679	0.9998766722023413	0.994936262266203	-0.10025859670924031	-0.007074447939638073	0.100349943927663	0.9948534043675952	0.014021147311133297
304														9.875358166195532	-0.07384831938004735	0.17074486052419374	0.005615004185474337	-0.014652979120092724	0.9998768733853705	0.9949342809703925	-0.10027949843862027	-0.007056822431371124	0.1003705548352018	0.9948514021680854	0.014015681441473471
305														9.839693740022263	-0.11429301752307738	0.12156972702979836	0.00558490161913372	-0.014672368234885769	0.9998767576478039	0.9949349936917278	-0.10027439900907453	-0.0070287432028400265	0.10036516926477612	0.9948516304021167	0.014038029943835295
306														9.851252220473885	-0.06686775584629845	0.12295716961658427	0.005586026547060918	-0.014682511927163022	0.9998766024619858	0.9949344105471456	-0.10028002944554351	-0.0070309603614897576	0.100370887296165	0.9948509132216292	0.01404796944298059
307														9.870334775683057	-0.07206525050682268	0.13759277049188215	0.005607029362099392	-0.014676377561684717	0.99987657496483	0.9949345103723977	-0.10027761721792769	-0.00705120948007848	0.10036872666209201	0.9948512468840562	0.014039774979272945
308														9.831377564911328	-0.08799538862552381	0.14272438112799407	0.005596041644202965	-0.014701330460743844	0.9998762699457369	0.9949345766926702	-0.10027755157120288	-0.007042780151442496	0.10036868246267439	0.9948508850745263	0.014065704644208143
309														9.870324506085582	-0.07230574517936429	0.138201913643172	0.00558816002749235	-0.014690280350901974	0.9998764764363244	0.994935776408943	-0.10026628706381654	-0.0070336690262257084	0.10035722838461264	0.9948521836643113	0.014055581429114505
310														9.851234635364683	-0.06746929355480533	0.12403276833627472	0.005594553706431582	-0.014698485307563014	0.9998763201008862	0.9949369846556003	-0.10025380498509348	-0.007040678265149092	0.10034489291064275	0.9948533204023973	0.01406319135464823
311														9.851230478875271	-0.06763852282778277	0.1242704694285778	0.005596205717206315	-0.014691049902379238	0.9998764201311766	0.994936215144587	-0.10026137091535398	-0.007041682749076572	0.10035243034095165	0.9948526677628905	0.014055574329241982
312														9.85622480818741	-0.06974346320212317	0.1587732094247799	0.00559740792919583	-0.01473218155956224	0.9998758082136854	0.9949361247358193	-0.10026189343877201	-0.007047014952660302	0.10035325963886205	0.9948520068585924	0.014096372912445032
313														9.870301002341002	-0.07308137377504421	0.13946683482785036	0.0056279390223304415	-0.014729670778657389	0.9998756738220576	0.9949342546221528	-0.10027831137493304	-0.00707737573210826	0.10037009157026011	0.9948503892880298	0.014090693795312803
314														9.83712580608517	-0.06529859419763316	0.14511659183631295	0.005607732088419803	-0.014754861335128433	0.9998754159433094	0.9949325186730289	-0.1002967539351631	-0.0070600592782772975	0.10038842875435366	0.9948481568646801	0.014117654025424087
315														9.870286248985249	-0.07337866873119776	0.14035210403864654	0.005614891869951066	-0.014792746513954125	0.9998748159844123	0.9949351620823228	-0.10026978513681958	-0.0070706039938427945	0.10036182661505555	0.9948503127803647	0.014154819649137174
316														9.870277425520584	-0.07369021408459177	0.14080858918557407	0.005638971322262987	-0.014802016303964771	0.9998745432881888	0.9949364982095168	-0.10025478298581525	-0.007095281463864567	0.10034722982230782	0.9948516868366886	0.014161732421730133
317														9.8511886873153	-0.06914172813217259	0.12673183182424744	0.005668062214866154	-0.014815383090415413	0.999874180832075	0.9949348181667912	-0.10026929191851383	-0.007125776980413834	0.10036224723541792	0.9948500256430839	0.014172007896299132
318														9.87025934710126	-0.07439484035157018	0.1417025999832955	0.00566457024314404	-0.014872828991307319	0.9998733477804856	0.9949346515670026	-0.10027078059734718	-0.007128090182231095	0.100364095946747	0.9948490184526466	0.014229502050253306
319														9.85615949633746	-0.07156911173616859	0.16198264386504715	0.005674308375070269	-0.014884890365238046	0.9998731130814948	0.9949321028063101	-0.10029526712785053	-0.007139341507974517	0.10038880928609023	0.9948463697629741	0.014240348996884256
320														9.86445248415008	-0.09862278420884792	0.1421826813384985	0.005698440859595644	-0.014910733893667927	0.9998725907767055	0.9949341029774393	-0.10027354765960617	-0.007165638299148347	0.10036761681063877	0.9948481721622191	0.014263794770111748
321														9.850351340126016	-0.09586264009652803	0.16236001747899725	0.005697214813399909	-0.014935053651934871	0.9998722347959184	0.9949337162447147	-0.10027729368929048	-0.007166913550033072	0.10037151997878602	0.9948474297814544	0.014288087149179451
322														9.856130467511045	-0.07229960501859799	0.16341825801207205	0.0056955763588033	-0.014977331848561648	0.9998716117285458	0.9949334451639881	-0.10027979383322555	-0.007169563646687915	0.1003743000177793	0.99484654217596	0.014330297152431615
323														9.845347727324205	-0.09432589107903237	0.12931452435097388	0.005714840558002143	-0.014993016158667605	0.9998712667458063	0.9949289242370125	-0.10032310907928821	-0.007190931876133733	0.10041800791680028	0.9948419388280391	0.014343654865140054
324														9.870204588170187	-0.07582411452651355	0.14472688273173998	0.0057120928524380665	-0.015036535219824121	0.9998706289334778	0.9949276105985672	-0.10033600520136371	-0.007192755303644938	0.10043117874381108	0.9948399814386307	0.014387135479787927
325														9.86440495391374	-0.09970757431827862	0.14470130046426036	0.005717215766387285	-0.01504382774931784	0.9998704899588396	0.9949284515864945	-0.10032725658369324	-0.007198458869148716	0.10042255557185154	0.994840753504318	0.014393939675424017
326														9.856095512832345	-0.07315994188566798	0.1651344495973247	0.005724042383347894	-0.015035711413949548	0.9998705729848588	0.9949290453227405	-0.10032094588206741	-0.007204345251810351	0.10041628409761849	0.9948415126036928	0.014385224656662532
327														9.865208063261255	-0.07451795497804244	0.11163491447410005	0.005742167858948155	-0.015061343156164197	0.9998700832861297	0.9949295250964987	-0.10031471184766458	-0.007224865270431036	0.10041049546504344	0.9948417535112066	0.0144089510795265
328														9.889248678981463	-0.08160990710962635	0.16062354228035403	0.005732102142874396	-0.015086161466064452	0.9998697668882904	0.9949301292818618	-0.10030926659189851	-0.007217262845013006	0.10040508379659985	0.994841926523011	0.014434693615816896
329														9.851095385364351	-0.07183294846208166	0.13236253614439614	0.005738961571984225	-0.015129991175794832	0.9998690652715964	0.9949279624280817	-0.10032992655757944	-0.007228790746504732	0.10042616142610117	0.994839177557846	0.01447746169905445
330														9.85026335413791	-0.09782223980379925	0.16647706465221582	0.005769867732686507	-0.015146034167892009	0.9998686445105341	0.9949262587472552	-0.10034446769804894	-0.007261367473540559	0.10044126782123908	0.9948374668514354	0.014490212803194291
331														9.851903234743066	-0.046724111762311525	0.09971971136389271	0.005748158331736808	-0.015179002425197874	0.9998682696041366	0.9949300088607351	-0.10030863808732843	-0.007242554345274543	0.1004053591406961	0.9948405776859137	0.0145254550836324
332														9.883416207786814	-0.10622505221222142	0.1619606268647658	0.005784777121406626	-0.015161172770867204	0.9998683289282987	0.9949286320718151	-0.10031977400515205	-0.0072773640325893285	0.10041689816641053	0.9948397266815232	0.014503957352033747
333														9.856037379701934	-0.07480907268670511	0.16784306015825537	0.005781504350229949	-0.015154910036387137	0.9998684428009703	0.9949264427595187	-0.10034174282100478	-0.007273798562884848	0.10043877590521683	0.9948376065215028	0.014497894510213827
334														9.856034099311808	-0.0748604720079805	0.16801268302863756	0.005769301153160766	-0.015144679958003615	0.9998686682925786	0.9949266036629504	-0.10034110195159957	-0.007260618626954651	0.100437883728758	0.9948378269487492	0.014488946958980176
335														9.851063762914086	-0.07302205121166018	0.13405441868133341	0.005775860393789578	-0.015136098563127476	0.9998687603665789	0.9949272525447737	-0.10033426491488481	-0.007266183846990293	0.10043107875762358	0.9948386471203647	0.014479800250797481
336														9.841923253864609	-0.07199441935370325	0.18815649680719357	0.005757816559645801	-0.015157383766860932	0.9998685419923012	0.9949306638301026	-0.10030161138474702	-0.007249891324363045	0.10039831531981674	0.9948416157715598	0.014503027614100272
337														9.87012338331257	-0.07824907404327683	0.1489135350643137	0.005791211164842103	-0.015123140748161124	0.999868867645731	0.9949284030486318	-0.1003218557788301	-0.007279976661492382	0.10041879644939228	0.9948400956269323	0.014465457222383571
338														9.875916892041205	-0.054829128347182364	0.14951169789696636	0.005792567273497917	-0.015134250643837666	0.9998686916899795	0.9949275469670635	-0.10033015780752536	-0.007282562764467038	0.1004271997542665	0.9948390894470152	0.014476313679597397
339														9.831979646443795	-0.06866021446398261	0.12058400653133006	0.00577198426721337	-0.015157283164294766	0.9998684618312035	0.994926295254349	-0.10034387211613124	-0.007264594978231398	0.10044078459010208	0.9948373555993056	0.014501196333607358
340														9.87094086124322	-0.05300245874093894	0.11628990863719248	0.005771899650629186	-0.015182800452597955	0.9998680751703402	0.9949260193308402	-0.10034642568269173	-0.007267111613110888	0.10044352260306516	0.9948367089241961	0.014526573717257962
341														9.851031550787303	-0.0738291798651965	0.13596588508415566	0.005770673373984347	-0.015207141198552099	0.9998677123426777	0.9949256329328513	-0.10035016401730154	-0.007268391491051962	0.10044742038488252	0.9948359600649092	0.014550886562499088
342														9.88419341366756	-0.08205040220086932	0.13117691465709239	0.005783906205800771	-0.015234868967675896	0.9998672137821807	0.9949244117552564	-0.10036110242654725	-0.007284505006242337	0.10045875433460422	0.9948344323993147	0.014577063842687366
343														9.836908074554843	-0.07135941859021812	0.1565701955091354	0.0058080727671122045	-0.01524942198048651	0.9998668518457812	0.994921305047486	-0.10039001072723297	-0.00731043834484324	0.10048812394178547	0.994831292669992	0.014588902330650466
344														9.855963011718803	-0.07664760903367147	0.17134406198643704	0.005818586674049886	-0.015264720816816235	0.9998665572702701	0.9949180105683955	-0.10042174727879857	-0.00732290380248618	0.10052012880883071	0.9948278549436875	0.014602833026447493
345														9.831089215761747	-0.09558728822668597	0.15699108332681952	0.005814485648502232	-0.015320822640954135	0.9998657230599759	0.9949180084418999	-0.10042165468317918	-0.007324462348625438	0.10052038715925976	0.9948270018773602	0.014659062079675433
346														9.836881233800407	-0.07202095741793657	0.1579475004973566	0.005816872723768629	-0.015309816098107387	0.9998658777669923	0.9949214876918167	-0.10038712289928889	-0.007325222529455	0.10048580656400408	0.9948306564873469	0.014648125891606578
347														9.90237022782651	-0.11371898890889454	0.18116471684495866	0.005799159754959704	-0.015301097072080994	0.99986611412455	0.994919851847577	-0.1004046635268876	-0.007306978968635636	0.10050302555511476	0.9948290204705749	0.014641102548124785
348														9.846776706989722	-0.0760611124487457	0.226493520047784	0.005816976982058242	-0.015296386635759718	0.9998660827004184	0.9949192418190783	-0.10040944585095676	-0.007324304885418631	0.10050803468848146	0.99482861023384	0.014634589958925248
349														9.87499119188341	-0.08232669488188207	0.18729006605552265	0.005813703376190027	-0.015290132472612461	0.9998661973994438	0.9949170507424208	-0.10043141382006548	-0.0073207417729379	0.1005299109472248	0.9948264888748553	0.01462853505551126
350														9.85097836909672	-0.07554335948985276	0.1388468125205326	0.005817465954073675	-0.015269484846563819	0.9998664910488767	0.9949155554009261	-0.10044608894224924	-0.0073226250397120385	0.1005444912023511	0.9948253243905314	0.014607506294163575
351														9.865087953511447	-0.07865009922272016	0.1191604551267992	0.005817465954073675	-0.015269484846563819	0.9998664910488767	0.9949155554009261	-0.10044608894224924	-0.0073226250397120385	0.1005444912023511	0.9948253243905314	0.014607506294163575
352														9.831918047107722	-0.07073886574970853	0.1243463265643367	0.005828527645194759	-0.015230279315603446	0.9998670245874987	0.994916249257096	-0.10043870869846752	-0.007329581105095573	0.10053698438724423	0.9948266705245457	0.014567442581521484
353														9.856775909034004	-0.05202589863814505	0.1395807497990965	0.005795552471857257	-0.015281447306980223	0.9998664355501439	0.9949173572708037	-0.10042975737063436	-0.007301783053173139	0.100527925338316	0.9948267895481502	0.01462173124135635
354														9.850966818351692	-0.07588315130957798	0.13947964010948294	0.005829807014782917	-0.015262724451344079	0.9998665223881105	0.9949163539985826	-0.10043734151745806	-0.007334096745588714	0.10053587367869515	0.994826311308275	0.014599603845091569
355														9.870022507828399	-0.08109485559066623	0.1539904689051635	0.0058219406090121995	-0.01525168282258077	0.9998667367097601	0.9949175581709531	-0.100426076840569	-0.007324993758392462	0.10052441221262376	0.9948276178622565	0.01458949237687801
356														9.87001743228436	-0.08114251415812722	0.15429043953624852	0.005813574363287999	-0.015274407035315518	0.9998664385020839	0.9949196693873668	-0.10040562125690594	-0.00731865330149073	0.10050399902120905	0.9948293339612247	0.014613092451994991
357														9.855900493108713	-0.07820327894798453	0.17421318985583498	0.005816663504199959	-0.015251114564325041	0.9998667760908073	0.9949187060718465	-0.10041510278089011	-0.007319524699447633	0.10051335599810335	0.9948287343246821	0.014589538304875582
358														9.855894985635574	-0.07835008190434246	0.17445869029701	0.005815965429714354	-0.015278767916050484	0.9998663579684476	0.9949175410611175	-0.10042648089212161	-0.007321777415612685	0.10052492743105967	0.9948271614640363	0.014617037264384014
359														9.869142465963057	-0.10705549444578265	0.18868971031346346	0.00579366471187287	-0.015265263025002529	0.9998666937117082	0.9949192998505876	-0.10041078626700281	-0.0072979987707468275	0.10050880674857271	0.9948289530095205	0.014605958371783967
360														9.855885675624052	-0.07837143947749409	0.17497425699390765	0.005789860810724523	-0.015270815189794673	0.9998666309639654	0.9949218234382604	-0.10038603913268668	-0.0072944083747039645	0.10048404230562519	0.9948313652829253	0.014612046100100973
361														9.864193408353048	-0.10523546704603694	0.15485171317978044	0.005794385113993827	-0.015231648010828769	0.9998672021823825	0.9949206680722817	-0.10039743604720308	-0.007295140694506985	0.10049522050204979	0.9948308156335037	0.014572540005860557
362														9.856744743810827	-0.05289641297399679	0.14144177742023237	0.005779483171117039	-0.015224364050674455	0.9998673993652998	0.9949198669699828	-0.10040649425155468	-0.007279712943857375	0.10050400928673064	0.994830012942596	0.014566724612201876
363														9.850937769266556	-0.0765123583021744	0.14117718533933574	0.005750826925452757	-0.0152278975902983	0.9998675107856306	0.9949203968991381	-0.10040328423352934	-0.007251506683631059	0.1005004070824348	0.9948302828372791	0.014573144004104976
364														9.851797163564122	-0.05094385285488731	0.1078047432698064	0.0057676599790408845	-0.015222538924025975	0.9998674954248056	0.9949194865082367	-0.10041112476097602	-0.007267832580849343	0.10050845469190006	0.9948295735114348	0.0145660633839092
365														9.865044448915947	-0.07979369427204316	0.12196875683132617	0.005758363328842553	-0.015227378015758908	0.9998674753238741	0.9949208820923782	-0.10039794373027194	-0.007258875343830129	0.10049517216412512	0.9948308297662967	0.014571908529925348
366														9.856727447581612	-0.05314559439561132	0.14254942987675387	0.005757526681215819	-0.015255985677127049	0.9998670440551258	0.9949194591843615	-0.10041188091894052	-0.007261122958491295	0.10050930615029091	0.9948289848367609	0.01460035293570977
367														9.850914575357686	-0.07698037220431327	0.1425346831596127	0.00575138417597959	-0.015281496687715446	0.999866689833722	0.9949176526547507	-0.1004300162466722	-0.00725784214864561	0.10052753859526142	0.9948267626555276	0.014626219207358682
368														9.855845086748417	-0.07898943126462979	0.176971224467676	0.005743475827310718	-0.015272991226768728	0.9998668652497734	0.9949179700413265	-0.10042750477923354	-0.007249080815072639	0.10052484953615959	0.9948271468063206	0.014618570481699067
369														9.864152079876522	-0.10588309197673278	0.15702764594176533	0.005753205103728287	-0.015285094388341913	0.9998666243657572	0.9949154164777864	-0.1004519862121423	-0.007260338894912066	0.10054956333007031	0.9948244892218806	0.014629455169524186
370														9.874886413249204	-0.0843004394606334	0.19188031053727303	0.005756243908127623	-0.015273569781862228	0.9998667829877084	0.9949194455431978	-0.10041198044353372	-0.007261615758480833	0.10050951465451696	0.9948287049786644	0.014617975728104526
371														9.884067202560994	-0.08559737502120848	0.13823058843075678	0.005767409622135011	-0.015269794450855967	0.9998667763075638	0.9949166997833514	-0.10043837825246588	-0.007272734438981854	0.1005360506408316	0.9948260981455221	0.014612904232250812
372														9.85920474806078	-0.10438425639662262	0.12354133776351338	0.005738657152349169	-0.01527510493273515	0.9998668606286454	0.9949166495313304	-0.10044090239318729	-0.007244695424613312	0.10053819323740104	0.994825761777276	0.014621060318009249
373														9.836768823277154	-0.07459921261481467	0.16364875652723382	0.005740308801701177	-0.015267701758354346	0.9998669642196805	0.9949158783599595	-0.10044846807247848	-0.007245705564209726	0.10054573010372975	0.994825111537154	0.014613473680057165
374														9.870812493409929	-0.0570666431048567	0.1249407398428202	0.005733441111472726	-0.015257765170278381	0.9998671553036589	0.9949171334917999	-0.10043661286760613	-0.0072376985391672255	0.10053370150095203	0.9948264609456728	0.014604364581392193
375														9.851759014209842	-0.05216703940065476	0.11066802043867434	0.00573016839117646	-0.015251520265731344	0.999867269341183	0.9949149415903058	-0.10045857987637946	-0.007234136408752756	0.10055557752093175	0.994824338694428	0.01459832081531337
376														9.856685692548737	-0.05419750970247112	0.14501911795480973	0.0057262701638128854	-0.015261022207079755	0.9998671466906024	0.994916283681186	-0.10044551158357051	-0.007231021278720773	0.10054251984125684	0.9948255125417274	0.014608261363373953
377														9.851748588655301	-0.052383731647476575	0.11149098871697966	0.005721076392740387	-0.015327082020390514	0.9998661659650496	0.9949212902044227	-0.1003958559217058	-0.007231764080409264	0.10049326138042808	0.994829509348455	0.014674867857553286
378														9.85578804304478	-0.08010353406090419	0.179627374815884	0.005726958496832857	-0.015294822625003035	0.9998666262793481	0.9949156379383842	-0.10045160694620683	-0.0072351950618468885	0.10054887036677118	0.9948243779998532	0.014641776025188291
379														9.85578389959164	-0.08020512151819621	0.17980933593787451	0.005716227057458334	-0.015315558841794641	0.9998663702743438	0.9949172267336361	-0.10043650425129408	-0.007226379621237344	0.1005337589910873	0.9948255838442954	0.014663595465596369
380														9.859166813638124	-0.10507110848968611	0.1259627346687241	0.005708047968352725	-0.01533821136312613	0.9998660697616311	0.9949192856187659	-0.10041654975760639	-0.007220224277847742	0.10051384627122406	0.9948272492282054	0.014687099809238269
381														9.849960360467929	-0.10403631461746246	0.18008128687816208	0.005704777317919851	-0.015331976651738632	0.9998661840504977	0.9949170941883998	-0.10043851555512909	-0.00721666715273056	0.10053572105209246	0.9948251278918487	0.01468106629312771
382														9.855766575030854	-0.08040168554565047	0.18066904636096848	0.005699198718014775	-0.015310039426663091	0.9998665520091803	0.9949169626338353	-0.10044037376698456	-0.007208937578611074	0.10053733931946107	0.9948252781319455	0.014659788274770158
383														9.845034102505243	-0.10220052947753606	0.14611654485311207	0.005686418845051444	-0.015300182360367343	0.999866775655866	0.9949167454831087	-0.10044350433324589	-0.007195275849891325	0.10054021184589501	0.9948251137044121	0.014651243803371183
384														9.869890584062162	-0.08339424815861715	0.1610559077258556	0.005663105501665433	-0.015256968098940116	0.9998675683111767	0.9949168811745053	-0.10044412893565335	-0.0071677413704709925	0.10054018495145678	0.9948257143272818	0.014610589417990927
385														9.86496813688786	-0.08146262815333881	0.12693654004119265	0.005664761682085406	-0.015249580223155146	0.9998676716336534	0.9949161102114792	-0.10045169266128115	-0.0071687574337652715	0.10054772059448108	0.9948250638903815	0.014603018138491186
386														9.856647223985032	-0.05485962672424172	0.14736581265892254	0.0056658276938644225	-0.01526238039027683	0.9998674702886203	0.9949145317761828	-0.10046714115329392	-0.007171332446790191	0.10056327787578184	0.9948233075744184	0.014615534529112573
387														9.884896333594252	-0.06104016158639691	0.10808356149680111	0.005660849768807263	-0.015219607282589698	0.9998681504748805	0.9949153501649837	-0.10045970446974226	-0.007161967881782805	0.1005554612439456	0.9948247138727583	0.01457353361410929
388														9.84680228978743	-0.0511157129671653	0.07927330727930375	0.005649373314546291	-0.015225831919763344	0.9998681206156661	0.9949162700957397	-0.10045137107718399	-0.007151052194978635	0.10054700433098107	0.9948254601140167	0.014580940607542558
389														9.831786058927717	-0.07378543584396505	0.132729343501825	0.00565247010394293	-0.015202567047915894	0.9998684571166736	0.9949153065036145	-0.10046085179925432	-0.007151932646977555	0.1005563646247351	0.994824858561004	0.014557414692707049
390														9.870764809518153	-0.0581687023679102	0.12815831590562396	0.005638860837777038	-0.015211927473167741	0.9998683915951156	0.9949144865099038	-0.10046985908356346	-0.0071394641580258544	0.10056524141663964	0.9948238058461811	0.014568031457029285
391														9.883998042741027	-0.08685254435047854	0.14233197642058226	0.00562608477872617	-0.015202076358092342	0.999868613391012	0.9949142685919271	-0.10047298660415097	-0.007125806272466895	0.10056811285021311	0.9948236405701489	0.014559493140283264
392														9.854847474663924	-0.10659637500611416	0.21553432869534636	0.005652140609856859	-0.015213237076357078	0.9998682966892117	0.9949157963344573	-0.100455952677839	-0.007152606221589419	0.1005515365904458	0.9948251901662155	0.014568098711016386
393														9.854839468037948	-0.1068597824627942	0.21576981555965627	0.005653801137501635	-0.015205860029369078	0.9998683995173894	0.9949150254604097	-0.10046351442246104	-0.007153627261831996	0.10055907043032392	0.9948245393488522	0.014560537886148028
394														9.86896310017758	-0.1099110460441323	0.19627682229262777	0.0056286993301537525	-0.015204813180665133	0.9998685570613728	0.9949098386757375	-0.10051659406045199	-0.0071293214757287005	0.10061178186509129	0.9948191936098878	0.014561640543012955
395														9.849917108273626	-0.10503612961732418	0.1818579297782344	0.005652602459613687	-0.015166994953331014	0.9998689965938132	0.9949095504575867	-0.10051802632015841	-0.007149321155349664	0.1006132918342102	0.9948196261879765	0.01452159968799821
396														9.897216444781732	-0.11624318517524067	0.15687705444335892	0.0056373762491714885	-0.015146023370489925	0.9998694004544222	0.9949069673431798	-0.1005447884641715	-0.007132450118439326	0.10063968561667064	0.9948172412502487	0.0145020753763771
397														9.856622050734298	-0.05578864846183653	0.1486947368652581	0.0056211167878229	-0.015121464186905909	0.9998698637157251	0.9949051340586008	-0.100564228527152	-0.007114082131719823	0.10065871681029792	0.9948156498877486	0.014479139080807557
398														9.85170485188402	-0.05390516392220232	0.11458720528955728	0.005627015651071543	-0.015098566129791269	0.999870176570782	0.9949050591510886	-0.10056471690192037	-0.0071176534058138285	0.10065912760615053	0.9948159483116769	0.014455760592503863
399														9.865831273621273	-0.057021204495401476	0.0949934648064989	0.0056142489491392555	-0.01508872621140639	0.9998703968765426	0.9949048410769701	-0.10056783938251432	-0.007104004753830495	0.10066199585914609	0.9948157819532473	0.014447233866842712
400														9.837573108244289	-0.05098603729340128	0.13451739382351227	0.005612745830510357	-0.01508618752201596	0.9998704436227189	0.9949021445127965	-0.10059460879087737	-0.007102642187894137	0.10068872790973671	0.9948131139205298	0.014444668347113054
401														9.83265524979986	-0.04926927873304463	0.10049016332712661	0.005635218234444683	-0.015064257724375307	0.9998706478613439	0.9949020494925611	-0.10059412416312138	-0.007122787330512359	0.10068841160208741	0.994813495245751	0.014420591041303166
402														9.874139086440552	-0.08428274070662896	0.07539542742125971	0.005633178832039454	-0.015103729079177064	0.9998700638903785	0.9949022408009325	-0.10059209633702684	-0.00712470376969937	0.10068663538687705	0.994813101804769	0.014460080637567263
403														9.849883742673875	-0.10582612940059367	0.18320224778579464	0.005609730991432249	-0.015158573268653774	0.999869365754678	0.9949013715701284	-0.10060194252044843	-0.007107039396908432	0.10069653303903059	0.994811271959446	0.014516935501274641
404														9.883945935141917	-0.08835749138919718	0.1449992976734918	0.005629340128080029	-0.015187820968266319	0.9998688117067952	0.9949012802010768	-0.10060125779944515	-0.007129486897972104	0.10069634146274209	0.9948108951069072	0.014544063827327203
405														9.855672724793136	-0.08244059742393336	0.18482214396500515	0.005613699517986792	-0.01520974869874503	0.9998685663237159	0.9949014482900989	-0.10060054173517635	-0.007116122037540473	0.10069555386404039	0.9948106325060617	0.014567459795861881
406														9.863983808044656	-0.1092178728780708	0.16510620521834352	0.0056050995498315714	-0.01523046969964681	0.999868299153326	0.9949038153146579	-0.10057761135345689	-0.0071093154923972945	0.10067264341107729	0.9948126340608876	0.014589104889092541
407														9.869790261527731	-0.085559655595027	0.16599243888702184	0.005595829613069703	-0.015235354732840045	0.9998682766530327	0.9949052128761027	-0.10056441644666564	-0.007100389897597648	0.10065934672397692	0.994813893203601	0.01459499250414581
408														9.855651668034067	-0.08258326146430653	0.1858782450824251	0.005592927874636389	-0.015224798197511824	0.9998684536866009	0.9949073280205858	-0.10054378890035695	-0.00709613729428793	0.10063859999387925	0.9948161398134863	0.01458492913477677
409														9.850746655031934	-0.08076860132510869	0.15174596573468613	0.005597474363012778	-0.015185671927196054	0.9998690232469826	0.9949061706415914	-0.10055518773334884	-0.0070968894027962914	0.10064978837553495	0.994815585718293	0.014545463620300791
410														9.857470962939136	-0.03142362600493094	0.11855813813104833	0.005572865402409366	-0.015161938291142263	0.9998695208868319	0.9949053826451428	-0.10056486711381046	-0.007070154602553003	0.10065894274692633	0.9948149692931031	0.014524259548554463
411														9.86670041783531	-0.03244345376552897	0.0648457623248866	0.005555171601275055	-0.015153267147208882	0.9998697507991963	0.9949037410153886	-0.1005823860264605	-0.007051931282267387	0.10067614504968952	0.9948133302866375	0.014517289758921081
412														9.871603558362391	-0.03444826499237645	0.09905139492044651	0.005565875295209022	-0.015131637152715594	0.9998700188470886	0.9949042626322065	-0.10057663783603987	-0.0070603199547854545	0.10067039896843588	0.9948142406895255	0.014494733280033756
413														9.85655577799991	-0.05725404846754023	0.15248255601158248	0.005575972259641182	-0.015137846032737268	0.9998698686083343	0.9949065300330905	-0.10055348001693099	-0.007070654425052891	0.10064742933067677	0.9948164872346921	0.014500058453421005
414														9.887327286202963	-0.11397653055460394	0.092694105370627	0.005574971042564381	-0.015133342817349071	0.9998699423590287	0.9949046561365453	-0.10057210201785635	-0.007069476185166845	0.10066600665416958	0.9948146733089951	0.01449554667545172
415														9.841497856799576	-0.0802381337188918	0.20620662786917504	0.005595654085170987	-0.015133258255005666	0.9998698281026117	0.9948999315655633	-0.10061733471545756	-0.007090706988363005	0.1007115426661529	0.9948101006972863	0.014493057802229592
416														9.869761446345331	-0.08662877231956068	0.16714726027287805	0.005607535185112478	-0.015148043362249397	0.9998695376555096	0.9948973524059187	-0.10064187008823938	-0.007104376174917937	0.10073635751227322	0.9948073938041659	0.014506395407616612
417														9.853111747182844	-0.033384595282243135	0.20791161048621307	0.005616556973658926	-0.015172121826188933	0.9998691219389929	0.994885138479751	-0.10076160988756366	-0.00711752801140042	0.10085641040552795	0.9947949058434897	0.014528585201388555
418														9.86382112554181	-0.012099657823170995	0.24277745474942694	0.005670040468549464	-0.015157677863333774	0.9998690391460657	0.9948583240345386	-0.10102208633718537	-0.007173086593075584	0.10111758373435598	0.9947687082301463	0.014506942677622536
419														9.834014519271358	1.4020206837656737	0.2754916424679894	0.00568399136972747	-0.014964345673379287	0.9998718720919575	0.9947187176450998	-0.10238661626948545	-0.007187042185265613	0.10248104707016076	0.9946321175024724	0.014303350095370482
420														10.003795160309448	0.8428508966531167	-0.18044345524561228	0.005681835871863217	-0.015199631724171103	0.9998683353004911	0.9943421923613995	-0.10597582741854633	-0.007261438761044847	0.10607224533802961	0.9942525308986669	0.014511497873921142
421														10.25041170458669	-0.2894477440442399	0.38265263467994115	0.005611424106230056	-0.015656010020601352	0.9998616910701874	0.9939239431993827	-0.10982685199520931	-0.007297788419302509	0.10992591620946607	0.9938274256283418	0.014944598169647827
422														10.625112740670962	-0.44612552313590614	0.049224880468604654	0.005228271090501835	-0.017276656675042634	0.9998370778859609	0.9935841982373381	-0.11286884998020094	-0.007145888133239853	0.11297391820446917	0.9934596820396284	0.016575704125324386
423														10.4851775333395	0.008532725502506926	-0.3670555281341386	0.004666978306977099	-0.019836926773241448	0.9997923362627235	0.9932490670770302	-0.11579383275638219	-0.006933905551395725	0.11590733395299413	0.9930751656505057	0.019162601705641658
424														10.849205241718026	-0.24595201550728954	-0.48895433906539976	0.003857086566978307	-0.02360185604916648	0.9997139967381918	0.9928965253249393	-0.11879588213307773	-0.006635388902438311	0.11891851361700384	0.9926381469494605	0.022975994861248905
425														10.891989897420588	-0.07406521880359443	-0.43128432534074823	0.0026886394374704414	-0.02903948874504625	0.9995746491940469	0.9925006703360977	-0.12208102680885813	-0.0062162911524326625	0.1222096174626704	0.9920952227416082	0.028493480182430753
426														10.855350143354782	0.14354580466678193	-0.3578870795963941	0.0012389018876656221	-0.03606202171106204	0.9993487858161558	0.9920478757501623	-0.12572889776655724	-0.0057668436772856935	0.1258549853669071	0.9914089846559384	0.03561948626493827
427														10.677971677282871	0.11460769535198662	-0.219504648865388	-0.00016255084198835146	-0.04434667525548591	0.999016189043505	0.9915963278736584	-0.1292502589165593	-0.005576120289086883	0.12937038349135305	0.9906198781388282	0.04399501007515963
428														10.489703671545847	-0.01685997251899897	0.3015390475180313	-0.0007887153173273265	-0.05329036245643076	0.9985787476195411	0.9912038451955396	-0.1321953134035651	-0.006271872424631453	0.13234166085449384	0.9897901476491854	0.05292587664723841
429														10.243244591507858	-0.1195996362949041	0.7789308663608009	-0.0006473912296472428	-0.06259358294920736	0.9980388891512078	0.9909347230730722	-0.134119429855861	-0.007768728546747206	0.13434267934163752	0.9889863608304819	0.062112982528538196
430														10.045857568290836	-0.23566090900228767	1.1440162375379008	-0.00011442985769843927	-0.07222909799714139	0.9973880610416025	0.9907993996016222	-0.13499329474473748	-0.009662304229615781	0.13533860001815035	0.9882103863937477	0.07157999419284222
431														9.809297116487029	-0.3915001062005974	1.4548318260569657	0.00038661882283680393	-0.08207669950556945	0.9966259408244189	0.9907863942892412	-0.1349448931989031	-0.011497681977715224	0.13543327293250312	0.9874478675848204	0.08126830492252832
432														9.59603811634038	-0.6352039057126817	1.5446960944066197	0.00042704087959588577	-0.09208400894876517	0.9957511501032827	0.9908721544903136	-0.1341925662297425	-0.01283466495082869	0.13480426956076358	0.9866675683656576	0.09118617462965026
433														9.276694883165588	-0.7211013373270284	1.6527984198812256	-0.00026544286984958587	-0.10211135319101966	0.9947729394638669	0.9910687880844444	-0.13268120237905298	-0.013354992327966941	0.13335136604067505	0.9858848665461644	0.10123459433582108
434														8.997153716931162	-0.825587695615057	1.6623234333319048	-0.00184030493894638	-0.11148498187144318	0.9937644147859475	0.9913194942943919	-0.13084614677384535	-0.012843134599819228	0.13146206110373987	0.9851144018293317	0.11075803266036852
435														8.962363205802141	-0.9908979557890255	1.817556895883362	-0.00449691986830264	-0.11963901501096202	0.9928072742475781	0.9915796356370048	-0.129025462380687	-0.011056954708937416	0.12942026078510127	0.9843977530168675	0.11921182807783656
436														9.017308145915532	-1.1304895846038032	1.8708131061561803	-0.00875454087361388	-0.12559348752842525	0.9920431613113111	0.9918391350127607	-0.12728291444292028	-0.007361382210927581	0.12719468648977184	0.9838827854888834	0.12568283951043252
437														9.204577861227278	-0.9584663678523719	1.6145903098256593	-0.01452410719440711	-0.1290092310222452	0.9915370233235138	0.9920832815336889	-0.12556871432906833	-0.001805680783627639	0.12473897871777251	0.983661077959677	0.12981167472786606
438														9.47677786801878	-0.5528772314531784	1.2162655143282781	-0.021625527174565617	-0.13036000183827484	0.9912308542893261	0.992280890910272	-0.1238949625210452	0.005354605141898283	0.12211048320573858	0.9836952313509677	0.13203303264193866
439														9.769858082895167	-0.2218840403918814	0.9343250410869454	-0.029719355230491684	-0.13048527159158407	0.9910047193744109	0.992381824381527	-0.12244305946363498	0.013638615266124365	0.11956201136597056	0.9838604022354267	0.13313014065668322
440														10.018673131089585	0.03440752837002401	0.9499064146656782	-0.03852337367308967	-0.1300034351631787	0.9907648845849442	0.9923468637368014	-0.12138512425658166	0.022657308775522966	0.11731859065203043	0.9840552618908088	0.13368466565928167
441														10.213475798359049	1.1564907833041416	2.367821111991336	-0.045508766633315434	-0.12828710549356076	0.9906923693678062	0.9922632491004368	-0.12047756644328983	0.02998000114320304	0.11551015818601496	0.9843919821636025	0.1327773655705486
442														10.718451740966154	-0.44523477759296	1.2505748432674646	-0.051694310894301376	-0.1251574009110064	0.9907892425830864	0.9922322465432467	-0.11884481845047157	0.036757013578598896	0.11314975537271904	0.9849931645065753	0.130328810070597
443														10.79185603083564	-0.1433968358519091	0.6039888791453836	-0.05896133789134772	-0.12292532668332506	0.9906628713613229	0.9920683079718533	-0.11757621291923753	0.0444556686310672	0.11101366110496247	0.9854264042613071	0.12888277166752982
444														10.290063083962357	0.25250289972166357	1.0621475470986654	-0.06652378748936194	-0.12143358280000915	0.9903678461392129	0.9917804688573467	-0.11677397698225372	0.0523004769849163	0.10929815776659679	0.985706712601726	0.12820370291347555
445														10.412913513797404	0.5964564897227099	0.8808920748010527	-0.07452282222148804	-0.12054150427440236	0.9899071141856737	0.9913711227220844	-0.11630390154539033	0.060470650054994635	0.10784083642525205	0.9858717706844963	0.1281686614056558
446														10.185686135119148	0.7857574365270947	1.032515473727869	-0.08281499416630791	-0.1196044048014358	0.9893616442400264	0.9908443311320059	-0.11610268650550395	0.06890339360127767	0.10662639544128982	0.986009610773799	0.1281243897815663
447														9.920334978669246	0.8562575269167998	1.1956248872966129	-0.09152617558018855	-0.11867056222724165	0.9887063552159128	0.9901791478453663	-0.11621459114532753	0.0777137309434327	0.1056797726903706	0.9861092568603108	0.12814179325464778
448														9.758042770468114	0.7835492922233929	1.3968149429572458	-0.10017226140914923	-0.11722786366768079	0.9880400528440576	0.9894446464926888	-0.11624612337749496	0.08652242672660959	0.10471298664031314	0.9862780879547184	0.12763511918453224
449														9.417272196777267	0.8420572352083264	1.4182564655578185	-0.10893724447695738	-0.11556396161409571	0.9873082839426721	0.9886043386960432	-0.11640339229862007	0.09545528677204501	0.10389484239906904	0.9864558890479747	0.12692769865337988
450														9.25786506714339	0.7613162711229645	1.17981199832846	-0.11760308900358463	-0.11319260224876537	0.9865885405035719	0.9876812464062791	-0.11660042841231974	0.10435562079448762	0.10322436221238829	0.986707542735038	0.12551078103346094
451														9.011757640782957	0.9088243761866256	1.4345159012909996	-0.12601776459586117	-0.10984121336423097	0.9859282077580178	0.9866804796887039	-0.11693175339389597	0.11308667494227415	0.10286473646266053	0.9870470469511086	0.12311365926478188
452														9.014290349747666	1.0887488539003993	1.3099338051393534	-0.13382851077472452	-0.10559672956379151	0.9853625020312328	0.9856623238091548	-0.11728614697435741	0.12130021908902988	0.10276046480508272	0.9874681212238404	0.11977894823257734
453														8.998853650472128	1.3819895565841684	1.2874224129252994	-0.14074289710063118	-0.10048604785226917	0.9849334957766198	0.9846852451816719	-0.11759556450485423	0.12870994961655324	0.10289025627935894	0.987964491971152	0.11549786910134621
454														8.995928518721708	1.5773846159459426	1.046617784573764	-0.14670748577178838	-0.09528752540322194	0.984579707855616	0.9837852059790275	-0.11786643077352002	0.13518199951736487	0.10316773776390725	0.988447161966304	0.11103434552171818
455														8.925029888031009	1.6877251370783866	0.9762232818215361	-0.15151845197675273	-0.08985386337200257	0.9843619466170428	0.9830103093430125	-0.11807349149160651	0.14053249564544362	0.10359966426549633	0.9889312078421364	0.1062175866792755
456														8.796804517753392	1.758473966244835	1.1127001076211431	-0.15521799130257133	-0.08406938692267679	0.9842965576280555	0.9823663000714953	-0.11826112074966608	0.14481284405353556	0.10422968703702218	0.9894173262589846	0.10094318619246298
457														8.8538590161869	1.7432035105832262	0.9528818128364992	-0.15785419212276874	-0.07782150623049405	0.9843911149524289	0.98186528740033	-0.11836085525050344	0.14809208399721335	0.1049886252292902	0.9899164212762548	0.09509399276545871
458														8.69975970357219	1.8571172649371503	0.8284442328487165	-0.15941782301588547	-0.07148066286163163	0.9846199635096466	0.9815319436129959	-0.11830542719935205	0.15032920395742755	0.1057402542656809	0.9904011009343845	0.08902054760440764
459														8.794395028387898	1.8447011003151037	0.6623160385599214	-0.1598503609834113	-0.0653082097757191	0.9849785275981222	0.9813830251983453	-0.1181313969691522	0.1514342461356129	0.10646698993593229	0.990848026079685	0.08297571492897698
460														8.769904030183701	1.8223559882749774	0.7135071012182178	-0.1590955434566512	-0.05927472322638061	0.9854821739832078	0.981426509513939	-0.11787687346043424	0.1513507486815967	0.10719428378192503	0.9912575598146173	0.07692746996263022
461														8.862921930238688	1.7332143098203336	0.7341118220789136	-0.15730115611855924	-0.05328245256466574	0.9861122281629302	0.9816326454137627	-0.11759012458775928	0.15023285944630504	0.10795228456008998	0.991631757684338	0.07080085741096603
462														8.851491412095498	1.738599033411789	0.8190937029021136	-0.15440560174115064	-0.04701438120145118	0.9868883209923998	0.9820034666323583	-0.11725522272798203	0.14805540944201334	0.10875707642716431	0.9919883369794505	0.0642731485440069
