// Start Time: 1747398475.5038033
// Update Rate: 100Hz 
// Filter Profile: 46.1 human
// Option Flags: AHS Disabled ICC Disabled 
// Firmware Version: 4.0.2 
PacketCounter	SampleTimeFine	Year	Month	Day	Second	UTC_Nano	UTC_Year	UTC_Month	UTC_Day	UTC_Hour	UTC_Minute	UTC_Second	UTC_Valid	Acc_X	Acc_Y	Acc_Z	Mat[1][1]	Mat[2][1]	Mat[3][1]	Mat[1][2]	Mat[2][2]	Mat[3][2]	Mat[1][3]	Mat[2][3]	Mat[3][3]
0														9.739853300050642	-0.03547264928611909	-0.10143378406984883	0.007636759463911236	0.007254814778265506	0.9999445222448213	0.9536501974687095	-0.3008742060633278	-0.005100293487066199	0.3008205125532207	0.953636240811084	-0.009216259486492684
1														9.793894231629926	-0.06133879863208659	-0.09771967251871871	0.007634433924600281	0.007246140040039373	0.9999446029021666	0.9536478853598862	-0.3008815289760806	-0.005100614632940814	0.300827901244663	0.9536339963400722	-0.009207326278305783
2														9.761020079128976	-0.036432604449205944	-0.09013927965720557	0.007609532568924882	0.007280972374966388	0.9999445396897557	0.9536537558648245	-0.30086349708715465	-0.005066561496876065	0.30080992160997017	0.9536394200963816	-0.009232957231620043
3														9.770059582874344	-0.035920617855680306	-0.05720403574145033	0.0076483054784685645	0.00724583786184152	0.9999444990883184	0.9536556319258727	-0.3008567448435867	-0.005114174242785985	0.3008029905426019	0.9536418179357493	-0.009211078374788295
4														9.772693166562853	-0.06317993088483977	-0.1108343113324278	0.007592069558807035	0.00725615674079344	0.9999448528139776	0.9536442526805018	-0.3008937773892807	-0.005057079973370848	0.3008404889792285	0.9536300555864223	-0.009204198660158147
5														9.772688219607385	-0.06351409127178603	-0.11107938605358234	0.007589735571213896	0.007247489945873153	0.9999449333855557	0.9536419389724762	-0.3009011050661632	-0.005057390906146819	0.30084788207127994	0.9536278093991628	-0.009195270185204274
6														9.757463488046392	-0.060720385225358504	-0.03570660132495944	0.00758692965912422	0.007236894839753871	0.9999450314149407	0.953638237988668	-0.3009128275906343	-0.005057789762211606	0.3008596841456446	0.9536241909392233	-0.009184384099950538
7														9.773128629461697	-0.04026313750134651	-0.11269377792621924	0.0075720860250226285	0.007258947917512637	0.9999449840808049	0.9536397354978796	-0.30090842976129595	-0.0050370406119112365	0.30085531139197863	0.9536254110360749	-0.009200925687856631
8														9.782172426731753	-0.039428903421262256	-0.07988410492433798	0.0075468207446852675	0.007280519006638064	0.9999450182583253	0.9536319487389155	-0.30093362090179243	-0.005006211677062777	0.30088062722792064	0.9536172973755934	-0.009214027621125886
9														9.781708296728262	-0.06451801110842852	-0.07935547525743016	0.007594637577890362	0.007282043649731174	0.9999446451280913	0.9536369408349448	-0.3009170438274893	-0.005051515524424399	0.3008636012465269	0.9536225168138642	-0.009229781718036068
10														9.772646081562174	-0.06662288627842723	-0.11294985973724161	0.007598053119640236	0.007255548545889945	0.9999448117791754	0.9536307197858264	-0.3009365727258959	-0.0050625563462846634	0.3008832329485292	0.9536165561751173	-0.009205646047471816
11														9.77310007632323	-0.042854537545688715	-0.11420421062319751	0.007589452891117954	0.007262257663613714	0.9999448283872667	0.9536303089524585	-0.30093804660687207	-0.005052321414813765	0.30088475210959426	0.953616039985731	-0.009209464147312219
12														9.782148928552154	-0.0421951651392988	-0.08133524758851171	0.007592367629791319	0.0072786658791799685	0.9999446869586304	0.9536266508088183	-0.3009496766055175	-0.005050051305745151	0.30089627252747814	0.9536122446644935	-0.009226050347574788
13														9.74790512854016	-0.09051519368534461	-0.07064243803483762	0.0075796081193536535	0.007273902451537195	0.9999448184194379	0.9536299863830322	-0.30093928515692125	-0.005039416666557994	0.3008860226262679	0.9536155603765948	-0.009217613345018805
14														9.794264630348565	-0.044519357100052406	-0.10310534790224163	0.007593690315723156	0.007259261463130773	0.9999448179726718	0.9536240591920624	-0.3009577706850056	-0.005057073695942826	0.3009044526048818	0.9536098381347176	-0.009207986491899633
15														9.77307390860653	-0.045332257920453554	-0.11547978913706726	0.007591332816499818	0.0072506232900863	0.9999448985459025	0.9536217406195497	-0.30096511257617165	-0.005057354026905436	0.30091185999194225	0.9536075867325713	-0.009199078338189781
16														9.78212834730121	-0.044540322834639406	-0.08255087391146983	0.007559709917307422	0.007275383791195189	0.9999449582735326	0.953621544665309	-0.3009663632922247	-0.00501973274212969	0.3009132771017523	0.953607003412487	-0.009213181130348636
17														9.760936822356511	-0.045210775677410775	-0.09504619233554543	0.007585167003720694	0.007257316294969063	0.9999448967826776	0.953616622254129	-0.30098146506248125	-0.005049301879218704	0.30092823563459575	0.953602374708157	-0.009203692129361674
18														9.782116812221906	-0.04582175508673709	-0.08321380736911316	0.00757483004300058	0.007266912661722025	0.9999449054473883	0.9535984842389214	-0.3010391495708946	-0.005035998695777144	0.30098596779094366	0.9535840929912784	-0.009210037293603757
19														9.760453668545692	-0.07078477307643281	-0.0945651962146198	0.0075508946313374015	0.007252358745126919	0.9999451921394986	0.9535968624934081	-0.30104459557716257	-0.005017501022550608	0.30099170724954377	0.9535824845111277	-0.00918898256556644
20														9.781633014899773	-0.07125597040232344	-0.0827959829939558	0.007567204690777873	0.007271265222343448	0.9999449315413497	0.9536037431193973	-0.3010226313524351	-0.005027576188456617	0.30096949766021586	0.9535892743292169	-0.00921180560124113
21														9.773031282527914	-0.0487926278700347	-0.11765658561972966	0.007580154005618678	0.007283933803992337	0.9999447412600309	0.9536026268041482	-0.3010260255465467	-0.005036079415380923	0.30097270875858384	0.953588106182113	-0.009227802042296784
22														9.769972767041908	-0.047102544110583316	-0.06356308179153589	0.0075712406703783985	0.007269819941867817	0.9999449114989909	0.9536199435810112	-0.3009712255191618	-0.005032356708704555	0.30091806113834546	0.9536055112715673	-0.009211370866072488
23														9.77349599648845	-0.025685413377467606	-0.11928574266447299	0.00756886245073507	0.007261204427005674	0.999944992102801	0.9536176218775221	-0.30097857743794076	-0.00503261046498088	0.3009254784259064	0.9536032565137884	-0.00920247795089335
24														9.773011948964001	-0.0507282618114966	-0.11844117253402321	0.007570869797454305	0.007238248763022259	0.9999451433380506	0.9536245612975908	-0.3009564385283586	-0.005041646388228627	0.30090343637201555	0.9536104182857752	-0.00918107381200367
25														9.760886450843778	-0.0501515670890168	-0.09770334263452911	0.00756431227786819	0.007283310034607193	0.9999448657674594	0.9536185464040334	-0.3009758313141418	-0.005021645051128343	0.30092266304487797	0.9536039546686564	-0.00922217470436315
26														9.760879772080273	-0.050616054128304604	-0.0981299295116546	0.007550031356124476	0.007265617422616499	0.9999451024081218	0.9536229047115354	-0.30096215809658405	-0.0050134821611734215	0.30090920995551995	0.9536084050580274	-0.009200932921714366
27														9.769949365060492	-0.04996638115052848	-0.06495804936466763	0.007546891974640424	0.007243293295549458	0.9999452880651811	0.9536099765593253	-0.3010030634378849	-0.00501681248721092	0.3009502567336442	0.953595664054343	-0.009178914353582757
28														9.781574822834045	-0.07602093631479498	-0.08539198634034177	0.007536371761999783	0.007263819296932039	0.9999452185144377	0.953607113116026	-0.3010124062143579	-0.005000511929926066	0.30095959349252155	0.9535925588186309	-0.00919537114814939
29														9.770425260968427	-0.026574919873706214	-0.06677863805851339	0.007531896177268793	0.007282051083079832	0.9999451196300715	0.9536029412218747	-0.301025786494003	-0.00499062708050807	0.30097292408614534	0.9535881960247254	-0.009211480301506314
30														9.769445426990181	-0.07592013065142783	-0.06513418487266888	0.007531774753004761	0.00728375764758471	0.9999451081152415	0.9535954786459416	-0.3010494399770066	-0.004989769087741069	0.3009965705370882	0.9535807158096596	-0.00921319493171463
31														9.803232161459329	-0.05320447640522629	-0.07551266775593841	0.007529378180451185	0.007275159689525468	0.9999451887557176	0.9535931536724527	-0.3010568005578226	-0.0049900006927601215	0.30100399620809365	0.9535784576474972	-0.00920431297700175
32														9.760842817109218	-0.05408883377262673	-0.09993658810065678	0.007540897891559206	0.007247130259426859	0.9999453054852514	0.953600258471204	-0.30103396903460383	-0.005009643792426022	0.3009811985866275	0.9535858789801142	-0.009180931710944695
33														9.760835086010042	-0.05469612571067776	-0.10036028424226565	0.007534334196521497	0.007292208385517807	0.9999450272415367	0.95359423419557	-0.301053384173125	-0.0049896279293606405	0.30100044903152506	0.9535794060143975	-0.009222044678336483
34														9.76082807579099	-0.055160511453572224	-0.10078683357653549	0.0075236379974003564	0.007274301322187426	0.9999452382063523	0.9535934632895302	-0.3010559061106376	-0.004984793614844052	0.3010031588584475	0.9535787465837193	-0.009201761845392065
35														9.791100184364547	-0.05431605096012586	-0.05562291867449037	0.007507996992955068	0.007282716283555035	0.9999452945159989	0.9535843339072286	-0.3010851149030008	-0.004967062568026259	0.3010324701886188	0.9535694603055306	-0.009205230293604427
36														9.794118639439603	-0.05723138984892104	-0.1104398699247127	0.00750868530278459	0.0072837587051376995	0.9999452817550315	0.9535796945953818	-0.3010998046338483	-0.004967263314656023	0.3010471486335694	0.9535648140051016	-0.009206508079277143
37														9.782002569566936	-0.05669112763045983	-0.08969592975844304	0.007511187120853358	0.0073003748198645635	0.9999451417930509	0.9535842212684447	-0.30108550921563615	-0.004964784810529255	0.3010327474144454	0.9535692007756178	-0.009223031836664453
38														9.781995687523773	-0.05729716965249476	-0.09006056832263314	0.007513315490365324	0.007288838511325668	0.9999452099607751	0.9535818333290783	-0.3010929824889842	-0.004970215351720819	0.30104025849559807	0.9535669293390183	-0.009212710559844295
39														9.748688206912856	-0.05679482274113557	-0.08130976145695167	0.0075046574675904365	0.007295627269609695	0.9999452254693937	0.953581406116399	-0.30109450559412276	-0.004959900210830592	0.30104182770067817	0.95356639649464	-0.009216585640112962
40														9.791073644287112	-0.057195518106121786	-0.05738063258258645	0.007505185226512501	0.007280980631821643	0.9999453282633779	0.9535950921455902	-0.3010510699276525	-0.0049652322461831155	0.30099845918303064	0.9535802224335688	-0.009202551438958984
41														9.781976051507375	-0.059092039600520424	-0.09102848180499465	0.007518081278312327	0.007293703023170506	0.9999451386701688	0.9535939632091295	-0.30105450662882244	-0.00497366761879614	0.3010017139236896	0.953579040213598	-0.00921858342237325
42														9.769864665102713	-0.05857800189453637	-0.07028392696762956	0.007516597455354823	0.007297309585276024	0.9999451235120409	0.9536003200778245	-0.3010344085225819	-0.0049713612753599645	0.30098161124920075	0.9535853575628539	-0.009221471225301259
43														9.781960236079271	-0.06046831112017287	-0.09182082287266854	0.0075427140593137265	0.007293043637505436	0.9999449579747486	0.9536059916761173	-0.301016005120671	-0.0049977295446844705	0.3009629879304581	0.9535911997159445	-0.009225167764182696
44														9.782461416963937	-0.03673945795811437	-0.09317149902530288	0.007524829147158352	0.007289541046100523	0.9999451182628191	0.9535920766300248	-0.30106035615569615	-0.004981299011517448	0.30100752205674663	0.95357722526429	-0.00921667632688511
45														9.769845294930683	-0.06053154741483324	-0.07131375809800455	0.007537715516386545	0.007302275866905572	0.9999449282895323	0.9535909443482555	-0.3010638031053968	-0.004989721106160194	0.30101078668678377	0.953576039562068	-0.009232717439903837
46														9.77034890587142	-0.036753810296964395	-0.07284784128545067	0.00753387782192555	0.0073206126038319885	0.9999448231357909	0.9535771777081716	-0.3011075631557951	-0.004980116915917265	0.30105449147800745	0.9535620819021081	-0.00924927669793052
47														9.794028672423748	-0.06399178518466171	-0.11462868052115437	0.007529370456079432	0.00733888576223779	0.9999447231403865	0.9535729927492425	-0.30112098024648426	-0.004970186580985303	0.3010678595927977	0.9535577046047949	-0.009265414672115502
48														9.770336588679896	-0.03783175842599755	-0.07394002353768124	0.007541321738867013	0.007377354627261801	0.9999443500041068	0.9535646416470165	-0.3011474320924016	-0.004969742926006104	0.30109400968307076	0.9535490542089888	-0.009305834197690266
49														9.78191235748394	-0.0640983524057935	-0.09442221137885219	0.0075513584424743985	0.007338052876254331	0.9999445634462238	0.9535585104374638	-0.3011664945828786	-0.004990963128175763	0.301113174998968	0.9535433369913748	-0.0092714789216512
50														9.769810168980076	-0.06359791561103473	-0.0734257959017723	0.0075440878491268015	0.00734254420579844	0.9999445853561649	0.9535571846960531	-0.3011708300309256	-0.004982635148466141	0.3011175555378066	0.953541933101566	-0.009273594980735211
51														9.781900440985225	-0.06528089182203028	-0.09484543327593842	0.00752706254741109	0.0073264528412725904	0.9999448316873152	0.9535642597597551	-0.30114861295468853	-0.0049714609822741895	0.30109557591940544	0.9535490737262727	-0.009253008026028908
52														9.769798724589334	-0.0647101535295245	-0.07397488919089039	0.007542153632815296	0.007335830227850226	0.9999446492248698	0.9535670572591978	-0.3011395620992998	-0.00498311636194404	0.3010863384954783	0.9535518600126115	-0.0092664468851959
53														9.770311930893097	-0.041073758173305774	-0.07545286350175438	0.007561258193768183	0.007333214603048255	0.9999445241302707	0.9535640201852846	-0.30114886532077223	-0.005002031996122258	0.3010954778514716	0.9535489420473381	-0.00926975392321483
54														9.77030595559981	-0.041820911721769764	-0.07581521914178563	0.0075701636007629025	0.007331501772624205	0.9999444693105788	0.9535716974216073	-0.3011244011529911	-0.00501127795342482	0.301070939314195	0.9535566811217936	-0.009270673570880628
55														9.793958004319697	-0.06921042826320419	-0.11759619013298758	0.007576785231196981	0.007359645539157689	0.9999442124154219	0.9535724560444069	-0.30112203435274865	-0.005009141712884191	0.3010683699743266	0.9535572117313151	-0.009299492255062769
56														9.770292396852527	-0.04297052538251393	-0.07691170468656121	0.0075678172079584605	0.007390153411520106	0.999944055322727	0.9535737778300966	-0.30111814249789626	-0.004991442021482162	0.3010644090183097	0.9535582047736627	-0.009325863567791304
57														9.74855554002295	-0.068079169249831	-0.08825433754745865	0.007584800320611762	0.007349264027064983	0.9999442280059211	0.9535763497365868	-0.3011095224228941	-0.005020032799100127	0.30105583539792724	0.9535612428284392	-0.009291939966391494
58														9.761168889692414	-0.04554254185321607	-0.11055213608787923	0.007561928515926963	0.0073335779352597386	0.9999445163966785	0.9535690295918802	-0.30113299160735574	-0.005002716142663177	0.3010795958551822	0.953553952327959	-0.00927021895148411
59														9.782368310292552	-0.045951273623255136	-0.09869561789712296	0.007553225130488672	0.0073404260735527305	0.9999445319292399	0.9535685912124152	-0.30113455198968964	-0.0049923392451441395	0.30108120273988853	0.9535534068645697	-0.009274136815603518
60														9.7702738599249	-0.045368885305644174	-0.07788304332324875	0.007563636433517706	0.007337629043694838	0.9999444737603774	0.9535791397261555	-0.30110096297017974	-0.005003436574518905	0.3010475306044319	0.9535640352375121	-0.009274428204804674
61														9.76114984417054	-0.047368568081440514	-0.11146286446779136	0.007578541752479628	0.007323582476728596	0.999944463880176	0.953579853033793	-0.30109839647756353	-0.0050219046874263595	0.30104489630776926	0.9535649536231637	-0.009265507471149625
62														9.77831032213268	-0.09432334803283067	-0.04319964297473369	0.00758768830005524	0.0073493411464474745	0.9999442055289758	0.9535818802822742	-0.30109195891498153	-0.0050229348056345935	0.30103824438696125	0.9535667881493421	-0.00929279048316517
63														9.70313421396088	-0.06957888577189222	-0.059922906116131304	0.00760052408282319	0.007362132226416518	0.9999440139541549	0.9535807345256495	-0.30109544808456423	-0.005031290518169307	0.30104154991493964	0.9535655877556805	-0.009308870660536372
64														9.878703461524308	-0.07457685436500644	-0.07267644600875955	0.007602139449984224	0.007404539811675326	0.9999436885474904	0.9535788047528251	-0.3011017480978355	-0.005020001852720668	0.3010476218174738	0.9535632700993706	-0.009349829701035817
65														9.858028590144762	-0.050773585962841795	-0.08620967250684988	0.007584340243258936	0.0073747150173926745	0.9999440441152134	0.9535752755353437	-0.3011130597937885	-0.005011896778343905	0.3010592494356699	0.953559929317521	-0.009316089801869765
66														9.644070202794541	-0.0006865523003259114	-0.15501981574105445	0.0075787505430928714	0.007379544522528703	0.9999440508662698	0.9535690332857252	-0.30113294332481955	-0.00500491788724533	0.30107916118312245	0.9535536129485173	-0.009319116594202814
67														9.703108208576557	-0.07175000598645846	-0.061551439431177885	0.007585343141909229	0.0074077275285341915	0.9999437924914998	0.9535697815577218	-0.30113060999438646	-0.0050027416851768924	0.3010766252457659	0.9535541312884512	-0.009347964128563369
68														9.904466867682057	-0.0061022907358073515	-0.11966809824079874	0.007590678928071193	0.007381530854121854	0.9999439457267894	0.9535644030269217	-0.30114742818874296	-0.005015553330997347	0.3010935251268634	0.9535490231223329	-0.009324678499730676
69														9.685926983622595	-0.02695915615112583	-0.13072093512608923	0.007611792051147037	0.007352128628007715	0.9999440018453065	0.953563216390596	-0.3011507019397888	-0.005044508696890271	0.301096750179391	0.953548216361296	-0.009303015941063031
70														9.770212116247789	-0.051818316165351846	-0.0815196281337445	0.007604455104170127	0.007357916583949631	0.999944015095901	0.953558267672475	-0.30116651994673527	-0.005035614822492096	0.30111260753418556	0.9535431759111463	-0.009306409471283694
71														9.8120770972043	-0.07674329071481453	-0.05650465606040529	0.007615150874733356	0.007332455460015208	0.9999441207257943	0.95356273283193	-0.30115208027870255	-0.005053622256447399	0.301098196658924	0.9535479325344567	-0.009285274794382625
72														9.752486907216547	-0.031127697433449706	-0.14969200132113814	0.007583827954529221	0.0073564826589890275	0.9999441823004145	0.9535696390907553	-0.30113082851266937	-0.0050167243895012925	0.3010771146365712	0.9535544590017717	-0.009298642909354504
73														9.776385062000495	-0.049886799700664675	0.005173066140318596	0.007631377057547295	0.00735827513874443	0.9999438073567877	0.9535745846044353	-0.3011144149683279	-0.005061688923711172	0.3010602492536741	0.953559628384751	-0.009314581796919408
74														9.770185725061836	-0.054412192167560595	-0.0829794870484451	0.007623854967143684	0.007363278021078168	0.9999438279084605	0.9535732277753312	-0.30111885826896495	-0.005052965953952271	0.301064737399744	0.9535581866522775	-0.009317111292881097
75														9.773115916466942	-0.057410957593400855	-0.13792064369208168	0.007623471996627662	0.007393061514732846	0.999943611068222	0.9535652669622809	-0.3011442277612518	-0.005043384700073816	0.30108996050660725	0.9535499445375257	-0.009345531264248808
76														9.804012787544234	-0.032319942968214305	-0.09418969147079465	0.007638662004280872	0.007402921770110427	0.999943422195501	0.9535651101180067	-0.3011445313635866	-0.00505489816312521	0.30109007225150775	0.9535497721561635	-0.00935950920243439
77														9.758091159500934	-0.05492982315983639	-0.06324868234268995	0.007629914643604574	0.007409820982936299	0.9999434378781292	0.9535646623196112	-0.30114612427180953	-0.00504446343565268	0.30109171223701436	0.9535492155044063	-0.009363462666888644
78														9.770156540232579	-0.05661135589882657	-0.08492190576036007	0.007620876584079672	0.007441387991725168	0.9999432723834127	0.953560181222965	-0.30116061849793674	-0.005026196570673713	0.3011061324950342	0.9535443920503637	-0.009390919187497737
79														9.782779341516779	-0.03400179946393108	-0.10768031573658583	0.007629488321029165	0.0074427814508953305	0.9999431963427889	0.9535627821002499	-0.3011522517193781	-0.005034071670091178	0.3010976776748544	0.9535470236378605	-0.009394796974224462
80														9.749488638600853	-0.03361376863494135	-0.0989415327990234	0.007654750430575175	0.007436362889462811	0.9999430510298186	0.9535736512121461	-0.3011173918558846	-0.005060438305782566	0.30106261227489317	0.9535580825670171	-0.009396098197206049
81														9.703567036268902	-0.05620340890990667	-0.06798583080464463	0.007632810780778321	0.007460223005070821	0.9999430410139866	0.9535663950913942	-0.30114084431650556	-0.005032100629454361	0.3010861510464865	0.9535504899883679	-0.009412369040554924
82														9.791340856822535	-0.058735640659566844	-0.07503360178103938	0.007615429337082813	0.0075736179509159895	0.9999423211101454	0.9535576673031358	-0.30116932745706193	-0.004981096913626637	0.3011142314195957	0.9535406003470404	-0.009515415198066646
83														9.878547996462702	-0.08592008216470869	-0.08082619143042	0.007633020626555076	0.0075466392948259076	0.9999423909563325	0.9535708324304533	-0.3011272211864192	-0.005006415727498048	0.30107209192152923	0.9535541122012415	-0.009494765404952643
84														9.749457828184593	-0.03576818134595227	-0.10119636051264574	0.007648927071544909	0.007530612346685839	0.9999423902367266	0.9535707423046174	-0.30112717349460283	-0.005026410625132094	0.3010719736795095	0.953554253968192	-0.009484271394758104
85														9.691475823680031	-0.05716102883453229	-0.04891485865648272	0.007640157864442221	0.007537536255747879	0.9999424051089136	0.9535702907239922	-0.3011287779681119	-0.005015947367332019	0.3010736266038038	0.9535536925766813	-0.009488242039939088
86														9.791312002766382	-0.06135635020649519	-0.07668292756560888	0.007661116906215515	0.007546588345620664	0.9999421764742651	0.9535783124792696	-0.30110308234816513	-0.005033464971747614	0.30104768601824045	0.95356173518277	-0.009503048894283828
87														9.80684104105641	-0.04136166534395569	-0.15385227810285423	0.007652342167126902	0.007553517962928635	0.9999421913419502	0.9535778598505276	-0.30110469064203005	-0.005022994749671994	0.30104934290286217	0.9535611724686317	-0.009507023614351684
88														9.762065470673637	-0.014929581572029832	-0.12506933661029843	0.007620851773972981	0.007579402071654695	0.9999422359728966	0.9535771162975031	-0.301107674488854	-0.004985141688403472	0.301052496903743	0.9535600248689913	-0.009522241326033076
89														9.758011600098737	-0.06182259901093925	-0.06890874850675327	0.007668323486380746	0.007581266434017575	0.9999418589168896	0.9535820504561956	-0.30109130176713816	-0.005030014704545505	0.3010356621110961	0.9535651799428431	-0.009538225092091068
90														9.782119210508132	-0.0649440681881684	-0.11183972761569742	0.007640544322599752	0.007618966390348758	0.999941785022307	0.9535784521404954	-0.301103329475522	-0.004992052893607268	0.301047766468698	0.9535610815935697	-0.00956587551195931
91														9.7821094365545	-0.06536078505607718	-0.1124502958239165	0.007647067183469192	0.007647234782482026	0.9999415193718451	0.9535791800870044	-0.3011010616832346	-0.004989785348718079	0.3010452950439333	0.9535615714013498	-0.00959478392151758
92														9.778633705450318	-0.08772316034100852	-0.05744428276588876	0.007632438822779419	0.007668411252871765	0.9999414689602957	0.9535808507896414	-0.3010961058890308	-0.004969509610194822	0.301040374177486	0.9535629661890813	-0.009610547734693442
93														9.782670710600135	-0.04194692121884283	-0.11452957371724763	0.007623647869729799	0.007675359659206904	0.9999414827114941	0.9535803953434241	-0.3010977212746941	-0.0049590180345140955	0.30104203960549825	0.9535624002115906	-0.00961453549960578
94														9.80388601129896	-0.04246262434372696	-0.10295153378559775	0.007630550278261261	0.007701737164994671	0.9999412272464281	0.9535824794335521	-0.30109114213855426	-0.004957725593512097	0.3010352630835973	0.9535642649398848	-0.009641732720168494
95														9.791244126385214	-0.06610559413449378	-0.08126556924531365	0.0076197098238287575	0.007735519180016581	0.9999410491450068	0.9535801553899966	-0.30109884075205595	-0.004937139268696156	0.30104289938244866	0.9535615605931189	-0.009670723376524415
96														9.757378465265854	-0.08969516882162577	-0.07164097265924184	0.007608433649688884	0.0077678890366790765	0.9999408840713091	0.9535818976946311	-0.3010936573854439	-0.004916693132816674	0.30103766562758166	0.9535629341486433	-0.009698169483237096
97														9.782635045183488	-0.04398357509585663	-0.11678974418323869	0.007621166950944835	0.007780787126361044	0.9999406868239735	0.9535807311884144	-0.3010972173593346	-0.004924916713430261	0.30104103859851805	0.9535617048991427	-0.009714320839137147
98														9.769992430338592	-0.06776224981170863	-0.09503473003198593	0.007628938199549851	0.007807317899945931	0.9999404207697362	0.9535810092817557	-0.30109634591483936	-0.004924349085933755	0.3010399608675502	0.9535617632140779	-0.009741955497908628
99														9.749343622785357	-0.043971152498280125	-0.1086896866582949	0.007620128988879038	0.007814285813616095	0.9999404335116246	0.9535805513209227	-0.3010979680746355	-0.0049138339217487115	0.3010416346233152	0.9535611939244112	-0.00974595632934544
100														9.783196028494814	-0.02130919600391043	-0.119486432285183	0.007621894707515564	0.007856817153683693	0.9999400867778436	0.9535803172038393	-0.30109889096283654	-0.004902703578183565	0.30104233151251875	0.9535605530249056	-0.0097870502370907
101														9.782599067555964	-0.04619534918696348	-0.11892969623377166	0.007613080920322424	0.007863790548133909	0.9999400991044993	0.9535798584092084	-0.30110051509211927	-0.004892182287539237	0.30104400780479695	0.9535599827013903	-0.00979105486399623
102														9.761953722428684	-0.022364285973037717	-0.13246453689406132	0.007606272894277788	0.007869408416032564	0.9999401067183171	0.9535772310583706	-0.30110896999856374	-0.004883911696049126	0.30105250209840234	0.9535572665538161	-0.009794405684151686
103														9.758500141362132	-0.04479841550636277	-0.07726296668341039	0.007614799398813432	0.007870891693647464	0.9999400301488401	0.9535798209569459	-0.3011006418330925	-0.004891681860020702	0.30104408297429747	0.9535598840931006	-0.009798344478412824
104														9.757900633245656	-0.06973234799939336	-0.07663812343858499	0.0076063353740760675	0.007903756396309025	0.9999398353386092	0.9535722397866127	-0.30112494557035874	-0.004873465254972842	0.301068309807791	0.9535519376468575	-0.009827260015064732
105														9.794012090778734	-0.07407243216185831	-0.14078842889989568	0.007619047876113172	0.007916675677585472	0.9999396363559543	0.9535710690236523	-0.30112852024073045	-0.004881661471025978	0.30107169649528864	0.9535507016115319	-0.009843425501565972
106														9.758480463069933	-0.046509301291102735	-0.07872351582396514	0.007612288290295421	0.007922702750431776	0.9999396401023988	0.9535676324151936	-0.30113953823036843	-0.00487328682553112	0.30108275187574063	0.9535471720347819	-0.009847193884674532
107														9.761318759537795	-0.04976212580748958	-0.13354606250589446	0.0076381443666450055	0.00791870632178071	0.9999394745887491	0.9535732702902378	-0.3011212624422495	-0.004899335992452347	0.3010642405511079	0.9535529767115067	-0.009851074358128709
108														9.757868821402079	-0.07218490928529764	-0.07839743474337704	0.00761704316107209	0.007940795733743233	0.9999394603757754	0.9535697064969817	-0.30113298419347656	-0.004872441071056999	0.30107606265650194	0.9535490913392167	-0.009865845195002165
109														9.781932403472537	-0.07509917668970575	-0.12141126867973108	0.007610369196881905	0.007986045620169246	0.9999391508267088	0.9535636104764238	-0.30115261324737	-0.004852247875682447	0.30109553808692396	0.9535425143168146	-0.009907085066416299
110														9.783122962848157	-0.026843230415202833	-0.1242583596051374	0.007613248927165972	0.008001178384109797	0.9999390079326037	0.9535713369393717	-0.30112817231002054	-0.0048506915885047075	0.30107099463155407	0.9535501061746536	-0.009922258103604698
111														9.77048012365138	-0.050560165727071706	-0.10236168042417325	0.007614831578141523	0.008004204066251353	0.9999389716664221	0.9535652251914962	-0.3011475190772496	-0.004851088445710194	0.30109031144413645	0.95354397091633	-0.009925718290862084
112														9.77168103625342	-0.0023656999656659653	-0.104966100773111	0.007606303655443514	0.00801075753887126	0.9999389840927071	0.9535677592361514	-0.3011396563713321	-0.0048410645422065635	0.301082501467699	0.9535463990410797	-0.00992935978518189
113														9.76126371161989	-0.053029823636059924	-0.13628391484086153	0.007610601264408434	0.008000848704437014	0.9999390307255753	0.9535741059406189	-0.30111944127843304	-0.00484835680554202	0.30106229127531686	0.9535528661297041	-0.009921102150631245
114														9.770460526493835	-0.05232961388342445	-0.10333824363449105	0.007602596623877633	0.008007133182411474	0.9999390413134063	0.9535750597454831	-0.3011165735320651	-0.004838860992742999	0.30105947245681086	0.9535537189705192	-0.009924670348136544
115														9.757815602958848	-0.07598190062385994	-0.08137674447389738	0.007600659490430206	0.008012634042006472	0.9999390119757405	0.953583291362748	-0.3010905563648316	-0.004835628367176603	0.30103344732620635	0.9535618881664818	-0.009929200736974897
116														9.779654368055446	-0.052191303161599326	-0.07069763566851986	0.00759842472999972	0.007990673371703394	0.9999392046923099	0.9535697571572346	-0.3011333523333505	-0.004839663993603138	0.3010763726643379	0.9535485584130182	-0.009907803577975438
117														9.77044161044848	-0.05402495864875521	-0.1042502879044678	0.0075833464736800305	0.00801309489868579	0.9999391397312165	0.9535711762444743	-0.301129196776036	-0.004818577046139139	0.3010722582570342	0.9535496825856347	-0.00992462336039207
118														9.767615109184884	-0.05207739789979168	-0.05022126079868638	0.00760998228378601	0.008007601651862928	0.9999389813810773	0.9535800707548296	-0.3011005905441041	-0.004845929550326311	0.3010434135284401	0.9535587620539061	-0.009927259509438124
119														9.812901142416784	-0.055275449971886194	-0.08089704524121369	0.007590018335361215	0.008004706520084559	0.9999391562966201	0.9535746667910382	-0.3011179989789147	-0.0048275817232890095	0.3010610344698058	0.9535532892106565	-0.009918576486006914
120														9.7704212002385	-0.05579410421286699	-0.1052267183350494	0.007579149451162781	0.00799843536585687	0.9999392889197304	0.9535749261401218	-0.30111731334413666	-0.004819112083274402	0.30106048683023656	0.9535535583469386	-0.009909320533401322
121														9.725741838815715	-0.02932101969289772	-0.07635168684506123	0.007564062034474683	0.008020864255475102	0.9999392235041761	0.9535763421660821	-0.30111316596776627	-0.004798014383489035	0.30105638114262645	0.9535546796159433	-0.009926145064523939
122														9.779003004038437	-0.07992964133939859	-0.07164130867426456	0.007583405755506589	0.008018322860800231	0.9999390973732589	0.9535748765281935	-0.30111750134977455	-0.004817181241101476	0.3010605367885144	0.9535533319533673	-0.009929567424770358
123														9.783038410262424	-0.034364201167892766	-0.1289736228834747	0.007577388483314185	0.008077510474716942	0.9999386666232606	0.9535793492979212	-0.30110371035940786	-0.004793766822798584	0.30104652095037815	0.9535571872899544	-0.00998412696958828
124														9.771007942079201	-0.03366324277699212	-0.10825651288667912	0.007588954831498906	0.008051869579980164	0.9999387857068217	0.9535836078688424	-0.30108992195084006	-0.0048126607484059725	0.3010327400274059	0.953561757987339	-0.009963088662071351
125														9.770382505085419	-0.05865517416940061	-0.10724429795116627	0.007564782901817724	0.008037564541216846	0.9999390839525648	0.9535819635814318	-0.301095429476799	-0.0047938586090158775	0.301038556985363	0.953560139636944	-0.009942198134347602
126														9.77162303696788	-0.0104587766719795	-0.1097615982262361	0.0075747373714427635	0.008039030707748918	0.9999389968088224	0.9535829760158838	-0.30109207822640754	-0.004802945137457493	0.30103509962534974	0.9535611854593197	-0.009946576243765215
127														9.758347920353657	-0.058560915438498715	-0.08670614409759678	0.007576963648884494	0.008056004241463022	0.9999388433386941	0.953587436993881	-0.3010779948726612	-0.004800105300844293	0.30102091227903893	0.9535654889933464	-0.00996336145965776
128														9.78020797261704	-0.03457610664707729	-0.07636059950899131	0.007550678351574414	0.00809501821406966	0.999938727091088	0.9535786267715963	-0.30110648688553043	-0.004762994840524448	0.3010494806851991	0.9535561620772885	-0.00999279458430885
129														9.746315216940323	-0.058310107915272566	-0.06647260933123295	0.007589570828630043	0.008074217509795367	0.9999386008281919	0.9535910653858435	-0.3010663963516309	-0.004806766494743153	0.3010091002460382	0.9535689969789536	-0.009984466416553928
130														9.779568186902525	-0.060476263368472095	-0.07583108774608306	0.0075942662236621605	0.008049745322360746	0.999938762485368	0.9535863168906624	-0.3010812493666827	-0.00481845604924197	0.3010240245552258	0.9535645142726539	-0.00996261815650118
131														9.779561523798467	-0.06109646241783922	-0.07619244210004036	0.007593787137194441	0.008079636782868826	0.9999385250436008	0.9535783167916136	-0.30110674158714656	-0.004808733268130361	0.30104937824514383	0.9535562121030035	-0.009991106944882644
132														9.770325857532134	-0.06296909374568442	-0.10992551371857155	0.007592918522307146	0.008084005566296792	0.9999384963298081	0.953585718987779	-0.30108332879759286	-0.004806835000385534	0.3010259525869388	0.9535635678727268	-0.00999489344422344
133														9.767533663989195	-0.0608887643832663	-0.055837191211269926	0.0075840323312338365	0.00809106921192737	0.9999385066355866	0.9535852428107282	-0.3010850062685102	-0.004796216623168481	0.30102768501784677	0.9535629783078303	-0.009998962621044383
134														9.757662480817157	-0.0871009480866631	-0.08830115308567511	0.007575978052360599	0.008097815167295574	0.999938513082713	0.9535851162660698	-0.3010855616983948	-0.004786498990781984	0.30102828869124054	0.9535627456682013	-0.010002973625116374
135														9.758290323930412	-0.06337445016056065	-0.08975027728654038	0.0075906295488805675	0.008084002486660247	0.9999385137331431	0.9535858059583804	-0.30108308813254847	-0.004804655583281248	0.3010257348097627	0.953563643887687	-0.009994200212058546
136														9.79281526222238	-0.016379955566946665	-0.10166060492491112	0.0075528899036237385	0.008126502040475048	0.9999384550154522	0.953586933100415	-0.3010802923363255	-0.004755900211028619	0.30102311352161676	0.9535641653980391	-0.010023352457777912
137														9.758917237675307	-0.03992617378323372	-0.09151240589416426	0.007554255581370017	0.008064520914839668	0.9999389464987474	0.9535883344444728	-0.30107553716573754	-0.004775911617512785	0.3010186400109253	0.9535661929948943	-0.009964634624322843
138														9.770923429910807	-0.041908408709462566	-0.11290661039427134	0.007554953792860586	0.008093162217819638	0.9999387098210089	0.9535802754897479	-0.3011011912360942	-0.004767686346805522	0.30104415103118054	0.9535578500340296	-0.009992285444015647
139														9.779509695339744	-0.06565685667400085	-0.07899987625702186	0.007580687329340641	0.008089301839550866	0.9999385462994028	0.9535858953551977	-0.3010829815359709	-0.004793579981189677	0.30102570215720886	0.9535636326041166	-0.009996260080676445
140														9.758255509014692	-0.06640662969711876	-0.09132928749627332	0.007578989933210656	0.008079479964114011	0.9999386385749385	0.9535841670864718	-0.3010884348319487	-0.0047948610456730045	0.30103121963276863	0.9535619940066595	-0.009986410388668931
141														9.779496410215696	-0.06696088665501446	-0.07954771669534885	0.007565882052283479	0.008075157625221818	0.9999387727546617	0.9535874491694503	-0.30107821631689535	-0.0047837690096732	0.3010211524382832	0.9535652570688409	-0.009978291234642056
142														9.758243001020215	-0.0674772302987812	-0.09187933143300821	0.00755823288670443	0.008081402710608754	0.999938780148995	0.9535865937105662	-0.30108107185555444	-0.004774564460822084	0.3010240545390193	0.9535643025515059	-0.009981958142075642
143														9.792138335149703	-0.044981590182881497	-0.10253069806212112	0.007555546915755829	0.008073084510208772	0.9999388676400645	0.9535842303034439	-0.3010885593068551	-0.004774428877945935	0.30103160868485546	0.9535620088704315	-0.009973254814482357
144														9.75887753997012	-0.04417645263598184	-0.09376490816732616	0.007546246990269012	0.00810551743407234	0.9999386754913966	0.9535804768960441	-0.3011007434455635	-0.004755668117356282	0.30104373143959556	0.9535578864881017	-0.010001443759265816
145														9.792124540213946	-0.046014021417545535	-0.1033864641931197	0.007543556677531982	0.008097203141294806	0.9999387631519949	0.9535781129290803	-0.3011082322079023	-0.004755527231129153	0.3010512868188191	0.9535555924003176	-0.009992742707211122
146														9.780115343599352	-0.045353386043501635	-0.08234913743362357	0.007547629876210882	0.008070892151432862	0.9999389451277174	0.9535759735025054	-0.30111482186976773	-0.004767264319049724	0.30105796126659956	0.9535537345898335	-0.00996891206605044
147														9.780763616579746	-0.021626456634276425	-0.0837537794641035	0.007545597417938754	0.008076533923800311	0.9999389149139983	0.9535841832737513	-0.3010888750484927	-0.004763898840859981	0.3010320072180684	0.953561879964699	-0.009973550443545809
148														9.759509176779199	-0.022265279438796425	-0.09614588337435155	0.007554893140660268	0.00807615762899927	0.9999388477639944	0.9535872235084081	-0.3010791022828237	-0.004772979163419455	0.3010221432904209	0.9535649688650064	-0.00997594117468631
149														9.801348348956248	-0.04724215452704682	-0.07131224099135275	0.007545971113589067	0.008083263756115733	0.9999388577143113	0.9535867377779594	-0.3010808095902837	-0.004762313560487286	0.30102390578480964	0.9535643695857707	-0.009980040207817564
150														9.746841092534138	-0.046470796583977056	-0.07443720310435217	0.0075446243334865715	0.008073408446744701	0.9999389474961553	0.9535832226138747	-0.3010919178534858	-0.004763879999294229	0.3010350746889878	0.9535609456554741	-0.009970292254178448
151														9.791428503878548	-0.07408584892214558	-0.1039971616021151	0.007535699004028229	0.00808051910055474	0.9999389573626916	0.9535827357226079	-0.30109362850838595	-0.00475320980408811	0.3010368405566141	0.9535603452759139	-0.00997439446643561
152														9.758829704561931	-0.048970979210940395	-0.09632706339433142	0.00754495532964955	0.008081183769120204	0.9999388821912885	0.9535853516248229	-0.3010852059409027	-0.004761925040069337	0.3010283222815366	0.9535629990894225	-0.009977772895263748
153														9.779412866900184	-0.07389971720958989	-0.0835730520811114	0.007529807835491009	0.008103717095543417	0.9999388140097356	0.9535867424011037	-0.3010811354335084	-0.0047407386471828294	0.30102429588126617	0.9535640931029782	-0.009994680279185153
154														9.77940569656722	-0.07436058819398647	-0.08400219259629992	0.007521925172177979	0.008108972033652295	0.9999388307362911	0.9535859946639869	-0.3010836472122433	-0.004731613051351835	0.3010268616293212	0.9535632553501264	-0.009997330827309747
155														9.758811199474845	-0.05045282378628981	-0.09743056045771992	0.007497694341323413	0.008094734104709567	0.9999391280769736	0.9535843414960588	-0.3010891791351327	-0.004712733947483505	0.3010327029295852	0.9535616296220742	-0.009976486325460387
156														9.770801714698413	-0.052412760267269806	-0.11889346448227263	0.00751797295438611	0.008090947216939925	0.9999390064677897	0.9535800473103535	-0.301102459946861	-0.00473307358207653	0.30104579959574507	0.9535574682142037	-0.00997904598029481
157														9.758797058797896	-0.05176146066335713	-0.09815797650095165	0.00752433234703398	0.00811943300879836	0.9999387277380284	0.9535807203653384	-0.3011003675254444	-0.004730583850278358	0.3010435087661808	0.9535578868027141	-0.010008114012563574
158														9.79270725837235	-0.029304337399962063	-0.10890243915861846	0.007510961323723198	0.008099956947626219	0.9999389862173793	0.9535750425868651	-0.30111845947728677	-0.0047235069052596335	0.30106182689848265	0.9535523394441818	-0.009985605894277438
159														9.768045369299756	-0.05165127146878082	-0.06552663998593981	0.0075297472404413646	0.008097613342478438	0.9999388639135149	0.9535719581493094	-0.3011279359349335	-0.004742028137659726	0.3010711270410811	0.9535493667648898	-0.009989074255949026
160														9.75877625439202	-0.053686503846556634	-0.0991868771505476	0.0075330835306208765	0.00811330356302653	0.9999387116007736	0.9535759138545304	-0.3011154314714559	-0.004740616653620688	0.3010585145266919	0.9535531821744677	-0.010004978557125677
161														9.758769197838172	-0.05428722992512883	-0.09955344314691401	0.007530351880192743	0.008105023793651078	0.9999387993221711	0.9535735437339578	-0.3011229400982498	-0.004740425850923824	0.3010660899058921	0.9535508814614407	-0.009996297959097844
162														9.771429532351608	-0.03196732933608248	-0.12213417717415657	0.007542021144160138	0.008077594472189475	0.9999389333277331	0.9535770665343359	-0.3011114764015266	-0.004759932674342993	0.301054639719823	0.9535547342690069	-0.009973597963213954
163														9.768022505990999	-0.05418805884011974	-0.06687214379349224	0.007520640517102162	0.008115576728688845	0.9999387868167602	0.9535803270979863	-0.3011016502695014	-0.004728210727217297	0.3010448467220635	0.9535575145838578	-0.01000333158231509
164														9.768016357142438	-0.054684893234648146	-0.06736413840625144	0.00752989617080968	0.00811648089835143	0.9999387098224992	0.9535830925861681	-0.30109275598446456	-0.004736858397725585	0.3010358553353026	0.9535603153610721	-0.010006936146312428
165														9.801256018274872	-0.05670807275816981	-0.07688547629928567	0.007527155070751412	0.008108209211710737	0.9999387975670916	0.9535807210427958	-0.30110026992124905	-0.004736655872407236	0.30104343605540296	0.9535580131259613	-0.009998260410011284
166														9.768685303444585	-0.03152450216812045	-0.06921300346756193	0.007523368167239308	0.008124298712492817	0.9999386954718028	0.9535761882916622	-0.301114759987113	-0.004728048333927426	0.30105788821182683	0.9535533006016674	-0.010012534998774636
167														9.77998479443263	-0.05786638618033189	-0.08968474232085502	0.007531701760348453	0.008125997190756629	0.9999386189353072	0.953578742647744	-0.3011065524754052	-0.004735570369448494	0.3010495890031095	0.9535558778729395	-0.01001662293525224
168														9.758718630729414	-0.058456281133811454	-0.1021166149983822	0.007527840900501903	0.008143035732508574	0.9999385093996709	0.9535745149190005	-0.3011200816873817	-0.004726616292600572	0.3010630766274231	0.9535514602650681	-0.010031775415483724
169														9.779970273630987	-0.05907135462031427	-0.09047909311253353	0.007531952369347894	0.008133346022930144	0.999938557300386	0.9535808346944837	-0.30109995700474534	-0.004733666138659498	0.30104295606587056	0.9535578978615886	-0.010023673423977253
170														9.759392782971625	-0.03537761227491154	-0.10373075442007829	0.0075276753536047125	0.0080849865896786	0.9999389816861906	0.9535844586982112	-0.30108831269799124	-0.004744268744129865	0.3010315834476686	0.9535619858973625	-0.009976212631456038
171														9.80190805979996	-0.035983979657942984	-0.07984442035683563	0.00751184331152821	0.008093572204883492	0.999939031290922	0.9535752680743385	-0.3011177019214593	-0.004726278291939279	0.3010610906892765	0.9535526328832109	-0.009979779280112233
172														9.770675457831544	-0.06216395128887098	-0.12444132510198608	0.00751316702747723	0.008136215814813275	0.9999386752763553	0.9535771520488593	-0.3011119162529843	-0.004714762013360352	0.30105509032667777	0.953554096988037	-0.010020813625916947
173														9.77994370388871	-0.06134726682956808	-0.09182652453380699	0.007515270507322591	0.008153358099577901	0.9999385198405463	0.953581578092906	-0.3010979463528084	-0.004711753809881258	0.3010410181869664	0.9535583618498775	-0.010037724599392728
174														9.780627759398484	-0.037521823785935104	-0.093445495027033	0.007507211410516024	0.008158742389269169	0.999938536460848	0.9535809579297049	-0.3011000562474191	-0.004702425083591755	0.3010431836974614	0.9535576495684076	-0.01004044316102859
175														9.770648308380078	-0.06381688902782415	-0.1257295044924543	0.0075002270714152885	0.008139098628316854	0.9999387489578527	0.9535823500036025	-0.3010956584621397	-0.004701724881088276	0.3010389482367425	0.953559206095127	-0.010019586605584774
176														9.758662567983013	-0.06308702415194133	-0.10468604275621671	0.007505291711501827	0.008127625001927596	0.9999388042816191	0.9535884081274346	-0.3010763388069414	-0.004710211841724377	0.30101963138857135	0.9535654041136542	-0.010010074737621943
177														9.76793823699655	-0.06241549205787382	-0.07182500727206745	0.007517813959243502	0.008140745904692492	0.9999386034799286	0.953587189360063	-0.30108007442084755	-0.004718164379574785	0.3010231797746644	0.9535641127070862	-0.010026374992881282
178														9.759341889363883	-0.04000873309822331	-0.10679108184397385	0.007517595826596668	0.00816963224177597	0.999938369531854	0.9535805141970821	-0.30110135822665596	-0.004709035749718649	0.3010443301187004	0.9535571452110763	-0.010053960427901132
179														9.768622023042747	-0.03919795449903098	-0.07405458077529281	0.007515461034444115	0.00817540736601452	0.999938338378842	0.9535887027069748	-0.3010754789376159	-0.004705534200714678	0.3010184444765281	0.9535652671405797	-0.010058697134641137
180														9.759329191356747	-0.04112074200132435	-0.10752645660200925	0.007502754564092051	0.008155063096783433	0.9999385999249353	0.953580694466718	-0.301100939837471	-0.004699273280497018	0.3010441293470512	0.95355740203455	-0.010035597181868638
181														9.79057873366348	-0.015970497267979385	-0.06386759927694496	0.007509054543604177	0.008183622457512807	0.9999383193094136	0.9535813467680686	-0.3010989140890491	-0.00469670420533197	0.3010419060460821	0.9535577970201223	-0.01006471789339114
182														9.737346716399522	-0.06653671023312137	-0.11923900838436839	0.007494496812811946	0.008204256493171691	0.9999382594405104	0.9535825901627027	-0.30109528841755806	-0.004676647446494042	0.3010383302108122	0.9535587645594488	-0.010079993836515921
183														9.79324977154998	-0.019737373020026684	-0.11924876631686561	0.0074917079291015876	0.008196021449171531	0.9999383478718624	0.9535802127230011	-0.3011028218109346	-0.0046763875639680985	0.30104593040840283	0.9535564566033294	-0.010071338274619146
184														9.780568109419095	-0.04314463554614002	-0.09718695785342416	0.007460098023325812	0.008223194137511158	0.9999383611081532	0.953578600316196	-0.30110852189461507	-0.004638001880602538	0.3010518227091255	0.9535544227366453	-0.010087761044768828
185														9.78056335665913	-0.043670324451103394	-0.09743032256975784	0.007469724543265721	0.008184106883823317	0.9999386099205105	0.9535724771833018	-0.3011275922480662	-0.004658749336964474	0.30107097829872287	0.9535487368673914	-0.010053479241210195
186														9.755910047197009	-0.06595701643096637	-0.05394710366699723	0.007468376582805858	0.008188935019667165	0.9999385804610508	0.9535806911009943	-0.30110161835782745	-0.004656284103008501	0.30104499482729835	0.9535568974977535	-0.010057550591023867
187														9.779843121537747	-0.06925802863211672	-0.09677949559713342	0.007452522850127208	0.008197538519881808	0.9999386282494462	0.9535714924426408	-0.301131026797853	-0.004638264803382253	0.30107452350520103	0.9535475368653031	-0.010061124898853024
188														9.767867206911365	-0.06847758523987989	-0.07584835413945445	0.007468226230946229	0.008182716881263818	0.9999386324877166	0.9535717380378244	-0.30112994888272127	-0.004657714183258721	0.30107335653040884	0.9535480045757168	-0.010051714141507684
189														9.767860255338254	-0.06912822440808365	-0.0761526170523452	0.007459217439239718	0.008189927966096355	0.9999386406950704	0.9535712296535717	-0.3011317253119814	-0.004646933139765275	0.30107519003094596	0.9535473816704341	-0.010055886698360106
190														9.780534173527306	-0.04666542877973124	-0.09895925381394725	0.007451156705878259	0.008195418595842219	0.9999386558073369	0.9535707771000124	-0.30113330262002336	-0.0046375763105734324	0.3010768229615548	0.9535468363783692	-0.010058703106277544
191														9.756595899465843	-0.04445912038829177	-0.056799604459083844	0.007455196204753989	0.008185810725742981	0.9999387043975803	0.9535770875960213	-0.3011132118043068	-0.004644533214996915	0.30105673561878515	0.9535532634203805	-0.010050659625311043
192														9.789825691193753	-0.04673297162506942	-0.06616705754303552	0.007483225751943157	0.008139979283989796	0.9999388691663114	0.9535737924233284	-0.3011230206421208	-0.004684959205343009	0.3010664772699483	0.9535505582697863	-0.01001544245865349
193														9.78051920703748	-0.0485916223701094	-0.09950971220817013	0.0074181615854851946	0.008152134005455225	0.999939254949944	0.953567897332531	-0.3011427063607268	-0.004619045632284158	0.3010867583529832	0.9535442376297465	-0.010007538538429173
194														9.75852394453972	-0.07339295626255651	-0.11071682435402203	0.007459967685665869	0.008167803225772041	0.9999388160645599	0.9535741067738979	-0.30112249896243537	-0.004654407479009748	0.3010660588184782	0.9535504850867011	-0.010034969777007297
195														9.780505258525482	-0.04974223313242381	-0.10030901034148187	0.007435655819921394	0.008153652968613145	0.9999391126292618	0.9535724423309353	-0.30112806256159863	-0.004635424998136961	0.3010719320188169	0.9535488492369784	-0.010014183406127086
196														9.780499238845888	-0.0503054724934634	-0.10061481459981624	0.0074491702688948	0.008166260631466749	0.9999389091587566	0.9535716965731069	-0.301130284390078	-0.004644493281016626	0.3010739599450468	0.9535480396972404	-0.010030285766548352
197														9.756567800725612	-0.04817266884458169	-0.05857050809559526	0.007457419082669725	0.008168059049464216	0.9999388329852932	0.9535742340241591	-0.301122134682521	-0.0046519038554379	0.30106571891509665	0.9535505979315447	-0.010034444604952564
198														9.789069148145588	-0.07464492629315489	-0.06691436817888258	0.0074552107858349426	0.008158012298445538	0.9999389314690561	0.9535720613450811	-0.30112900181238145	-0.004652750753259993	0.3010726551087494	0.953548515337745	-0.010024232786146614
199														9.769245190330267	-0.02642454847626047	-0.08163279238339603	0.007446183221836988	0.0081652517501698	0.9999389396454583	0.9535715467108559	-0.30113079827145184	-0.004641943113015801	0.3010745084840181	0.9535478860530575	-0.01002842683836025
200														9.768512362591805	-0.051448017811661785	-0.08072255099406925	0.00746193863103467	0.008149322953352356	0.9999389521402143	0.9535713561678995	-0.3011310955060289	-0.004661760981992724	0.30107472190135953	0.953547928451812	-0.010017982695040673
201														9.771152965646744	-0.054807188587783634	-0.13542388291430388	0.007431411535496035	0.008150621636286048	0.9999391688945547	0.9535715595284111	-0.3011309067868088	-0.004632260388709564	0.30107483285911596	0.9535479769496116	-0.010010028679229122
202														9.768502035839385	-0.052533814089214446	-0.08127101864622979	0.00744447621608918	0.008148361385782676	0.9999390901352916	0.9535593278600286	-0.3011694411299942	-0.004644995218232861	0.30111324784040727	0.9535358262468032	-0.010011994747692599
203														9.77971869421736	-0.07898590552402374	-0.10177400984624722	0.007450734300749107	0.008176991006505763	0.9999388098161103	0.9535599609571845	-0.30116747721545295	-0.004642362223280017	0.3011110881679918	0.9535362014552773	-0.010041170077670136
204														9.738631970940215	-0.030810501747826576	-0.12847592723967868	0.0074501296809865725	0.00814156126703186	0.9999391034197391	0.9535606790253246	-0.3011650475127192	-0.0046524803517580815	0.301108829137404	0.9535372720228596	-0.010007191349467481
205														9.768483903302192	-0.05445011938416033	-0.08218388983635662	0.007436862079866269	0.008137444342564915	0.9999392356948381	0.9535639313771502	-0.3011549240510726	-0.004641174026746908	0.3010988572860397	0.9535405044985581	-0.009999221053499374
206														9.767740255801414	-0.07942147068627343	-0.08132928265161556	0.007449665703388342	0.008148962668408422	0.9999390465865097	0.9535632726984535	-0.3011568751299039	-0.004649894902830964	0.3011006267703933	0.953539789924585	-0.010014069555179916
207														9.781162944198273	-0.03270696750521131	-0.105441948291669	0.007440621333630049	0.008156227301868213	0.99993905469802	0.9535627531002999	-0.3011586873903715	-0.004639063384503872	0.30110249592779276	0.953539155444342	-0.010018282315086113
208														9.780417383286377	-0.057590865568325135	-0.10458688530786295	0.007432381963977275	0.008162474182660973	0.9999390650002423	0.9535623941806419	-0.3011599738998793	-0.004629311515322587	0.3011038360812154	0.9535386956677958	-0.010021764382341147
209														9.781151208493364	-0.03399539976692125	-0.10612117095814737	0.007470890285625309	0.008142088103869016	0.9999389442359214	0.9535747962740313	-0.30112003386319375	-0.00467259212522908	0.3010636040926898	0.9535514834593558	-0.010013724740687846
210														9.777774406628799	-0.05642361427514186	-0.05062276086158391	0.007475114635402902	0.008116911217478373	0.9999391173533897	0.9535706818369859	-0.3011328847244295	-0.004684066448081614	0.3010765308059301	0.9535476398638045	-0.009991051397865824
211														9.77851496128497	-0.03266408132492	-0.05209423597134265	0.007466061639746502	0.008124188988225867	0.9999391258856087	0.9535701595369225	-0.301134707115321	-0.0046732227957057	0.30107840966153643	0.9535470023673996	-0.009995274474800642
212														9.76843773381198	-0.05899114363851291	-0.08450495298253347	0.007473235070691364	0.008137374257302377	0.999938965086257	0.9535600355095206	-0.30116672454381577	-0.004675757332365915	0.30111029447141113	0.9535367780886829	-0.010010164613733608
213														9.759851082397146	-0.03671562249707363	-0.11931026464847544	0.0074876396565727865	0.00812379582379591	0.9999389677344249	0.9535606943113732	-0.3011643609601702	-0.004693607553333257	0.3011078503074699	0.9535376403838846	-0.010001542598454372
214														9.789700160347858	-0.060435491729607806	-0.073262553878349	0.007490221847605505	0.00813967725962228	0.999938819243849	0.9535651561522618	-0.30115026714952375	-0.004691435610058803	0.30109365577671426	0.9535419562084722	-0.010017394927516354
215														9.793061593299306	-0.039446530143151755	-0.1293812889696392	0.007481160900228656	0.008146968914036712	0.9999388276935242	0.9535646316173021	-0.30115209695358314	-0.004680579987492051	0.3010955422455546	0.9535413160414047	-0.010021628704062036
216														9.756461866529651	-0.0600388666909797	-0.06491187513562197	0.007487925853270405	0.00817424479650447	0.9999385544564339	0.9535656543003652	-0.3011488855790312	-0.004678851699294828	0.30109213524290585	0.9535420968350136	-0.010049659613800999
217														9.768400128571848	-0.062119277371381516	-0.0865847409496844	0.007491881894523156	0.008164751777344825	0.9999386023822127	0.9535719504280742	-0.3011288422415642	-0.004685693871076924	0.30107209612064156	0.9535485080470052	-0.0100416999981921
218														9.778484258457931	-0.036949494040730016	-0.05491758984380725	0.007483472072875086	0.008170422498069985	0.9999386190371574	0.9535712875990959	-0.30113109275692834	-0.004675942858988591	0.30107440461177826	0.9535477487631236	-0.010044586424634017
219														9.780332040612729	-0.06463504163815008	-0.10838259125427753	0.007459111586985145	0.008156338466966062	0.9999389160329468	0.9535696162556035	-0.3011366804175919	-0.0046568939448610736	0.30108030259130775	0.953546104732165	-0.010023848644164723
220														9.779566318176348	-0.08962239497198292	-0.1074473243900166	0.007483400477532376	0.008163175796571387	0.9999386787589565	0.9535615686319208	-0.3011618396197049	-0.004677732902409026	0.30110518684593257	0.9535381004017563	-0.010037805372021313
221														9.768373297200617	-0.06449091422580706	-0.08786829956842299	0.007481145465283723	0.008169138555923161	0.9999386469367917	0.9535697295162423	-0.3011360558415774	-0.004674058461252462	0.30107939719092053	0.9535461924036155	-0.010042685881745061
222														9.801588581144792	-0.06659741778697263	-0.09745599058623358	0.007478363196355531	0.008158742384725692	0.9999387526276813	0.953567670068752	-0.301142570816233	-0.0046744670115344	0.3010859888529442	0.9535442239166938	-0.01003196648494209
223														9.768360048254198	-0.06564851600082793	-0.0884817656487835	0.007469282716294434	0.008166054531576095	0.9999387608094268	0.9535671409935411	-0.3011444148226322	-0.0046635864459873	0.30108788988119217	0.9535435789593061	-0.010036214045615721
224														9.778459213532912	-0.04052805329740555	-0.0568199768731928	0.0074851723697128	0.008150158870449231	0.9999387716780379	0.9535674672358646	-0.30114307211830965	-0.0046835397431908565	0.3010864620403501	0.9535441390022457	-0.010025834154414603
225														9.75900027549556	-0.06833830685740064	-0.122485337919612	0.007485178942678972	0.00819430854012837	0.9999384108052585	0.9535699452231838	-0.30113543059503906	-0.004670332685725254	0.3010786137593486	0.953546173894002	-0.01006789892973664
226														9.769870515379305	-0.018797909857118548	-0.0921932140059608	0.007489881642546825	0.00816863960075287	0.9999385856141634	0.9535650418095961	-0.30115077006644186	-0.00468238476124655	0.3010940263632673	0.9535415497058648	-0.010044912786778881
227														9.780264651248277	-0.06965340428268052	-0.11131530791641328	0.0074960818932538476	0.008197352801399882	0.9999383041784626	0.9535656524645223	-0.30114887865658824	-0.004679671333541524	0.3010919381121988	0.9535419006477531	-0.010074150729020126
228														9.757153885292675	-0.04294371994472232	-0.0706203213701991	0.00749947494058445	0.008211801854686951	0.9999381601808757	0.9535687665807933	-0.301139033569502	-0.004678660322220085	0.30108199095462335	0.9535448855565875	-0.010088902401866107
229														9.74779812559677	-0.04489425419149785	-0.10425822968728893	0.007490381737484064	0.008219127041957264	0.9999381681544592	0.9535682347827314	-0.30114088662489275	-0.004667763502995692	0.301083901586872	0.9535442372294232	-0.010093158662439039
230														9.780237630337583	-0.07135425491577549	-0.11260454387277484	0.0074887314920896175	0.008209254365237229	0.9999382616158894	0.9535654842210808	-0.3011495759276007	-0.004669070661561081	0.3010926538506973	0.953541578045443	-0.010083289926959949
231														9.781778396878611	-0.023177435063720057	-0.11541039959516948	0.007479635090949899	0.00821658483544463	0.9999382694909467	0.9535649512004072	-0.3011514325095266	-0.004658169128119727	0.30109456803647644	0.9535409285558241	-0.010087550139932788
232														9.778419104348682	-0.04532092892753111	-0.06001213782600463	0.00749601640420311	0.008202280339802914	0.9999382642619968	0.9535657442474577	-0.3011486120121897	-0.004678127929378828	0.3010916490636363	0.9535419424862017	-0.010078828492496805
233														9.758925356379882	-0.07310893507509018	-0.12565876606485654	0.007489201556964364	0.008247785136302255	0.9999379410245337	0.9535595263883796	-0.3011686161098763	-0.004657714507204702	0.3011115100656363	0.9535352320238655	-0.010120266557004376
234														9.79033819475539	-0.04785531828702312	-0.08218229492388802	0.007473459624539325	0.008230757986672943	0.9999381991024272	0.9535660818800452	-0.3011480086820936	-0.004648048488198386	0.301091140502638	0.9535418876429995	-0.010099189128150665
235														9.778404658612166	-0.04685061589942575	-0.06117962108755786	0.007457552749893515	0.008239424627337788	0.9999382464876485	0.9535568585334167	-0.30117749092473634	-0.0046299572527329635	0.3011207439730188	0.9535325011986173	-0.010102806889418836
236														9.768258559989253	-0.0731980728087088	-0.09361393221827881	0.007474718799221569	0.008262899623203257	0.9999379246076675	0.9535521345336093	-0.3011923064676786	-0.004639100244380412	0.30113527741742574	0.9535276183805569	-0.010130433368477298
237														9.780958395060978	-0.05091010980629291	-0.11660757222586776	0.007465612929471954	0.0082702510393034	0.9999379318594406	0.9535515981255878	-0.30119417264351545	-0.004628182983259788	0.3011372018461447	0.953526965173684	-0.010134710204996566
238														9.780951310398342	-0.05142146622711202	-0.11697686746316517	0.007457260226038376	0.008276041547119084	0.999937946277784	0.9535511447759681	-0.30119575719325553	-0.004618457017532718	0.3011388443332452	0.9535264144139336	-0.010137724031837714
239														9.769019104246885	-0.050452014525365685	-0.09609419012192263	0.007448149699872342	0.008283398447345214	0.9999379532632067	0.953550607198858	-0.3011976263930546	-0.0046075336004375855	0.30114077202653505	0.9535257600953173	-0.01014200462975784
240														9.769014123423764	-0.05106197428652121	-0.09627823444914982	0.00744798733751989	0.008247457962668181	0.9999382515544517	0.9535504106006283	-0.3011980854696569	-0.004618198002041107	0.301141398562192	0.9535259266252633	-0.010107686453376896
241														9.791084366366235	-0.027469896123728018	-0.08595054168029613	0.007468839062170718	0.008283482075901294	0.9999377982493518	0.9535415959816227	-0.3012258557656775	-0.004626937546054644	0.30116879183587936	0.9535168418769191	-0.010148452157018595
242														9.76899817158806	-0.05237393270415469	-0.09718772022866529	0.007460088488888017	0.00828962776605685	0.9999378126419853	0.9535417068543897	-0.30122566119766614	-0.004616744009178608	0.30116865768030276	0.9535168499337225	-0.010151675896891699
243														9.768990790023146	-0.053061217215132524	-0.09755639697776373	0.007485440052789338	0.00828618628105271	0.9999376517084111	0.9535472677901625	-0.3012076668288311	-0.004642147503885641	0.30115042134642955	0.9535225642639231	-0.010155942222185854
244														9.757062765598945	-0.05225937764855442	-0.07667114174969175	0.007477530509524877	0.008292107535224025	0.9999376618020268	0.9535469561069376	-0.30120879730703265	-0.0046328095197258334	0.30115160473866687	0.9535221556825391	-0.010159211871524854
245														9.768976819836759	-0.05425823891705429	-0.09829392289341259	0.007468405858817695	0.008299486022131264	0.9999376687802579	0.9535464149246334	-0.3012106786619142	-0.00462186590114555	0.30115354472147104	0.9535214971838851	-0.010163508739377436
246														9.778343205634995	-0.05335313373981732	-0.06552254991619667	0.0074639258250618346	0.008316006385938601	0.9999375649754673	0.9535418534724194	-0.30122526266343075	-0.004612462436700382	0.30116809838968794	0.9535167461409033	-0.010177983159891046
247														9.768962419444415	-0.055282606947566565	-0.09915058812514728	0.007454795370058387	0.008323389354339239	0.9999375716591742	0.953541311353814	-0.30122714623825564	-0.004601511795549018	0.3011700409530115	0.9535160866806663	-0.010182282334957937
248														9.75957960601359	-0.057157829546481895	-0.13272148037496814	0.0074356617002279135	0.008332053848751686	0.999937641962608	0.9535459679769428	-0.30121272073427063	-0.004580810274744385	0.30115577014228817	0.9535205680773329	-0.010184712243629213
249														9.768948504054388	-0.05628575781763195	-0.0999541075323092	0.00744800276359725	0.008345387480855948	0.9999374389243696	0.9535446996095902	-0.30121661859771853	-0.004588521222857911	0.3011594811744924	0.9535192201462698	-0.010201162206315562
250														9.777521007916608	-0.07993091442930575	-0.0656705601346808	0.0074434596867981595	0.008298613474672367	0.999937862030581	0.9535485572403051	-0.3012042556574608	-0.004598408286348554	0.30114737902366673	0.9535235337359185	-0.010155132640347064
251														9.779118892769956	-0.03176693126944475	-0.06833158326189334	0.007427527227747588	0.008307306226857214	0.9999379083235789	0.9535393241891232	-0.30123376012037495	-0.004580282599380203	0.30117700620105586	0.9535141375076688	-0.010158765120600377
252														9.747637016875407	-0.05803864675019723	-0.11250637132744046	0.007432418241267391	0.00829592903255133	0.9999379664362055	0.9535457819933304	-0.3012131910491614	-0.004588592454101426	0.30115643908410006	0.9535207344884895	-0.010149290552369516
253														9.76892508987177	-0.05876471188098502	-0.10081199612653818	0.007429465057449847	0.00828787299950351	0.9999380551864723	0.9535433756368756	-0.30122081588068556	-0.004588121533563916	0.3011641310448387	0.9535183958588941	-0.010140755922958378
254														9.745093666106847	-0.05627895158543375	-0.05854124694868361	0.0074103480124645404	0.008283945151545624	0.9999382295897387	0.9535378675097308	-0.30123851384236966	-0.004570886460639079	0.30118204124304915	0.9535128389438535	-0.010131337616701985
255														9.791015822584935	-0.03547394778077623	-0.09069657568775816	0.007401201356005305	0.008291348831693524	0.9999382359691218	0.9535373202000097	-0.3012404125778431	-0.004559914003049059	0.3011839989180571	0.9535121747332238	-0.0101356514958712
256														9.793535478070172	-0.03886827084944823	-0.14564372620320806	0.007391173157387465	0.00832454046094211	0.9999380343728665	0.9535353605520951	-0.3012469120110813	-0.004540284195319821	0.3011904492777684	0.9535098321621557	-0.010164311779657098
257														9.756987809681837	-0.05922454264313942	-0.08102256964763291	0.007388211477190432	0.00831649594415479	0.9999381231988203	0.9535329526696263	-0.30125454083273373	-0.0045398018462156076	0.30119814492176483	0.9535074921168001	-0.010155785189631061
258														9.768891066932188	-0.06129401596506022	-0.10258715454622919	0.007379916551165933	0.00832158806090233	0.9999381420887206	0.9535322332451274	-0.30125696050469064	-0.004530332221285016	0.3012006258198309	0.9535066832065835	-0.010158153676840642
259														9.769694376560281	-0.037476420152464794	-0.10435593182993623	0.007386046083523834	0.00835040775303475	0.999937856575903	0.9535328173692841	-0.3012551539889179	-0.004527515313035302	0.3011986263631501	0.9535070020117693	-0.01018747228119471
260														9.814800583316194	-0.04113244977060036	-0.13531403082556592	0.00736925659786597	0.008333103485389848	0.9999381248074789	0.9535397720452089	-0.3012332987672952	-0.004516950491779803	0.30117701968305377	0.9535140581554505	-0.010165811072325615
261														9.76886980561319	-0.06289022682670771	-0.10364020480756694	0.007355845913422476	0.008329176322434406	0.9999382562702002	0.9535429989521698	-0.30122325616076934	-0.004505451942541372	0.3011671308097897	0.9535172650611493	-0.010157979627153535
262														9.759469679832257	-0.06483153002653556	-0.1372025972004015	0.007351062533053954	0.008345873313987118	0.9999381522265578	0.9535386288709558	-0.30123723511791395	-0.004495712336561153	0.3011810836200269	0.9535127028923853	-0.010172526349186028
263														9.781575706291699	-0.04101215788752948	-0.12704355802347617	0.00733570763210456	0.008368753587772337	0.9999380737610324	0.953539935054262	-0.30123342049184043	-0.004474218982149891	0.30117732260289864	0.9535137074747135	-0.010189701054316547
264														9.768846865257807	-0.06449122311795055	-0.10481217879888999	0.007353988031174874	0.008342074903348151	0.9999381624112289	0.9535532427430238	-0.3011909062230068	-0.004500140312126644	0.3011347407960467	0.9535273712877212	-0.01016956689475551
265														9.781560563647034	-0.04228293986122887	-0.12779076002659123	0.007347133358420133	0.008387649538368513	0.9999378315508599	0.9535469918936561	-0.301211000577835	-0.004479663096722264	0.3011547009129597	0.95352062403816	-0.010211055376638023
266														9.769649798857374	-0.04122370504396303	-0.1070805325235259	0.007338339183987741	0.00839244884055318	0.9999378558592923	0.9535453947819794	-0.3012162034071598	-0.004469775727571124	0.3011599722209096	0.9535189382531605	-0.010213007611167668
267														9.756920900596379	-0.06457428142504137	-0.08490005900989474	0.00732916205550993	0.00839988099388883	0.9999378607607837	0.9535448410855809	-0.30121811939257337	-0.004458765375699392	0.3011619488292606	0.9535182675486031	-0.010217339598539599
268														9.757737909705424	-0.04076736955043122	-0.08649449071505468	0.007326971598521637	0.008390239904980723	0.999937957756146	0.9535423662610156	-0.3012259428328452	-0.004459496586784684	0.30116983785322615	0.9535158809578376	-0.010207523140367047
269														9.777384940857178	-0.09015110088237868	-0.07235420118198438	0.007322043467216044	0.008409018566396975	0.9999378361109323	0.9535380330374305	-0.3012398147965377	-0.004448992296645304	0.30118367689928366	0.9535113331199044	-0.010224010041573806
270														9.76879870205933	-0.06787269865620095	-0.10714006373068978	0.007333961863458804	0.00838245403747273	0.9999379718100995	0.9535422049045665	-0.3012263201343969	-0.004468503555752068	0.3011701785853361	0.953515830242267	-0.010202206049538642
271														9.790922145152154	-0.044245271564122925	-0.09675231993407198	0.0073247776718219915	0.00838989589459993	0.9999379767160241	0.9535416488600316	-0.30122824358060063	-0.004457483442329158	0.30117216259367446	0.9535151571507523	-0.01020654507780211
272														9.779019347330202	-0.04336222120399779	-0.0757958714387491	0.007340569297174637	0.008374033412039461	0.9999379938810246	0.9535420341530775	-0.30122672949595575	-0.004477336304318624	0.3011705582317187	0.9535157749096681	-0.010196168535808348
273														9.757709770255634	-0.043973944783378405	-0.08808369237819176	0.007346077199056444	0.008388695908220944	0.9999378305328511	0.9535320631533668	-0.30125828376589164	-0.004477834399934211	0.30120199150780735	0.9535056770902777	-0.010211957125931592
274														9.769599590900581	-0.04606946640809605	-0.10965515757541147	0.007328459221425332	0.008370765477128506	0.9999381100702015	0.9535382434332556	-0.30123888762088125	-0.004466642492394979	0.3011828547504999	0.9535119626256718	-0.010189461913090003
275														9.79089885605746	-0.04663387624592859	-0.09797945696697313	0.007312493710776413	0.008379477946810376	0.9999381539800691	0.9535289975054653	-0.30126842177913876	-0.004448477821581032	0.30121251360451806	0.9535025549981739	-0.010193098645756793
276														9.778998591739398	-0.04560735405053352	-0.07714399418055608	0.0073163509936121085	0.008396780158559491	0.9999379806223523	0.9535337869859494	-0.3012532826769857	-0.004447106089926378	0.30119725776370077	0.9535071860029738	-0.010210688337122409
277														9.781471548455595	-0.049281054824636905	-0.13202694574894658	0.007334806482429956	0.008394723421178474	0.9999378626857507	0.9535306458368267	-0.30126295698486194	-0.004465221018186805	0.30120675301836997	0.9535041475355097	-0.010214331535226384
278														9.790878307129352	-0.0484519504292671	-0.09914372912300037	0.007315971345173922	0.008391120256266593	0.9999380309119772	0.9535253616634229	-0.3012799337894788	-0.004448163716247511	0.3012239386700795	0.9534988152046404	-0.010205301339597628
279														9.74410508948457	-0.09459454374376018	-0.06630164714311747	0.007335006526977772	0.008403275207889693	0.9999377893874344	0.9535327620190335	-0.30125629323928504	-0.004462907133084781	0.3012000488638769	0.9535061776147575	-0.010222515096188434
280														9.790865183697202	-0.04968190203969026	-0.09982865484323476	0.007318142577619091	0.008386371064231068	0.9999380548661934	0.9535397221745772	-0.3012344213061052	-0.004452151795043602	0.3011784239025827	0.9535132365105106	-0.010201214379044476
281														9.778127412796026	-0.07309483044163462	-0.0775697829114893	0.0073304034396876605	0.00839978899292887	0.9999378524339824	0.9535384332695245	-0.3012383886916828	-0.004459759672741981	0.3011822064188245	0.9535118650144381	-0.01021772055674347
282														9.75765651173585	-0.04933202126069939	-0.09109417095471685	0.0073352353985609575	0.008374695571136404	0.9999380274775729	0.9535338951888612	-0.30125257503020764	-0.004471774102938975	0.3011964559014702	0.9535076038038504	-0.010195314641235798
283														9.77895747279475	-0.050083594431993984	-0.07954290771542863	0.007341309504879989	0.008403584930761598	0.9999377405294122	0.9535344587506922	-0.3012508341252165	-0.004468882845503064	0.3011945237712318	0.9535078996522125	-0.010224683420435698
284														9.7686832270488	-0.07635585019229281	-0.11185496464278033	0.007311631496265292	0.008404617145702342	0.9999379493026042	0.9535350604350934	-0.3012493524841665	-0.004440287030557211	0.3011933408392459	0.9535083586621068	-0.010216721371813786
285														9.778947626655574	-0.051006542146992136	-0.08016429812447842	0.007304341841706807	0.008385299139250624	0.9999381647625041	0.9535364227823844	-0.3012450562674804	-0.004439200578519653	0.30118920468309157	0.9535098860697501	-0.010196085014303136
286														9.767906659970174	-0.025694917707118937	-0.06038823263250333	0.007302998321820353	0.008375857307156231	0.9999382537086389	0.9535341459076656	-0.30125224130283024	-0.004440686676682015	0.30119644553621583	0.9535076990378168	-0.010186710556302936
287														9.790821702846412	-0.05382091619343243	-0.10192554949870504	0.007310986841065015	0.008377962283907525	0.9999381776986911	0.9535366330410464	-0.301244264540138	-0.0044477556605663215	0.30118837779727575	0.9535102006951162	-0.010191086801941363
288														9.77893091854737	-0.05291162260409176	-0.08096370532411938	0.007309219322964244	0.008369005603262814	0.9999382656234841	0.9535341953324676	-0.3012519668421786	-0.004448685803979557	0.30119613816341073	0.9535078459136723	-0.01018204972076392
289														9.801089027561433	-0.029299146849085547	-0.07060912184227802	0.007312941612685198	0.008359788789358003	0.9999383155056951	0.9535404614150453	-0.3012320358468674	-0.004455224341653352	0.30117620976656223	0.9535142235493654	-0.01017428914955526
290														9.790800773286646	-0.05571954056191449	-0.10291102360792959	0.007313242494619399	0.00838882741383673	0.9999380701117626	0.9535328361946637	-0.3012563009977432	-0.004446505112837562	0.3012003432647052	0.953506302382831	-0.01020218277849183
291														9.757601873108419	-0.05455791891804331	-0.09392281556157972	0.00729549560802939	0.008373668674078627	0.999938326806594	0.9535398296315772	-0.3012343432573553	-0.004434382537999437	0.30117863312329557	0.953513372803574	-0.01018228042909386
292														9.781355445633588	-0.058374819923090224	-0.1368336488999406	0.007330258606588147	0.008390457742751878	0.9999379318375854	0.9535372069634689	-0.301242231438722	-0.004462391077241168	0.30118609238320965	0.9535107331418387	-0.010208797100840161
293														9.779757417519379	-0.031677861941358534	-0.08418549018992606	0.0073210298253597594	0.008397961347796579	0.9999379364578073	0.9535366378970592	-0.30124419668004043	-0.004451309309673912	0.3011881184745996	0.9535100462039185	-0.010213181577378494
294														9.769457709915102	-0.0580092163166255	-0.1164208382436695	0.007313182899904513	0.008404224544262984	0.9999379412571973	0.9535361932433235	-0.3012457426947826	-0.004441923378437407	0.3011897168412355	0.9535095025840479	-0.010216797493243168
295														9.757572451100096	-0.05700132858374923	-0.09551495374326928	0.0073143933322755705	0.008407591402303072	0.9999379041005458	0.9535299897678436	-0.3012653789521309	-0.004441853010251073	0.3012093263222712	0.9535032689255138	-0.01022046402286314
296														9.778878082649891	-0.057676822450512054	-0.08403276587646866	0.007311395762384432	0.008424428463627787	0.9999377843131377	0.9535259904114022	-0.30127815579029377	-0.004433785465516427	0.3012220594544174	0.9534990832972315	-0.010235675325974858
297														9.768568174113113	-0.08409811848708364	-0.1162630780347258	0.0073150922852757705	0.008415242486210617	0.9999378346271114	0.9535322537285431	-0.3012582362559343	-0.00444029135631735	0.3012021422968688	0.9535054581814737	-0.010227936933460136
298														9.737104947176148	-0.034381201798144474	-0.1097203294888306	0.007319046587691613	0.008389633371652383	0.9999380208837634	0.9535270717714561	-0.3012744705963545	-0.004451602614774286	0.30121845055706786	0.953500554493167	-0.010204784428084646
299														9.778858699889843	-0.059586640154238334	-0.0849508572587002	0.00731833649672653	0.008419801735422727	0.999937772508698	0.9535189348598201	-0.3013003707493208	-0.004441559423886132	0.3012442245333755	0.9534921045950291	-0.010233457882223074
300														9.769409967403814	-0.06161439687061148	-0.11855540727167622	0.0073162900713026335	0.008410098302445546	0.9999378691429464	0.9535167552545076	-0.301307255172942	-0.004442457547739587	0.3012511731902605	0.9534900147493373	-0.010223620924152577
301														9.769403127403788	-0.062225862631214844	-0.11879943600397695	0.007313223182138839	0.008402151097479438	0.9999379583872312	0.9535143306622307	-0.30131493695838446	-0.004441845058479943	0.3012589218404112	0.9534876572996109	-0.010215154861924758
302														9.779712006285438	-0.036959374083599096	-0.08725197987580224	0.007304645671475651	0.008408679927212226	0.9999379662026522	0.9535131204972747	-0.30131891653857035	-0.0044316560756034185	0.3012629602044774	0.9534863421349591	-0.010218814556086087
303														9.757517128704947	-0.06171269686506584	-0.09820087946279324	0.0072953964656445325	0.008416210576058736	0.9999379703711369	0.953512545764452	-0.3013208984483431	-0.004420546128845015	0.30126500337776213	0.9534856493717264	-0.010223217789632366
304														9.768503884639088	-0.08839492370624853	-0.11845674802268678	0.007328318614064411	0.0083949193209647	0.9999379086102727	0.953515440620828	-0.30131117908780886	-0.004458458745252025	0.3012550418564966	0.9534889085282059	-0.010212789517640819
305														9.758379491470563	-0.038838066689856926	-0.10007421793554817	0.007318494709722456	0.008388198981158557	0.9999380369568088	0.9535043272299211	-0.30134645988344916	-0.0044507380880359215	0.3012904538630444	0.9534778179032617	-0.01020358649865094
306														9.778812471094469	-0.06384485321697632	-0.08715020264796428	0.007310361894860673	0.00839405623568018	0.9999380472953707	0.9535034873637991	-0.30134925822619085	-0.004441188084123471	0.30129330924207426	0.9534768819360211	-0.010206734028230247
307														9.791552745881738	-0.041757059957516635	-0.11012484889533014	0.0073354812291806515	0.008390858231241582	0.9999378901778246	0.9535090163764919	-0.30133139214105464	-0.004466295900250161	0.30127520044615513	0.9534825565307825	-0.010211169749439308
308														9.769345895497395	-0.06668385504014707	-0.12106553662654686	0.007327523017392645	0.008397208892859886	0.9999378952161178	0.9535085751085326	-0.30133292938361944	-0.004456777264246148	0.30127679067748664	0.9534820148025325	-0.010214834662276295
309														9.758355904015016	-0.04134090571190457	-0.10136339854386159	0.007330610568202889	0.008373805850452165	0.9999380688444044	0.9535042968710765	-0.30134632081275775	-0.004466629714775627	0.3012902553968378	0.9534779883710971	-0.010193512383609327
310														9.779668358473494	-0.04211203183701818	-0.08977315924593506	0.0073335891790436425	0.00839032515809629	0.999937908529072	0.9535085478067662	-0.3013328994372152	-0.004464636177038517	0.3012767294850122	0.9534820848660467	-0.01021009844772558
311														9.758344124392863	-0.04258135450522756	-0.10198198366147453	0.007326228150038305	0.00837108406238668	0.9999381237520217	0.9535099028651011	-0.3013286290134124	-0.004463459989992757	0.3012726199296554	0.953483603576127	-0.010189513835492436
312														9.77965850785316	-0.0434344746620894	-0.09021515561774882	0.007343221971627956	0.008344638728452092	0.999938220139408	0.9535230838533753	-0.3012865507836079	-0.0044880815128260365	0.30123048592369384	0.9534971323089589	-0.010169219673466123
313														9.769306512285187	-0.07000601953112788	-0.12236123291741893	0.0073486637604334715	0.00835935453136688	0.9999380572479256	0.9535130855698368	-0.3013181856757292	-0.004488499546229152	0.3012620002390375	0.9534870068191315	-0.0101850399640106
314														9.770189755576865	-0.046277232030416705	-0.1239941456821893	0.007345852918390239	0.008335182542681174	0.9999382796837422	0.9534996357436841	-0.3013606821417992	-0.004492649072794563	0.3013046350150677	0.9534737877839169	-0.01016134476470304
315														9.779641629611024	-0.045414482175176206	-0.09106567451833335	0.007343316647062781	0.00834154425088246	0.9999382452632419	0.9535077399223202	-0.3013351000141501	-0.004488586380033022	0.3012790494024598	0.9534818174139308	-0.010166526062399206
316														9.76777575992714	-0.04444953537357444	-0.06991733681297338	0.007339205187602782	0.008295643624147808	0.9999386573005746	0.9535116089864464	-0.3013227072070792	-0.004498627510214626	0.30126690424819835	0.9534861343607774	-0.01012146167551603
317														9.791495828805038	-0.048314983683397865	-0.11247828613606146	0.007331827268284463	0.008276423957698564	0.9999388706892942	0.9535129608795505	-0.3013184471215844	-0.004497428037261553	0.3012628051114532	0.9534876476550234	-0.010100892320442811
318														9.746448771160216	-0.04557430952250933	-0.08194225538707091	0.007326066603442705	0.008254647683093419	0.9999390929150382	0.9535135948959534	-0.3013164245305444	-0.004498517169434224	0.30126093855114516	0.9534884755988171	-0.010078382981727918
319														9.75830500222012	-0.04792939020446549	-0.10334330757221738	0.007346306686999982	0.008225906211583034	0.9999391812730702	0.9535123642457108	-0.3013199007179942	-0.004526440306942714	0.30126434075179676	0.9534876254563012	-0.010057091681440755
320														9.80003884438744	-0.07349672327299446	-0.07826858669769372	0.007374521785060373	0.008179549944851372	0.9999393538565934	0.9535087676680173	-0.3013306666673725	-0.004567198924493643	0.301275034492838	0.9534846219465192	-0.010021442153839488
321														9.77871124494018	-0.07416472079990134	-0.09028096868208403	0.007371408332706664	0.00817165082543786	0.9999394413973178	0.9535063322657307	-0.3013383831208341	-0.004566529018403209	0.3012828184087951	0.9534822510046577	-0.010013009075420742
322														9.757384768727249	-0.07454847622179019	-0.10235902534414633	0.007347799803032351	0.008155332920365244	0.9999397483763774	0.9535037487533307	-0.30134682530612067	-0.004548845047713579	0.3012915713248551	0.9534797226070836	-0.009990376655528432
323														9.779606315789602	-0.05092899645760413	-0.09193690227008973	0.007357585348617801	0.008130767946502249	0.9999398764677992	0.9535081491304332	-0.30133264623243916	-0.0045657262741990445	0.3012774061885376	0.9534844135732663	-0.009969834158658486
324														9.766835161965492	-0.07432654145580175	-0.06937431608030811	0.00734015337632854	0.008099125271857965	0.9999402613747693	0.9535039918720598	-0.30134591015236767	-0.0045584995872948175	0.3012909883027671	0.9534804909405704	-0.009934473477236194
325														9.758277959694155	-0.052066601937440185	-0.10389363281317969	0.007338924529664115	0.008064442956132511	0.9999405507061684	0.9535034921911548	-0.30134735094016024	-0.0045677631966198895	0.30129259958721255	0.9534803295512474	-0.009901039987012694
326														9.758272727483996	-0.05267356855973047	-0.10407890801607429	0.007331778181980386	0.0080691943224101	0.9999405647995672	0.953502541021237	-0.3013504859249855	-0.00455948449051552	0.30129578373209004	0.953479298535507	-0.009903432208246188
327														9.790534135836053	-0.07940345772946691	-0.11230112475836589	0.0073305451718284065	0.008034513943714738	0.9999408530974083	0.953502041067849	-0.3013519275863795	-0.004568743746361792	0.3012973959179373	0.953479135757916	-0.009869999362109638
328														9.770119478028496	-0.05551268624142302	-0.12572873377752986	0.007322829621728366	0.008041635075737907	0.9999408523865995	0.9535019846579507	-0.30135225004549526	-0.004559237421524143	0.3012977620555447	0.9534789738100287	-0.009874466187818676
329														9.758257823605886	-0.054542870842975655	-0.10451266453749346	0.007323482082560284	0.007980176361580604	0.999941339977213	0.9535034228186112	-0.30134740859539205	-0.004578428336686091	0.30129319488395145	0.9534810203239914	-0.009816037822937607
330														9.779575289389076	-0.055340569142887	-0.0926844632969595	0.0073158614258124754	0.007985799595076504	0.9999413508683521	0.9535026361949013	-0.3013500339902214	-0.004569440169831629	0.301295869438948	0.9534801434843408	-0.00981911605536595
331														9.745471007009218	-0.07857636136525682	-0.08230842482401322	0.007334176927278502	0.007983866909384407	0.9999412321321549	0.9534994601456874	-0.3013598105007189	-0.00458738671283393	0.3013054751422245	0.9534770697212092	-0.009822838956956459
332														9.779561529905049	-0.056829316761749744	-0.093233968807075	0.007351329531828321	0.007942157778796421	0.999941438327231	0.9535012454185172	-0.3013537192101182	-0.00461637342143606	0.30129940746614714	0.953479343272861	-0.009788207828948459
333														9.78810151498154	-0.08041018866104363	-0.05876751915198582	0.007337186400242668	0.00792414868199931	0.999941685081382	0.9534939056729175	-0.30137706862612895	-0.004608074535770557	0.30132297877913955	0.9534721130552206	-0.00976688720520108
334														9.780474764360598	-0.03370527057609443	-0.09495488783585036	0.007334088887862411	0.007943343655281931	0.9999415555080003	0.9534904841671991	-0.30138802852878066	-0.004599224079736175	0.30133388084114554	0.9534684890184413	-0.009784309178748896
335														9.767690219144399	-0.05702352512084761	-0.07268832949198642	0.007337677254806385	0.007934300759772028	0.9999416009767557	0.9534967257219136	-0.3013681846549279	-0.004605574381428723	0.3013140430349934	0.9534748366628489	-0.009776672269200315
336														9.779535929970972	-0.059259136472164804	-0.09439914514860402	0.007338087975883201	0.00796306883550918	0.9999413692810091	0.9534885936798423	-0.3013940427854559	-0.004597031202355439	0.30133976536012447	0.9534664233774359	-0.009804351306712256
337														9.779529548706094	-0.05981813312903399	-0.0947070382202771	0.007326386366194204	0.00793259951707792	0.9999416972642531	0.9534937247936708	-0.30137783713644273	-0.004595221654247306	0.30132381393096874	0.953471799870275	-0.009771694337904646
338														9.780454666315277	-0.0361158918992565	-0.09613145345704878	0.007331725812022349	0.007908160394489272	0.9999418517072849	0.9534897743194459	-0.3013901470417731	-0.00460755188702805	0.30133618445993277	0.9534681118240476	-0.009750059990378923
339														9.757263012324527	-0.08542884915075057	-0.10541738916945995	0.007341465372009304	0.007883651372779854	0.9999419737800914	0.9534941673840116	-0.30137599103343465	-0.004624369501510628	0.3013220464069349	0.9534727893703356	-0.009729557003761491
340														9.74727156021549	-0.03575951146531609	-0.08698760016420166	0.007335841852963876	0.007863854873607912	0.9999421709333168	0.9534960697699442	-0.3013699619935428	-0.004625034192283717	0.3013161634522409	0.9534748585015427	-0.009708957095644732
341														9.770034671458765	-0.06401163298340744	-0.12825371024939916	0.007324132857115695	0.007833401673569551	0.9999424957946889	0.9535011983740762	-0.3013537632522696	-0.004623210236944619	0.30130021868078904	0.9534802290514026	-0.009676312882145433
342														9.747265504275475	-0.03690768479510836	-0.08718635426060908	0.00731238350696739	0.007828215469026178	0.9999426223989146	0.9535043052381416	-0.30134407902689736	-0.004613667495681151	0.30129067184328273	0.9534833323545842	-0.009667780625446876
343														9.758173402755121	-0.06352125825577332	-0.10728676472580781	0.007315389932590566	0.007804879004519816	0.9999427828300272	0.953500012627355	-0.3013575116278156	-0.004623430017321906	0.30130418349197907	0.9534792782484661	-0.009646499936037278
344														9.788969593250576	-0.06293570068382723	-0.062171393676876435	0.007317800116610096	0.007743743900263278	0.9999432405051103	0.9535023297225049	-0.301349860411565	-0.00464422692019828	0.30129679224181816	0.9534821949361917	-0.00958889589333567
345														9.767639131104985	-0.06349196736520332	-0.07417597530791359	0.007323205019812207	0.0077584904021514856	0.9999430866278929	0.9534923043860116	-0.301381573758251	-0.004644617923311445	0.3013283858930178	0.9534720514129817	-0.00960473994592953
346														9.76763224517505	-0.06419157129977726	-0.07447997355137709	0.007334714419251542	0.007731332751621245	0.9999432126167326	0.953496254076978	-0.301368779817896	-0.00466390525673388	0.30131560767002974	0.9534763159328902	-0.009582250752536048
347														9.798429460623451	-0.06362929483613423	-0.029555141180817493	0.007344433256279315	0.007706854662727192	0.9999433302399447	0.953500641523048	-0.30135463784368766	-0.004680690679303101	0.30130148674588303	0.953480983890768	-0.009561769889148475
348														9.777098915434896	-0.064027719473648	-0.041747427680063336	0.007324002483436287	0.007730322394067235	0.9999432989441484	0.9534930901447322	-0.30137894472574545	-0.004653893235305795	0.30132588012627154	0.9534731112053867	-0.009578109126960943
349														9.788939813309689	-0.06619656116924941	-0.0634603853069387	0.007331839851199895	0.007732630031486221	0.9999432236668201	0.9534955334175372	-0.30137110870705797	-0.004660749884329629	0.30131795810605444	0.953475569309185	-0.009582632901411092
350														9.801727187115107	-0.04401122093959592	-0.08654834326460752	0.00731169872890558	0.007754298636610479	0.9999432033442461	0.953487924945607	-0.30139558043419423	-0.004634768349752849	0.30134252279527113	0.9534676580500199	-0.009597343798788738
351														9.737738480971405	-0.04403935852743769	-0.1226231715391527	0.007319531250938871	0.007756610373967521	0.9999431281116808	0.9534903678056554	-0.3013877467201398	-0.004641619199475366	0.3013346029982329	0.9534701154847296	-0.009601870309167593
352														9.75906092262702	-0.04484141942268188	-0.11093220693518187	0.00730901657697941	0.007722985340626154	0.9999434652889658	0.953494676848788	-0.30137411025004557	-0.004641862990026835	0.3013212231119844	0.9534746987563021	-0.009566573779358267
353														9.780383154958356	-0.04564760038722514	-0.09930130304990863	0.007321126829479829	0.007736591079787081	0.9999432715211458	0.9534933293111516	-0.3013782594299396	-0.0046492689873599	0.30132519320674717	0.9534732769729024	-0.009583216447119625
354														9.768533177749054	-0.0445832202130856	-0.07856620295869612	0.007321356256892841	0.007765624845788022	0.9999430447847093	0.9534849410735255	-0.30140493225532605	-0.004640469607562259	0.301351729526439	0.953464609664626	-0.00961109923511122
355														9.779411461684273	-0.07115544190703078	-0.09896566042704263	0.007318735310100577	0.007772144416343663	0.9999430133185752	0.9534930145162233	-0.30137945573377184	-0.004636262544408798	0.3013262474166927	0.9534726096919548	-0.00961640187321261
356														9.759032918544305	-0.04718777015683137	-0.11241263979672399	0.007301757769449746	0.007741447721702266	0.9999433755571603	0.9534895762195518	-0.3013904418212213	-0.004629213698717161	0.3013375389395349	0.9534693868006361	-0.009582069707697705
357														9.777050828448047	-0.06904648039987422	-0.04489191082189921	0.007292419684963247	0.007749111622356142	0.9999433843394345	0.9534889652575838	-0.30139254702980467	-0.0046179786604718664	0.30133969825955553	0.9534686590884625	-0.0095865733653272
358														9.747183364761685	-0.04658928870088137	-0.09162068487649264	0.007290360925916617	0.007739921260265792	0.9999434705304375	0.9534864378077391	-0.3014005316535123	-0.004618704979727051	0.30134774522846436	0.9534662097514868	-0.009577228610380462
359														9.76658653462473	-0.09602446127737782	-0.07728573837844387	0.007281018505149672	0.007747590507763302	0.9999434792081261	0.9534858256101659	-0.3014026403913219	-0.004607464122475702	0.3013499081301139	0.9534654808677993	-0.009581735933974378
360														9.78983367231438	-0.0480715815946166	-0.06849023710012986	0.007286631951356037	0.007736821154955942	0.9999435217017124	0.9534919872377066	-0.3013830128298175	-0.004616259428639136	0.30133027605651563	0.9534717726162845	-0.009573064068823356
361														9.766568923167055	-0.09716105694654317	-0.07808678037556376	0.007279705223857236	0.007782557970251902	0.9999432172295055	0.953485636116616	-0.3014034199802144	-0.004595665732315235	0.3013505394240177	0.953464949652409	-0.009614685287798463
362														9.78032453681348	-0.05069351102237556	-0.10257298045774575	0.007284925033415768	0.0077582166226816685	0.9999433683674757	0.9534816607061556	-0.3014158097653228	-0.004607854223627861	0.3013629913647145	0.9534612313557118	-0.009593108847539278
363														9.768483573983715	-0.04962676726426011	-0.08164928248191615	0.007284151355340385	0.007788469638080053	0.9999431388232678	0.9534734650971688	-0.3014418885691823	-0.004597735468951147	0.3013889389055781	0.9534527400750082	-0.009621847474801826
364														9.75994555203097	-0.02734380550614273	-0.11656451232337914	0.007277864332493611	0.007767564658688497	0.9999433472102457	0.9534741397220508	-0.3014397496951691	-0.004598063180088707	0.30138695653935016	0.9534535868320942	-0.009600009633380702
365														9.762273581683461	-0.031148484753174076	-0.17119937102807437	0.00727466418539463	0.00775975973623988	0.999943431094892	0.9534716826504058	-0.3014475333218877	-0.004597285933336526	0.3013948069306988	0.9534511895125963	-0.009591640747107777
366														9.780300199884422	-0.053084507475808416	-0.1036779498796435	0.007268517846687084	0.007740268955509777	0.9999436268534394	0.9534732843256102	-0.30144246622072635	-0.004597350987440407	0.3013898882272726	0.9534529499641102	-0.009571179608048208
367														9.758962143774012	-0.05351548416086684	-0.11567527892288877	0.007261024984870468	0.007721186422386672	0.9999438288205991	0.9534746171931128	-0.30143827088072506	-0.004596000096313002	0.3013858521639923	0.9534544310708661	-0.00955070608462294
368														9.756627492940444	-0.05108878206114038	-0.061354924607283146	0.007289641020199633	0.007689402908137022	0.9999438655328171	0.9534817482524487	-0.3014151458692915	-0.004633097241313888	0.3013626003392763	0.953461998678243	-0.009528913539306239
369														9.787837805522384	-0.10222969516596304	-0.06805032725277484	0.007236861709858711	0.007670820372042753	0.9999443916275608	0.9534720863015997	-0.3014463971467474	-0.0045880596029902465	0.3013944400221536	0.9534522684235774	-0.009495438992862593
370														9.755643244928718	-0.07645474404931742	-0.060339216602021704	0.007257200152135546	0.007695936166970563	0.9999440512411009	0.9534896763946983	-0.3013905654763348	-0.004600440260281169	0.30133829835366943	0.9534697161464378	-0.009525247343026122
371														9.799650394849998	-0.105057194406733	-0.09002316030122758	0.007253435387173157	0.007673767242242058	0.9999442489316075	0.9534766939134158	-0.3014315932823074	-0.004603122335157972	0.301379464859547	0.9534569250194798	-0.009503172805519877
372														9.768436703894846	-0.0550360294690704	-0.08376247519270853	0.007250255458341348	0.007706185901964202	0.9999440226805858	0.9534831266115604	-0.30141143705454176	-0.004590520641271578	0.30135918944480644	0.9534630356293625	-0.00953302814476592
373														9.746114258304281	-0.07961622910848883	-0.0947275498213124	0.007223745842218854	0.007719218070726563	0.99994411402257	0.9534794544494654	-0.3014234985001588	-0.00456119443496561	0.3013714442988184	0.9534591172275297	-0.0095375225788904
374														9.758914870319368	-0.05751838629524845	-0.11772431610044769	0.007239127892348485	0.007704770642452563	0.9999441142067415	0.9534794749496738	-0.3014231451594631	-0.004580219631316995	0.3013710103461381	0.953459345788547	-0.009528381364296568
375														9.781225345548199	-0.03402929170768576	-0.10769031855111573	0.007245037446613423	0.007733929609899104	0.9999438463059749	0.9534799518473065	-0.30142168428269434	-0.00457708088658898	0.3013693595202667	0.9534595715482506	-0.009557958221886431
376														9.760865661625935	-0.009989121637555975	-0.12145507204736398	0.007227159341334832	0.007744703279881027	0.9999438922954438	0.9534857020357856	-0.3014037990406407	-0.004556965788188594	0.3013515956174458	0.9534651380595811	-0.009562757125626598
377														9.803879467273205	-0.06277680580148567	-0.1493269334975542	0.007198178306292491	0.0076692565302105	0.9999446828366783	0.9535059868424001	-0.30133968526944244	-0.004552706603159429	0.3012881001380106	0.9534860127899032	-0.009481778801517349
378														9.789737852477595	-0.05860058400387796	-0.07378323035784495	0.007249423174461422	0.007708555353134305	0.9999440104515879	0.9535054152375755	-0.3013409325026318	-0.004589717972072638	0.3012886804648599	0.9534853017077988	-0.009534697212370491
379														9.769380234468073	-0.03479421530207326	-0.08766573021627494	0.007240043680119601	0.007716275310400533	0.9999440188644786	0.9535047907696381	-0.3013430802099285	-0.004578426470104258	0.3012908822829849	0.9534845604963551	-0.009539242538786075
380														9.758868261769269	-0.06118042385309002	-0.11972468638894847	0.0072289561160923665	0.007711577843644901	0.999944135319885	0.9535083661220787	-0.3013319042066259	-0.004569380965966263	0.3012798332591727	0.9534881305366992	-0.009531369101805354
381														9.764092164538564	-0.10570608206962573	-0.029677141920724338	0.007241003748623631	0.007725257782621009	0.9999439425572334	0.9535069994908404	-0.3013361174703967	-0.004576705129364922	0.3012838691113188	0.9534866882657873	-0.009548063324799072
382														9.766070727152803	-0.05764861686761944	-0.032922545105240966	0.007243622376874315	0.007726181747448879	0.9999439164525508	0.9535001286922292	-0.301357827229338	-0.004578706314450176	0.3013055500961819	0.9534798194420357	-0.009549837591256716
383														9.801522267917687	-0.06345850836722175	-0.09704492352016478	0.007246532271283468	0.007702917362731598	0.9999440748532606	0.9534958268014768	-0.3013712913578116	-0.004588356731145604	0.30131909339138874	0.9534757520825725	-0.009528596348023999
384														9.776881977706925	-0.08507693661915933	-0.0533510784766044	0.0072602079147015	0.00771400108888215	0.9999438902099635	0.9534938598729581	-0.3013773674555027	-0.004597996319960829	0.30132498828607424	0.9534737419419537	-0.009543315021814769
385														9.76834917389804	-0.06276748232207661	-0.08840470984741534	0.007237980832225266	0.007738325917117872	0.9999438633970772	0.9534863896933053	-0.30140143796176583	-0.004569230154610526	0.30134916011679597	0.953465936206732	-0.009559926271755226
386														9.747999297054639	-0.03865341266532005	-0.10222250472979856	0.007238856488488821	0.007767513926948466	0.9999436307533207	0.9534782690831893	-0.30142725089520483	-0.004561009086141876	0.30137483196654574	0.9534575387216535	-0.009588144345096472
387														9.770333815418994	-0.015033911781970622	-0.09227484336322611	0.007236149630534261	0.007774161830949811	0.9999435986826215	0.9534863215408673	-0.3014018435609721	-0.0045566799881019415	0.30134941973229545	0.953465516474442	-0.009593545806181825
388														9.78342694065522	-0.04495925838187691	-0.1669164062814169	0.0072356927558229756	0.007764002197878095	0.9999436809241883	0.9534836011485643	-0.3014104109900322	-0.004559220063297176	0.3013580380396531	0.9534628909489302	-0.009583761902288379
389														9.747979867987302	-0.040381674752437854	-0.10340034556434693	0.007237279026739429	0.007781927791958243	0.9999435301016406	0.9534878591475731	-0.30139699765334194	-0.004555465259468261	0.30134452749381063	0.953466984958259	-0.009601267840234018
390														9.769316372832083	-0.0411650760035166	-0.09191915094029801	0.007236698956445464	0.007772697617192181	0.9999436060898461	0.9534855345757711	-0.3014043189026978	-0.004557620163726017	0.30135189653123096	0.9534647459232839	-0.009592327062695694
391														9.801460456484671	-0.06795644026354639	-0.10019125345255397	0.007216318140576383	0.007770260335117407	0.9999437723226337	0.9534800167257044	-0.3014220587838256	-0.004538742476825064	0.30136984331091404	0.9534591577686193	-0.009583945425062412
392														9.754212659047218	-0.061527421370828936	-0.015244725824885372	0.0072089229191584225	0.007762541990157357	0.9999438856116862	0.9534699557262548	-0.3014539585419318	-0.004533696810906429	0.301401849625578	0.9534491354137622	-0.009574508918482438
393														9.786352438205487	-0.08854977636408169	-0.023512745536322717	0.007239920957719581	0.007744166162930555	0.999943804138496	0.9534735904097571	-0.30144193042432105	-0.004568913786205664	0.3013896082078029	0.9534530877145975	-0.00956627366571372
394														9.776808829799108	-0.09085877604508846	-0.057091311113452545	0.007247626599937607	0.007771001941166977	0.9999435401248908	0.9534739926657558	-0.3014406691083426	-0.004568185365980637	0.3013881504284652	0.9534532681449817	-0.00959417765959042
395														9.74364616938933	-0.08965519291717736	-0.0482534917435577	0.007281069416597785	0.007790671881913014	0.9999431441135933	0.9534718729607521	-0.3014469802256047	-0.0045940815816500336	0.30139405020813803	0.9534511122991529	-0.009623042899316647
396														9.800162217168706	-0.04376831118121463	-0.04924968640124167	0.007276922810363462	0.007808194176468108	0.9999430376267013	0.953467171211001	-0.30146199428848264	-0.0045846943739606405	0.3014090241139169	0.953446221925135	-0.009638572476398821
397														9.7810733111606	-0.04745086740899087	-0.11609377824673124	0.007293234231690537	0.007833183423904766	0.9999427233456373	0.9534619988491304	-0.3014782334284425	-0.004592550433786646	0.3014249914739371	0.9534408822818086	-0.009667394096858017
398														9.759716031103455	-0.04785852777335479	-0.12854852279424442	0.007294530633316865	0.007861973927870414	0.9999424879405803	0.9534537240363068	-0.30150451963399605	-0.00458484040854934	0.301451133592392	0.9534323332078848	-0.009695362274358077
399														9.74892273444224	-0.022367264079774993	-0.10916264347320445	0.0073022360723060675	0.007864437143791203	0.9999424123302076	0.9534561405868605	-0.3014967759138525	-0.004591523795081098	0.3014433036667971	0.9534347616601584	-0.009699996519769272
400														9.782066276367404	-0.02495602342917193	-0.11898924926016775	0.007304756050898087	0.00786546166996066	0.9999423858661837	0.9534487459163132	-0.3015201316162024	-0.004593380101620581	0.30146663073986624	0.9534273673137702	-0.009701845571167877
401														9.760709491474312	-0.025269997878520228	-0.131382135534247	0.007297796498396125	0.007911274740302066	0.9999420752714887	0.9534423544216105	-0.3015406556450855	-0.004572722177032196	0.30148701292301844	0.9534204973279711	-0.009743526755760623
402														9.782053112018628	-0.02599513243582184	-0.11984589469969939	0.007286810487100226	0.007864948029938368	0.9999425208407788	0.9534365181304445	-0.3015590586663932	-0.004576027920966508	0.30150573508346357	0.9534150600492552	-0.009696132376111666
403														9.757432404494649	-0.04733990143495248	-0.07557527085396466	0.007238223359886553	0.0078072820611255755	0.9999433256287131	0.9534412935049691	-0.3015443955354364	-0.004547236604807103	0.30149180413763194	0.9534201717333164	-0.009626430794925145
404														9.758656306123578	-0.07543183919940097	-0.12854547208677194	0.007233363299528284	0.007802232013086996	0.999943400213728	0.9534539973543681	-0.3015042655996712	-0.004544530138542169	0.30145174304414674	0.9534329042994151	-0.009619959190603877
405														9.76922513561573	-0.05012175409578409	-0.09702649849584712	0.007225777459917537	0.007783249459515973	0.9999436029936644	0.9534553205567449	-0.3015001033047229	-0.00454306166330426	0.30144773981925116	0.9534343756835564	-0.009599553259017957
406														9.789543033276756	-0.0751387542312857	-0.08394318804278887	0.007196499964838843	0.007784291490646578	0.9999438060182411	0.9534558054520748	-0.3014989937769451	-0.004514842325682222	0.3014469064992909	0.9534347180365729	-0.00959171541120285
407														9.77652165802519	-0.04615057308821111	-0.00994161064245733	0.00718707324461304	0.007792081396748363	0.9999438131443602	0.9534551656214114	-0.3015011870416153	-0.004503483356700477	0.30144915512905934	0.953433960838402	-0.009596311373278155
408														9.78728603469744	-0.07284130790768928	-0.030122938165306815	0.0071930111040509614	0.007780924670552525	0.9999438573252646	0.9534615032338492	-0.3014810065089607	-0.004512711534493452	0.3014289674903634	0.953440433338977	-0.00958736836041374
409														9.80010612230266	-0.05093300103317	-0.05335301059609199	0.007213609980586566	0.007817195098832108	0.9999434260456115	0.953452526008594	-0.3015092701698865	-0.00452113364701523	0.3014568700144014	0.9534311991236755	-0.009628294693820316
410														9.769190026615188	-0.05278258637279605	-0.09912791100115045	0.0072009226629315415	0.00787616592387308	0.9999430547401902	0.9534471970902401	-0.3015265702113731	-0.004491081977824551	0.3014740271956576	0.9534252427258816	-0.009680777836845567
411														9.753161290390057	0.016756091558531697	-0.17033812275031446	0.007191485175430334	0.007883964799840715	0.9999430611989897	0.9534465559078342	-0.301528766834726	-0.004479709657808806	0.30147628027501666	0.9534244835697079	-0.009685378741964457
412														9.78199878505974	-0.031007170634911783	-0.12304558381579772	0.00717506530178863	0.007934500339419448	0.999942779434043	0.9534468106942046	-0.301528418518906	-0.004448820353448679	0.3014758657255417	0.9534241745046386	-0.009728610136289728
413														9.769165146434808	-0.05409142790441259	-0.10085910865107141	0.007182733350975079	0.0079370041569653	0.999942704511924	0.9534492213938655	-0.3015206976931027	-0.004455455767478522	0.3014680589466157	0.953426595406105	-0.009733273204988013
414														9.779909910213759	-0.0809559025513756	-0.1210264488742491	0.007201385604478694	0.00791995116147437	0.9999427055681618	0.9534352009988977	-0.3015646955603035	-0.00447793343106595	0.3015119525683305	0.9534128217961102	-0.00972284388496869
415														9.811859817291678	-0.05613845019929153	-0.07760388442903506	0.007220798686978169	0.007876987400250779	0.9999429049379862	0.9534234289938764	-0.30160144849885123	-0.004509025277568246	0.30154871101014685	0.9534015519878764	-0.009687907680599905
416														9.76588225187562	-0.07761762182562021	-0.04543199778344446	0.007235958024390254	0.007849528606544975	0.9999430112822054	0.9534142901612965	-0.3016300003140188	-0.004531470710109453	0.30157724089808374	0.95339274583522	-0.009666434765678855
417														9.776484952442257	-0.052471905831934375	-0.013896973312390011	0.007240204710766973	0.007835437290360403	0.9999430910597944	0.9533831741976255	-0.30172822651837294	-0.004538775048253063	0.30167549219750583	0.9533617798320569	-0.009654748202119978
418														9.759338213748237	-0.12121092989701641	0.06591787378115127	0.007262025432179686	0.00782144373892707	0.999943042380145	0.9533057240109735	-0.3019725001436093	-0.004561329294293703	0.30191962432828956	0.9532845504752796	-0.009649159062210755
419														9.790302027609824	0.48509563203535194	0.42396481835044336	0.007285302471106925	0.007920733952346382	0.9999420914940824	0.9528874107593563	-0.3032902410571441	-0.004540054606314181	0.3032367174077595	0.9528653061441343	-0.009757128809801341
420														9.81493299745741	0.3454340167647396	-0.2772947580843483	0.007211672719848516	0.007752241414891781	0.9999439456937714	0.9517937446377764	-0.30670594700449644	-0.004486617932820458	0.3066539734700692	0.9517727485198981	-0.009590397796643502
421														9.904732027098424	0.05806142300501945	-0.09010788830228618	0.007067490477237703	0.00736424105704786	0.9999479079092114	0.9505983744640543	-0.31039181845838903	-0.004432775698493541	0.3103430054708062	0.9505801844072646	-0.009194126799158264
422														10.007007874265371	-0.2706545543013674	-0.22341855569906555	0.006382225293287136	0.005883636844654816	0.999962324299164	0.9496570532355644	-0.3132629727004095	-0.004217958611409112	0.31322635336167165	0.9496481942026653	-0.007586752096021998
423														9.957608789563958	-0.013096343087029914	-0.5567511520457803	0.005269559303759941	0.0034751185941419016	0.9999800774492967	0.9487319303058153	-0.31605775664428204	-0.0039011387038134226	0.316037903047952	0.9487335864275814	-0.004962441063912193
424														10.083250027157339	-0.28665771474625734	-0.6050280705302081	0.003710815425861158	-7.174725033409768e-05	0.9999931123268836	0.9477858727419457	-0.31888776724552925	-0.003539962139551267	0.31888582483337735	0.9477924808487843	-0.001115332615538367
425														10.13163954458849	-0.20846421257595704	-0.5377721200167791	0.001385265663626789	-0.00509780133773774	0.9999860466329329	0.9467393294981615	-0.3219874563387044	-0.0029529547748789464	0.3219980171063368	0.9467302099236361	0.004380250853020129
426														10.157422593182826	0.041386966822327294	-0.5044379014119191	-0.0015428933292295222	-0.011664449956709844	0.9999307776478241	0.945585840630381	-0.32536434829561506	-0.0023364198051437635	0.3253690788620067	0.9455167801077765	0.011531741200360934
427														10.401306824598288	0.2816110969185963	-0.4395015078967155	-0.004677827006113466	-0.019505061505798227	0.9997988150173793	0.9444145544337051	-0.3287509235669126	-0.001994900420570489	0.32872369447346955	0.9442152206089228	0.019958703919746523
428														10.382423583611768	0.34075685366579084	-0.023181517341970208	-0.007183476969781888	-0.028149613961618747	0.999577909365967	0.943442216755827	-0.331527147087063	-0.00255624473887478	0.3314591698859405	0.9430256359071718	0.028939051822727768
429														10.178359974221502	0.32359190583399244	0.4058186353702691	-0.009011442774969847	-0.03730629959635262	0.9992632455512118	0.9427978590225794	-0.3333416450188741	-0.003942679108442315	0.33324314084697165	0.9420677192784703	0.03817618854609811
430														9.913658067312802	0.20281275073355248	0.7761889265870502	-0.010539272074790218	-0.04685695739823559	0.9988460087959075	0.9425091939862364	-0.33413109812180236	-0.005729617730170222	0.3340139862274467	0.9413611606664569	0.047684611701812485
431														9.593023313649493	-0.08822156224741123	1.1214686572268893	-0.012186189575886242	-0.05665087826797438	0.998319675642571	0.9425074915757243	-0.3341018774131431	-0.007454115148646245	0.33396276006054443	0.9408329360202482	0.057465305987726256
432														9.32369631584934	-0.23713474904263665	1.20159833259018	-0.014297158234177043	-0.06645106917932753	0.9976872489269129	0.9427630262281129	-0.33335013508872613	-0.008692744879452208	0.3331568213974285	0.9404583684785057	0.06741357070434423
433														9.130928042505431	-0.454833506658938	1.3338739035231544	-0.017137124790171043	-0.07608004850334793	0.9969544348532959	0.9432604723744589	-0.33192857269334464	-0.009116133263179005	0.33161121846198016	0.9402314868421966	0.07745160386120897
434														9.05217440614534	-0.6703266546426384	1.422024741589849	-0.020710123955157256	-0.0849517966977349	0.9961698063099429	0.9438773983706217	-0.330185728057947	-0.008534742641155835	0.3296460944875114	0.9400854095371711	0.08702226821027181
435														9.295842377451647	-0.9122746808299694	1.6379772934357517	-0.02510510422536949	-0.09239311067994904	0.9954060713300457	0.9445169499964702	-0.32839515463912294	-0.006659848264923829	0.32750185482100497	0.9400107103158075	0.09551125368443325
436														9.548040084251754	-0.9731997400026581	1.6297444443436306	-0.03050353520445337	-0.09726828952361427	0.9947906383723066	0.9451264791821223	-0.3266912339670792	-0.0029624310747091154	0.3252775317922159	0.9401126089475758	0.101896073569822
437														9.747691412917604	-0.7981822805245725	1.3992712055797258	-0.03692455978715531	-0.09938920895202502	0.9943632947914034	0.945726316983923	-0.3249534913228795	0.002638530101344627	0.32285958286621935	0.9404929630895501	0.10599375514854065
438														9.800949186175274	-0.48413298605544625	0.9436334985635695	-0.04415939694184756	-0.09919075010509659	0.9940880960736431	0.9462797282217967	-0.3232010232296243	0.009786446740599641	0.3203195648383268	0.9411175769673588	0.10813455832837526
439														9.833876888735196	-0.2446553435028708	0.7926895320078202	-0.05210853452841402	-0.09757041596013932	0.9938635291420381	0.9466925974577864	-0.3216317270932626	0.01805984622400819	0.3178959366647062	0.94182431804258	0.1091289484770136
440														9.988189352624264	-0.04329248297002585	0.7540253376839883	-0.06062089345882582	-0.0952110982378313	0.993609558150786	0.9469001465768545	-0.32038616484823157	0.027070607428972826	0.3157613334291985	0.9424900806619602	0.10957749844209208
441														12.008148430072314	1.1274026643544377	1.8529847108944912	-0.06709311315268013	-0.0921457252173723	0.9934826015042474	0.9470087509552136	-0.31936759238245893	0.03433316982276596	0.31412249168394324	0.943140236794082	0.10869017415698129
442														10.13461180223883	-0.18566343279886438	0.7916794790918404	-0.07240941954573454	-0.08751519658785023	0.993528040030698	0.9473201350252312	-0.31764521838200355	0.04106186813611379	0.31199589378199855	0.9441623830704333	0.10590541373288082
443														10.100479857424826	-0.3382631140466944	0.663342308172339	-0.07899110708302881	-0.08366408980231832	0.9933583064933558	0.9474278912004875	-0.31624093112789253	0.048703844353001124	0.3100657929814175	0.9449825361121303	0.10424591342537864
444														10.049249853015336	0.19239819043254808	0.9555801459309763	-0.08608762077428128	-0.08061177745104503	0.993020978069248	0.9473282399341121	-0.31523462112883144	0.05653617837366409	0.3084771099656507	0.9455838804558508	0.10350361176932193
445														10.095481848743557	0.4872692695228503	0.8273083533222817	-0.09367357664874909	-0.07798930392973524	0.9925436662990634	0.9470385859988868	-0.31454175494330905	0.06466375357503429	0.3071533455247726	0.9460344353509227	0.1033231313075681
446														9.959599623302505	0.7466999689068254	0.9962799418065735	-0.10155493802913779	-0.07536524748856882	0.9919711054425346	0.9465944462759572	-0.3140424445918491	0.07304996423194593	0.3060156022842808	0.9464129238687315	0.10323288571393646
447														9.99104785358502	0.8836879755663009	1.0213250574705335	-0.1098722978825078	-0.07267312934462511	0.991285374869052	0.9459462339453085	-0.3138279750595768	0.08183962704395353	0.305145540099647	0.9466945750036097	0.10322587377217846
448														9.795287910778423	0.847282641878202	1.1265374125837682	-0.11803690217675289	-0.06944612275144968	0.9905778746566603	0.9452468183188621	-0.3135122777352173	0.09065596597766712	0.3042626204162839	0.9470413337041137	0.1026497446336318
449														9.559340067683527	0.8535975052343612	1.1974725368570458	-0.1262199954130866	-0.06597527658102426	0.9898059282697687	0.9444246167416994	-0.3132919185115511	0.09955057552644647	0.303530321467585	0.9473623576411561	0.1018523798169465
450														9.456357968761798	0.726231438860712	0.9700637932426164	-0.13422132565351452	-0.06182869993466583	0.9890206507470929	0.9434902341051599	-0.313147453734159	0.1084658949532259	0.30300299319974505	0.9476897615170287	0.10036584094099693
451														9.44290740317786	0.867363275105034	1.1240900801878766	-0.14169982222236466	-0.0567773596519936	0.9882800674976191	0.9424660008897889	-0.3131060411398485	0.11714283660787872	0.30278539850686154	0.9480194820955316	0.09787780145856062
452														9.441507284844237	1.0935033931260023	1.0679066038372051	-0.14846704161453167	-0.05097049443591262	0.987602929446439	0.9414119448295397	-0.3130931923211448	0.12536428141388178	0.30282187451783144	0.9483536585151733	0.09446825230940564
453														9.304917427881577	1.3739393490360976	0.9689730302476447	-0.15411628144302433	-0.044495404981504005	0.9870503182359587	0.9404234369586564	-0.31303012391796164	0.13272490624888167	0.3030708349759894	0.948700321732547	0.09008756035945864
454														9.199910324839554	1.5910864408957335	0.7400814959745139	-0.158809174840683	-0.038119593573926636	0.9865731308788928	0.9395061447781952	-0.31299927308474	0.13913899156037568	0.30349275100146184	0.9489880671716499	0.08552074868347259
455														9.191512682649181	1.6693761210571518	0.6942599226729559	-0.16233794848301755	-0.03178584705622156	0.9862231240491393	0.9387274679182258	-0.31293700414729164	0.1444339724966205	0.30403475370122024	0.9492418508274046	0.08063979898041568
456														9.213852687532716	1.773944966853947	0.812904840061227	-0.16469747236928947	-0.02535687880290155	0.9860181394338251	0.9380788986003172	-0.31291087000888185	0.148643087397633	0.3047666691027463	0.9494439510195742	0.07532238230670579
457														9.047669272533366	1.8140189685131898	0.7384558083073676	-0.1659068631311863	-0.018670129066512275	0.9859646743401151	0.9375905024309152	-0.3128381547922907	0.15184313832866625	0.30561243842048297	0.9496229331617863	0.06940693262125874
458														8.908582968228446	1.9150300172916574	0.563610509455515	-0.16606675915516783	-0.012138086282239224	0.986039805669682	0.9372876803027097	-0.31268784928974763	0.1540068610787103	0.30645331758110333	0.9497783824492726	0.0633039364935421
459														8.880167650539574	1.8722263257001521	0.4297926587585139	-0.16510069103974684	-0.005986043357776194	0.9862585508390365	0.937195234425896	-0.31247867618302855	0.15499086908683107	0.3072569842779613	0.9499059133492223	0.057200536680977965
460														8.923819465378452	1.886191640111707	0.4888620927251035	-0.16310754101061362	-0.0002564643414759149	0.9866082628335895	0.9372835619176687	-0.31227265086315803	0.15487193445497005	0.3080510584698572	0.949992487206577	0.051174404018638986
461														9.030749315130581	1.7727938681808686	0.5253814213425299	-0.1600337639503334	0.005203813316616457	0.987097824292433	0.9375577307454358	-0.3120545708377914	0.1536471488141286	0.3088279390135519	0.9500499277123322	0.045060392124727844
462														9.160362262578152	1.7738246492592482	0.5444635040153566	-0.15584830164078609	0.010714612566540105	0.9877228882400326	0.9379860102192412	-0.3118737306243369	0.1513836872963807	0.30966683953673885	0.9500631417037542	0.03855483455184494
