// Start Time: 1747398475.5038033
// Update Rate: 100Hz 
// Filter Profile: 46.1 human
// Option Flags: AHS Disabled ICC Disabled 
// Firmware Version: 4.0.2 
PacketCounter	SampleTimeFine	Year	Month	Day	Second	UTC_Nano	UTC_Year	UTC_Month	UTC_Day	UTC_Hour	UTC_Minute	UTC_Second	UTC_Valid	Acc_X	Acc_Y	Acc_Z	Mat[1][1]	Mat[2][1]	Mat[3][1]	Mat[1][2]	Mat[2][2]	Mat[3][2]	Mat[1][3]	Mat[2][3]	Mat[3][3]
0														-0.1321205492466233	0.09164419826228727	9.651142416532398	0.3236570387423471	-0.9460553653106597	-0.01501222966278776	0.9461385065329398	0.32346567075308397	0.01385230305310313	-0.008249104687924464	-0.018687043938808448	0.9997913515632529
1														-0.12135977704764236	0.09258953399793904	9.70457932302733	0.3235975319430225	-0.9460769213222744	-0.014936407257137567	0.9461587931038011	0.32340713868205234	0.01383332504663625	-0.008256848838551229	-0.018608642907377227	0.9997927499519101
2														-0.1550098510914225	0.11380876113219048	9.733435628809524	0.32361059595462804	-0.9460725959233314	-0.014927338301867604	0.9461539406323694	0.323419467588766	0.013876909253758063	-0.008300771754987979	-0.01861427483108148	0.9997922814068847
3														-0.1106850542161761	0.13519480224282313	9.645710955168079	0.3236014970373063	-0.9460761335920976	-0.014900354446839908	0.9461575125211291	0.3234117994751305	0.013811931801427368	-0.008248188591662384	-0.018567644107024266	0.999793583684788
4														-0.11120369645827156	0.11466621482648026	9.701854580851876	0.32361288006976424	-0.9460717548679317	-0.014931125009985908	0.946153560845827	0.3234225980146834	0.013829764719386121	-0.008254886535468582	-0.018602627087160116	0.9997928781071317
5														-0.10044246964097057	0.13641281228688965	9.699140575242422	0.32356438719374325	-0.9460898924826158	-0.014832487389887527	0.9461698868049524	0.3233749809450148	0.013826315572711904	-0.008284482086545666	-0.01850775624015759	0.9997943940208476
6														-0.1424944969399018	0.13021701402812313	9.696763014658444	0.32355655035623926	-0.9460923861422672	-0.014844379582918184	0.9461725518060629	0.3233669392121663	0.013832022027123528	-0.00828618913458187	-0.018520785841495118	0.9997941385912601
7														-0.12891429066375243	0.1256159513912061	9.716264558891883	0.32358910783548944	-0.9460809524966433	-0.014863398443053996	0.9461614162774165	0.3233992056311212	0.013839369388600078	-0.008286352523657139	-0.01854144331503839	0.9997937543521912
8														-0.14310764056958794	0.13057272001169273	9.696749201932251	0.3235879136813057	-0.9460812003975463	-0.014873613337661972	0.9461616916050037	0.323397564682549	0.013858877896679023	-0.008301533505223349	-0.01855740854039132	0.9997933322090758
9														-0.11281143672398182	0.11540904008821536	9.701827210770887	0.323472096634007	-0.9461225143383792	-0.014764503419448452	0.946202283423729	0.32328559059931883	0.013699115101742987	-0.008187890016409882	-0.018401488333090972	0.9997971512682993
10														-0.14109626821423543	0.1040602996383862	9.718956863638962	0.32346976282200013	-0.9461226824104474	-0.014804808959879373	0.9462035543614864	0.3232837423235887	0.013654876892344585	-0.008133034708433892	-0.018425302649210957	0.9997971604124088
11														-0.13036002461257956	0.12560534904419762	9.716245406924743	0.32347773034505706	-0.9461211584170696	-0.014727917923201692	0.9461997946319	0.3232904941485181	0.013755181996505435	-0.008252672861600654	-0.018385047967001692	0.9997969210804212
12														-0.11108929587525743	0.10962397218304304	9.667880391906998	0.323483518728546	-0.9461192109905906	-0.014725885560487451	0.9461978480563388	0.3232963823847909	0.013750689817621141	-0.008248966271706038	-0.01838172275520602	0.9997970128100997
13														-0.11696210721221464	0.12112075755024475	9.735746406071614	0.3236110127672457	-0.9460732787595499	-0.014874933038911022	0.9461544906625238	0.3234222072526762	0.013775182573984846	-0.0082214484671009	-0.018531785476890963	0.9997944692346227
14														-0.1312406185207137	0.126030665654682	9.716228044821928	0.3235891529304939	-0.9460803666099781	-0.014899665125567415	0.9461619082917149	0.3233998611390469	0.01379032679181615	-0.00822820779424603	-0.018559895753312867	0.999793892192846
15														-0.098257100951886	0.10520647332450839	9.687376723824874	0.32340283091344596	-0.9461449140893861	-0.014846228475877653	0.9462271161141702	0.32321778949776453	0.01358327215512119	-0.008053178715907945	-0.018440772623935755	0.9997975216100521
16														-0.13748955553811534	0.1583150467127119	9.727931269935208	0.32340783129469086	-0.9461430817378311	-0.014854074757605536	0.9462251731223921	0.3232221405970895	0.01361504966331438	-0.008080619206719434	-0.018458513143670266	0.9997969728328653
17														-0.11570343680510073	0.11599621476863177	9.701786150432971	0.32342741085563886	-0.9461370611895611	-0.014811190053435395	0.9462185679992611	0.3232425299064811	0.013590012254802804	-0.008070407712491076	-0.01841000551979381	0.9997979496958952
18														-0.14129135678098992	0.09916378965864275	9.684969954954616	0.323411681920034	-0.946141979339541	-0.014840449087226861	0.9462240686799496	0.3232266698865861	0.013584245462677249	-0.008055795951805866	-0.018435693789052483	0.9997975941889935
19														-0.11650978128167985	0.11592358186858187	9.701777367142858	0.32337085411991356	-0.9461572774762725	-0.014754558090444026	0.946238300593393	0.3231877205989832	0.013519457983226808	-0.008023041560668848	-0.0183331266487826	0.9997997435843811
20														-0.13602556872230642	0.15270365266875915	9.69397652635467	0.32338294591651495	-0.9461532085571047	-0.014750465329980153	0.9462340960648745	0.3231997026184201	0.01352729358198098	-0.008031546217552336	-0.01833188927686863	0.9997996979899997
21														-0.14191123981400758	0.09925395838582908	9.684959967561769	0.32330318996219687	-0.946185041976925	-0.014453847217687298	0.9462605030445063	0.3231223049818367	0.013529094618000321	-0.008130666530207997	-0.018051104186437114	0.999804005742838
22														-0.1033212322384817	0.11135383891200243	9.72128258816354	0.32330735109299796	-0.9461834316135084	-0.014466183647159684	0.9462591322996955	0.32312640179418123	0.013527121015636254	-0.008124731912825388	-0.01806217604912916	0.9998038540272356
23														-0.11744148637251971	0.11626336754382192	9.701762067944086	0.32327009703804294	-0.9461975907836431	-0.014372319097626814	0.9462718770399821	0.3230905361859436	0.0134922255506171	-0.00812275102681569	-0.017961754432936055	0.99980567926645
24														-0.11761010732965863	0.11634085619819402	9.70175909620009	0.32326824080951216	-0.9461982678054977	-0.01436949845329566	0.9462726664079899	0.32308906423780837	0.01347209631240565	-0.008104646385665128	-0.01795256449127326	0.9998059912478772
25														-0.11785002229122798	0.1165046868589724	9.701754219857596	0.32313646044829447	-0.9462456215528495	-0.014214486308296038	0.9463176412703812	0.3229594484268627	0.013420748573689387	-0.008108621918016758	-0.017788152345805327	0.9998088976833086
26														-0.11814391262193495	0.11688883066549878	9.701746024292495	0.3231532666042302	-0.9462397715293793	-0.014221851463272128	0.9463117242943069	0.32297575508267523	0.013445523117812915	-0.008129375508068316	-0.017803269497590493	0.9998084600807522
27														-0.11851591580754259	0.11698742558351385	9.701740298670803	0.3230566359795928	-0.9462727944201472	-0.014220003158763796	0.9463453688634755	0.3228806107704496	0.013362410678999622	-0.008053122388347208	-0.017773849577055512	0.9998096006195434
28														-0.11894177065919019	0.11709480860513255	9.701733792022564	0.3230395707752854	-0.9462783426710651	-0.01423846568357739	0.9463510315143479	0.32286293022714935	0.013388556190632225	-0.008072228010291381	-0.01779962013195772	0.9998089880862788
29														-0.13602063959128455	0.12779177778603212	9.716139299496888	0.3229676680599238	-0.9463046425187028	-0.014121222874998202	0.9463755142467011	0.3227925757044529	0.013354366491061934	-0.008079073104470796	-0.01767700816415456	0.9998111081400014
30														-0.1335448698561709	0.12215843928478867	9.68220113705466	0.32297092910533676	-0.9463033773015165	-0.014131421038947387	0.9463744579401633	0.32279581585686695	0.013350903481138284	-0.008072441470743813	-0.01768556962735695	0.9998110102992755
31														-0.11999864792503871	0.11752985151320122	9.701715516188866	0.32296070193434684	-0.9463075747912351	-0.014083994419372541	0.9463776409547955	0.3227855903956086	0.013372484204306976	-0.00810837264252621	-0.017647564299055236	0.9998113910970412
32														-0.13417455571529813	0.12248563048787814	9.682188297833171	0.32295731039904374	-0.946308664141157	-0.014088570942242208	0.9463786788579448	0.32278187517678325	0.013388698982746654	-0.008122306501652974	-0.017657101368525885	0.9998111096143885
33														-0.1456276332544049	0.10098659676960411	9.684886887282008	0.32290919859163975	-0.946325091727414	-0.01408794633743324	0.9463958230926042	0.32273537307377304	0.013297556159108654	-0.008037132434964124	-0.01762667677226467	0.9998123347749761
34														-0.12085910311308083	0.11778347637390743	9.701701759246228	0.32288593931918075	-0.946332985828602	-0.014090781479132085	0.9464037002573551	0.3227119519024295	0.013305346237882019	-0.008044024437816932	-0.01763167694935388	0.9998121911833227
35														-0.10451523289151776	0.10733637845337508	9.687287862057667	0.32276864546723566	-0.9463733368718444	-0.014068004879761342	0.9464444668204722	0.3225966755365746	0.013200612018489804	-0.007954415639045448	-0.017575329038199982	0.9998139002239572
36														-0.13546479830681635	0.12258149368360052	9.682169118628995	0.322778247894539	-0.9463699429435272	-0.014076000113538017	0.946441139244217	0.3226060472048008	0.013210157190668722	-0.00796069294972536	-0.017586056975874148	0.9998136616229053
37														-0.1219229087445188	0.11795251115978421	9.70168639493503	0.3227139683419377	-0.946392706264091	-0.01401927840972581	0.9464633608558811	0.32254324195279604	0.013151563708201173	-0.007924720461297304	-0.017512926674618786	0.9998152310326645
38														-0.10836497764276964	0.11335209998058501	9.721204577998215	0.32271021554505047	-0.9463939253549684	-0.014023367430195959	0.9464645318532189	0.32253919349243126	0.013166571502093726	-0.007937677666349908	-0.017521607017256073	0.9998149761634891
39														-0.12254523515715735	0.11824142375463526	9.701675037192398	0.3226600571429387	-0.9464113574532892	-0.014001071671085889	0.9464814407272403	0.3224889362284548	0.013182123088789495	-0.007960520297310765	-0.017505099076068786	0.9998150837144506
40														-0.15071484132970497	0.1277712482777624	9.662619018892363	0.32267530212969336	-0.946405724448894	-0.01403047133475431	0.9464763754515865	0.32250405838615764	0.013175850503309028	-0.00794481639428559	-0.01753103119676655	0.9998147542608278
41														-0.10946775127974709	0.1136640131575076	9.721188580300401	0.3228761339385891	-0.946339579510442	-0.013870918674324908	0.9464060952829428	0.322703188180107	0.013347477278030635	-0.008155056355625061	-0.017437103841918787	0.9998147040654295
42														-0.13756359374523772	0.12321371708196042	9.68213150241792	0.32288471430074683	-0.9463362063084052	-0.013901291333602557	0.946403409783357	0.3227118564443051	0.013328302994244751	-0.00812694415886252	-0.01745973482292379	0.9998145380212037
43														-0.12405235369252768	0.11848985361954169	9.701652851938244	0.32284183099935065	-0.946351911848608	-0.013827910090516895	0.9464179117776564	0.32266974482029426	0.013318109626623527	-0.00814177028705947	-0.017386624689425395	0.9998156914444294
44														-0.13821063090913996	0.12351299180288007	9.682118474566188	0.3228437372369536	-0.9463510049760586	-0.013845458016311256	0.9464170352133174	0.32267092040106504	0.013351875732062465	-0.008168034335855303	-0.017414146787430185	0.9998149982405519
45														-0.1247460486788093	0.11897098872177791	9.701638069156498	0.32257777040049007	-0.9464432144651765	-0.013741318578376016	0.9465092018663238	0.3224096571677929	0.013127975751065606	-0.007994549757371787	-0.017241077627860014	0.9998193999000052
46														-0.1224131929968365	0.09271002461525883	9.723862088851561	0.32258000904227824	-0.9464423411360908	-0.013748915270653327	0.9465084989874805	0.32241191949748893	0.013123090733957194	-0.00798743455376811	-0.017246711883154676	0.9998193595937562
47														-0.11435952932423708	0.14057005108822446	9.698927106291944	0.3224197251208124	-0.9464963440692434	-0.013790994038749102	0.9465641721470702	0.32225340790009815	0.013000350160873017	-0.007860589071569474	-0.017245630180716703	0.9998203835585263
48														-0.12601505611894895	0.11925470429490544	9.70161818652765	0.32242111104360477	-0.9464956233618768	-0.013808045126683915	0.9465634950579392	0.32225410954736516	0.013032217905403935	-0.007885237923273745	-0.017272053631454364	0.9998197333450896
49														-0.12356183299761904	0.1136892459604681	9.6676820776462	0.32227392822064205	-0.9465467789502734	-0.013737192147548882	0.9466144857116309	0.3221098466120888	0.012894268356172522	-0.007780143323927776	-0.01715931159454868	0.9998224979442402
50														-0.11545237508554834	0.14114773926741261	9.698905768897845	0.3222832498178062	-0.9465438679733224	-0.013719070266441962	0.946610976659272	0.3221186751778616	0.01293127873951671	-0.007820853857045056	-0.01715415704024515	0.999822268776399
51														-0.09636724956043036	0.10460469072896188	9.706733492112106	0.3222396768767687	-0.946560035474423	-0.013626807733818053	0.9466257305226911	0.3220761981949463	0.012909255155542153	-0.00783051458953675	-0.017059361035759436	0.9998238151005977
52														-0.13289454600825995	0.1518738978616443	9.713289697343704	0.32226119886478494	-0.9465525861976748	-0.013635294962865557	0.9466184162263226	0.32209762562270383	0.01291098870669768	-0.007829033618489453	-0.01706813202167665	0.999823677006046
53														-0.11656016341987502	0.14149797562539188	9.69888741534495	0.32242384816076386	-0.9464981848859151	-0.013566434493754167	0.9465621451566	0.32225926342485145	0.013002787909080453	-0.007935205967142455	-0.017033882250998406	0.9998234240913336
54														-0.10020808344943735	0.1311489921069422	9.6844864126537	0.32243216520762535	-0.9464952870204566	-0.013570942767015808	0.9465592616262068	0.322267408031694	0.01301083971861311	-0.007941225923773224	-0.01704081478675979	0.9998232581622766
55														-0.12849247623135548	0.1202913318354922	9.701572892541385	0.32248483711874665	-0.9464761240637883	-0.013655636407136466	0.9465411888653626	0.32231862236463654	0.013056931427749628	-0.007956607935642533	-0.01713628472427256	0.9998215041376174
56														-0.1289723243946147	0.12051345040866075	9.701563768731466	0.3224925271175243	-0.9464731951649799	-0.01367701676344575	0.9465385306945253	0.3223259330450497	0.013069154421311083	-0.007961147153692385	-0.017160527988174103	0.9998210521964244
57														-0.11519659926318533	0.13634554924094358	9.664933382960099	0.3224599982522569	-0.9464862288369561	-0.013541349605986668	0.9465496473300784	0.3222953561603856	0.013018008171539086	-0.007957051367094937	-0.017015346586162338	0.9998235660925852
58														-0.09876605042596416	0.10541980471351353	9.706700561878973	0.3224954954291046	-0.9464743084922052	-0.013529182981182244	0.9465373195792199	0.3223305117992263	0.013043918392660087	-0.007984865166171855	-0.017012481519482765	0.9998233931054159
59														-0.1271521420011148	0.0945561003133213	9.72378350148408	0.3223848019179131	-0.9465125073844509	-0.013494919679164986	0.9465751716158353	0.3222206266414424	0.013012003967393174	-0.007967683025777265	-0.016968828232830663	0.9998242720076388
60														-0.11637198866715097	0.13667534361981823	9.664914644318223	0.3223863065125151	-0.9465119139349397	-0.01350059822508876	0.9465747215606307	0.3222221857343833	0.013006134051680029	-0.007960268565340222	-0.016972324524743124	0.999824271722083
61														-0.10018750458849472	0.10570311645387105	9.706682913256447	0.32230580848313056	-0.9465388562060129	-0.013533643642724046	0.946602517038708	0.3221420744936321	0.012967597191517764	-0.007914578574874848	-0.0169905130338032	0.9998243255256545
62														-0.1282957893990355	0.11532469077817042	9.667601043987052	0.3223131645423691	-0.946536057126675	-0.01355420679244138	0.946599975846302	0.3221490684046046	0.012979347203401447	-0.007918945034837381	-0.017013826293163257	0.9998238945056284
63														-0.15350298298951365	0.1190688279640899	9.594592435661466	0.32230453696915784	-0.9465380618995498	-0.013619207926364797	0.946603799442298	0.3221414730862665	0.012888684929677673	-0.0078123191501037244	-0.017046075596892696	0.9998241840324941
64														-0.1460766366857253	0.14947968784034565	9.871155655791584	0.32229366744171745	-0.9465418587773109	-0.013612549700946108	0.9466077772284511	0.32213130210205737	0.012850692457758835	-0.007778689965447875	-0.017027442216201127	0.9998247637431248
65														-0.11018919728280402	0.12306041290275416	9.808445628248867	0.32214951923860236	-0.9465911416213506	-0.013597715187705521	0.9466568985305517	0.32198751230925393	0.012835824142432624	-0.00777198294225713	-0.017007425463210997	0.9998251565950214
66														-0.09882400859725296	0.055999601833995764	9.539725922028627	0.3221319127707703	-0.9465973087895277	-0.013585498410733757	0.9466630013764162	0.3219703199317031	0.012816977337572815	-0.007758388984827204	-0.0169896461263917	0.9998255644485492
67														-0.11576947835015655	0.13154016615160227	9.630952657556424	0.3220345482096423	-0.9466313750658132	-0.013519966731446469	0.9466961952524363	0.32187401492663176	0.012784068584437633	-0.007750074449496694	-0.01691621281547034	0.9998268740587088
68														-0.09450863664799669	0.09273082502585217	9.8502070759737	0.32203511396801293	-0.9466309660752654	-0.013535118729394453	0.9466958070483154	0.3218739487573311	0.01281444608643097	-0.00777394936618805	-0.016940341754899602	0.9998262801769513
69														-0.10813149196661546	0.09424511218748602	9.585325389392674	0.32177129439644936	-0.9467208943306038	-0.01351970193069144	0.9467866339703377	0.3216128714789569	0.012658223974055265	-0.00763569496188542	-0.01687332619613356	0.9998284788030033
70														-0.1616896264746544	0.11087118730987161	9.718560758895913	0.32177318925506765	-0.9467204047110933	-0.013508885234790761	0.9467860521947078	0.32161504790074114	0.012646435599197654	-0.0076279778567523325	-0.01685930803646157	0.9998287741840346
71														-0.13976657697146963	0.15401885061661819	9.713159471229735	0.3218231545480921	-0.9467041204419268	-0.013459774700620122	0.946768684409056	0.3216648099402202	0.012681020008899431	-0.00767563802291846	-0.01682433904789991	0.9998289984775104
72														-0.11510293763527793	0.10579577863195841	9.653160826019374	0.3218183340675401	-0.946705893641236	-0.013450308655987108	0.9467704926810665	0.32166048965252697	0.012655575251506613	-0.007654674809759043	-0.01680715149704758	0.9998294482621081
73														-0.1461119942520583	0.18600082755335243	9.72483362557543	0.32186344764780994	-0.9466917493212166	-0.013366107713200648	0.9467545421855867	0.3217053795750451	0.012707698589306376	-0.007730324652041055	-0.01674456686843788	0.9998299163163518
74														-0.1659362106980823	0.13731175612104124	9.696292320553718	0.3218585853519347	-0.9466936442565457	-0.013348968481230105	0.9467560852524692	0.3217005108024365	0.012715989417699369	-0.007743776383072132	-0.0167309675067789	0.9998300398835878
75														-0.10209190836576187	0.1009909845975953	9.672696344035653	0.32184455459676375	-0.9466981824045503	-0.01336540715173538	0.9467613113383256	0.3216872525875397	0.012662182892953372	-0.0076877844236773385	-0.016729105014952964	0.9998305031434348
76														-0.11102771938658823	0.11804594945971231	9.774469252811048	0.32183155641279204	-0.9467023495476785	-0.013383222998408963	0.9467657553538746	0.3216740747681459	0.012664679674775213	-0.007684646128949449	-0.016746670802360367	0.9998302332050728
77														-0.1333626246296052	0.1161918246304857	9.667522091914444	0.32192246865936613	-0.9466731992046135	-0.01325813259711172	0.9467340454740546	0.32176491189430073	0.012727474768565701	-0.0077827573899614776	-0.01664918560639147	0.9998311023898255
78														-0.13097603968410396	0.08998420344532711	9.689757618750994	0.3219241250207693	-0.9466728068312319	-0.013245925256091662	0.9467335358095413	0.3217668464684365	0.012716473069296715	-0.007776239655295657	-0.01663410111895208	0.9998314041761184
79														-0.10616427891152139	0.10672710436291288	9.706608178469002	0.3218969703630691	-0.9466827479817594	-0.013195269788160689	0.9467427526494363	0.3217403436408509	0.012700849563545275	-0.007778224530443412	-0.016580891036737523	0.9998322725715459
80														-0.08989175847050443	0.09632261118628425	9.69222529482226	0.321902837468382	-0.9466802606936096	-0.013230542048011796	0.9467407365482796	0.3217456905035548	0.012715675460307748	-0.0077808090726855985	-0.016619105134467807	0.9998316180011032
81														-0.1259555394055833	0.09895629739070523	9.565732349839832	0.32184977379256546	-0.9467002294631799	-0.013091930493154599	0.9467594362967684	0.3216958994733586	0.012582449882785734	-0.007700187835404153	-0.016444567382266396	0.9998351280640776
82														-0.14338998143003076	0.13277639105744513	9.769284210495794	0.3218312266756435	-0.9467065400909742	-0.013091542515199372	0.9467663978630632	0.3216787705883014	0.0124962566474539	-0.0076190165934061065	-0.016416318155290207	0.9998362141292811
83														-0.1384878781881348	0.14506674087550162	9.890603974378111	0.32171220371913706	-0.9467482623211603	-0.01299945268228651	0.9468069024438066	0.3215611050106063	0.012455730774273152	-0.007612323097434173	-0.016315132123904216	0.9998379213656776
84														-0.1465183537624669	0.09417983027793814	9.670191105176505	0.32173903366971296	-0.9467391015340776	-0.01300260895845614	0.9467976901037114	0.3215876826172005	0.012469819692956892	-0.0076241870094743945	-0.016322867865235607	0.9998377047086682
85														-0.10487448884894197	0.12128067846860566	9.616502730543193	0.3215913899028717	-0.9467908058107529	-0.012889839896779689	0.9468481312613334	0.32144215658498515	0.012391783443687314	-0.007589088697625015	-0.016189811679554418	0.9998401350868651
86														-0.10009558188109845	0.13405910633732132	9.737815597711133	0.3216039590120159	-0.9467863251679282	-0.01290534861246138	0.946843725929904	0.32145422914090993	0.01241520175436483	-0.007606064355220002	-0.016212126400783896	0.9998396445143545
87														-0.10326381763294892	0.07504144488648988	9.694893450870001	0.3217049432737459	-0.9467509456287436	-0.012983698406675598	0.9468091770547088	0.3215536421837054	0.012475473673516554	-0.007636210985886984	-0.01630650635400281	0.9998378799246935
88														-0.10608173231379835	0.10132799620867812	9.672649884578725	0.32170018290603986	-0.9467529493033665	-0.01295551247914721	0.946810947710179	0.32154958109055604	0.012445730056544474	-0.007617192026783782	-0.016270214684041977	0.99983861622752
89														-0.1256173894392114	0.13810060860551496	9.664778640272871	0.32180903597839117	-0.9467169786962947	-0.012880474013746743	0.9467733970208104	0.3216582116707966	0.012495181408077812	-0.007686290154183592	-0.016215952420541906	0.999838968949881
90														-0.12344629387005865	0.11159759980976823	9.687016965891756	0.3217885544621632	-0.946723509284351	-0.012912133265844228	0.9467810386314647	0.3216387614887741	0.012416601624142584	-0.007602046111189902	-0.016220483232349273	0.999839539535536
91														-0.15179872269696054	0.10011549360719155	9.704076199189881	0.32171784043430557	-0.9467477904260871	-0.012893892725188039	0.9468055752140071	0.3215693840740009	0.012342364843939154	-0.007538825502677053	-0.016178768481863764	0.9998406940910389
92														-0.11844509358057248	0.1645951322743221	9.696010750570544	0.32171880802294905	-0.9467476506448443	-0.012880006318323058	0.9468053010448313	0.3215706495738132	0.012330419541991348	-0.007531963734547623	-0.01616178613715153	0.9998410204583316
93														-0.12440854770858284	0.11095528144219974	9.687012031253959	0.32166281811004693	-0.9467678680613203	-0.012792007353260646	0.9468245945301805	0.3215163948749926	0.012263564708009437	-0.007497908925999381	-0.016056519959531324	0.9998429724354354
94														-0.14143870898937844	0.12128048119186383	9.701380470291339	0.32165698014854177	-0.9467700210458385	-0.012779451106511602	0.9468267393114127	0.3215110667729343	0.01223763324537849	-0.007477489327251144	-0.016036246175241846	0.9998434507271468
95														-0.10546511986109969	0.1593459142888023	9.715561974950703	0.3217581833442324	-0.9467371374060792	-0.012667442802798549	0.946792303780886	0.32161358927316547	0.012207894827289515	-0.007483645655821986	-0.015921427416360368	0.9998452396229747
96														-0.12784390148484226	0.13655410012439742	9.664771419129686	0.3217654175736573	-0.9467348055616126	-0.012657961599954212	0.9467900587888695	0.3216213987953531	0.012176223367289796	-0.00745658314643073	-0.01590231980361402	0.9998457458991585
97														-0.14211863314392145	0.12070290574127043	9.701377736792063	0.32159392107054613	-0.9467943106787262	-0.012565158051780352	0.9468488476119514	0.32145224542559914	0.012071192433194265	-0.007389838048984082	-0.015779327527978317	0.9998481900350542
98														-0.1422873248260819	0.12078063724891677	9.701374296774922	0.32161419169633454	-0.9467876029542858	-0.012551756514176431	0.946841965336192	0.32147268842962495	0.012066618089873131	-0.007389477505949447	-0.015765325429787078	0.9998484135789195
99														-0.13705994730565652	0.08867219701295016	9.6896855685198	0.32151543337933375	-0.9468222943798662	-0.012464708746887827	0.9468758211103631	0.3213757319264541	0.01199242783223518	-0.00734884313852073	-0.015658281961362416	0.9998503951644684
100														-0.09604125586331705	0.07432800632345514	9.748344575346104	0.32151412298822246	-0.9468225109436759	-0.012482046684185188	0.946876343815213	0.3213743681318158	0.011987703325077195	-0.007338817496575602	-0.015673170648857274	0.9998502355250826
101														-0.09617983624962467	0.09500887119761718	9.692177900948105	0.3215238807349661	-0.9468192784113154	-0.012475902604791728	0.946873204072725	0.3213845725772392	0.011962103426984554	-0.0073163875088627815	-0.015659199788695503	0.9998506188105296
102														-0.12697411867353697	0.11034152310609029	9.68698575220288	0.3215241101132613	-0.9468194067954647	-0.012460238013827256	0.9468731817160112	0.32138511854617247	0.011949197632544203	-0.00730919714293987	-0.015640220348462658	0.9998509684670904
103														-0.13276018889430302	0.14238719302461106	9.69866617945913	0.32122517266868544	-0.9469216173116772	-0.012403189582153206	0.9469752108183096	0.32108819166717534	0.011845812235612678	-0.007234537966678092	-0.015550686150164502	0.9998529079923046
104														-0.1414599715203193	0.1152571328728853	9.667418187364243	0.3212302516334193	-0.9469196939378561	-0.012418480912222576	0.9469734650652044	0.3210930289627298	0.011854248771634997	-0.007237533967478426	-0.015567915216130972	0.9998526181982488
105														-0.13053858383776745	0.1366831424758151	9.664733574760753	0.32101229184748864	-0.9469934492873221	-0.012430425967076237	0.9470483460684153	0.32087707650954056	0.011718872802867394	-0.007109057033263079	-0.015534116569363094	0.9998540656168315
106														-0.1280284232497548	0.11036646310810568	9.686971591625428	0.32104537887339607	-0.9469824617921099	-0.012412967501462433	0.9470369367504519	0.3209099509389387	0.011740690724491552	-0.007134783413517852	-0.015524833220447651	0.9998540265554363
107														-0.12831174012570531	0.11040700718202101	9.686967381306918	0.3209942736749694	-0.947000462693894	-0.012361226695989139	0.9470545273602015	0.3208600786749387	0.011684695942026797	-0.007099188293343014	-0.015457476193186053	0.9998553235120133
108														-0.11214346181140207	0.09975157365959939	9.672597892769078	0.32099835394461973	-0.9469985711919727	-0.012400117951319671	0.9470533901958443	0.3208642156438466	0.011663243023139367	-0.0070663203580363584	-0.015487455556709448	0.9998550924193848
109														-0.10438709959735924	0.12704770361693443	9.703833996165342	0.3212326239972901	-0.9469202592020161	-0.012313569450057028	0.9469729006099903	0.321097226355527	0.011785445985960619	-0.0072060245708877296	-0.015446486318031532	0.9998547290833353
110														-0.13265727006108224	0.11609426571090214	9.720871066092235	0.32123174627915474	-0.9469205551374146	-0.012313709461237457	0.9469732654022917	0.32109649088595726	0.011776168903585935	-0.007197207497782993	-0.015443632959100312	0.9998548366664328
111														-0.12748341498435234	0.08409941869164689	9.709183440417721	0.321288116163498	-0.9469026020757368	-0.012223280832491235	0.9469539262531815	0.3211535133024014	0.011776351184001478	-0.007225507995652219	-0.015358485463210444	0.9998559441031902
112														-0.13050048522474492	0.11058202622503686	9.686936146498033	0.3212863988432138	-0.9469030681081825	-0.012232314812434177	0.9469543267892264	0.3211512971466413	0.011804546420466501	-0.007249337454045881	-0.015376083647691718	0.9998555011391081
113														-0.10026132900417302	0.09565918773891419	9.692130142121908	0.3215001840619434	-0.9468315884654692	-0.012148034083453748	0.9468810188273993	0.3213645202928429	0.011881972956422243	-0.007346280182702799	-0.015322799382199442	0.9998556115692756
114														-0.11724703752137766	0.10628371872989002	9.706485500336719	0.3214991782552285	-0.9468319375992176	-0.012147441019572472	0.9468814243857193	0.3213636557944173	0.01187303195137587	-0.007338019793101761	-0.015319356271019713	0.999855724986839
115														-0.13157424695420655	0.11109464241706447	9.686915756594884	0.32149945352552683	-0.9468320410337998	-0.0121320836856958	0.9468816250793608	0.3213647383308175	0.01182763901351985	-0.007299963688720785	-0.01529022659525427	0.9998564494470239
116														-0.1376179223552947	0.14317224270668522	9.698586910417342	0.3214983312309757	-0.9468324327726899	-0.012131251602704297	0.946882070676658	0.32136376190387367	0.011818492546657323	-0.007291587398010004	-0.01528649026888422	0.9998565676978258
117														-0.12121662806657088	0.13279846223975184	9.68422376302817	0.3216981238755336	-0.9467646278723933	-0.012126685639978641	0.9468135414109302	0.3215621736453344	0.011911602804876254	-0.007378000803417228	-0.01531365045104448	0.9998555181695046
118														-0.16619653930044756	0.1324357365509625	9.715607789846574	0.32170373287711107	-0.9467627556255269	-0.012124059274448182	0.9468115926423255	0.3215677253388148	0.011916629495065802	-0.007383514815759669	-0.015312824062806398	0.9998554901225407
119														-0.13310824902679244	0.11144738678489423	9.686890746204615	0.3216289052882377	-0.9467899737541768	-0.011983024728956026	0.9468370565260106	0.32149477227124684	0.011861694289557481	-0.007378053418733759	-0.015161035611857235	0.999857843559236
120														-0.11971581438147619	0.10646018573055334	9.706453432109807	0.32162757018691795	-0.9467903553781908	-0.01198870545550387	0.9468378353337906	0.32149403655782893	0.011819392462191386	-0.007336189479639686	-0.015152802400643874	0.999858276408875
121														-0.13381551452810442	0.11118554138179318	9.686884010327562	0.3216072813778329	-0.946797711828105	-0.011951963931669014	0.9468446877354211	0.32147412964179345	0.011811912557417682	-0.0073412445792333195	-0.015115450642169952	0.9998588046718956
122														-0.10613908196137897	0.12235592147003173	9.669848404303647	0.32160596466386315	-0.9467981789325308	-0.011950391737050715	0.9468451967553768	0.3214729600652922	0.011802937267073004	-0.007333271704870121	-0.015111066041215688	0.9998589294541507
123														-0.10403250121920074	0.09627099348108291	9.692084341286135	0.3216815063122198	-0.9467726778418533	-0.011937545345153852	0.9468193304198664	0.3215482260340769	0.011827674226750342	-0.007359622271365921	-0.015107442751986633	0.9998587905967113
124														-0.1379058817368978	0.1174979814904976	9.720781156817933	0.3216875509245642	-0.9467708766797815	-0.011917493492923505	0.9468172214376718	0.3215544065111674	0.011828475907654979	-0.007366733957658461	-0.015088761521375107	0.9998590203156383
125														-0.1047876289411513	0.09659963269218469	9.69207293539153	0.32161070671219044	-0.946795993379063	-0.011995843006554693	0.9468441027292075	0.3214782063137568	0.011747680290624972	-0.0072662545376932855	-0.015136372968518493	0.9998590359437425
126														-0.121964112196945	0.10706679593987228	9.706418769223633	0.3216026940347999	-0.9467987117280896	-0.011996110185724274	0.9468469917446769	0.32147054115811124	0.01172456359811101	-0.007244405677068451	-0.015129132081525559	0.999859304076751
127														-0.12502253100475505	0.13328980233235455	9.684168627402917	0.321389222431173	-0.946870953109668	-0.01201523459093918	0.9469203691661017	0.32125876525628555	0.011602594724497643	-0.007126160496380554	-0.015106419271159768	0.9998604972361815
128														-0.10872228057640543	0.12283645746123512	9.669813612857162	0.3213745167735127	-0.9468760094950853	-0.012010104548009937	0.946925374361746	0.3212441554250713	0.011598620396395932	-0.007124279504495426	-0.01510017377037917	0.9998606049813374
129														-0.10913837044261494	0.12290511037946328	9.669808053947023	0.3211621141238822	-0.9469478248367127	-0.012029691953578295	0.9469982999571203	0.32103340484316634	0.011479235738015722	-0.00700830434583016	-0.015078793447194039	0.9998617472722787
130														-0.11222455712024623	0.12885843261629137	9.703722644791803	0.32116956953555714	-0.9469460560036895	-0.011969737816777378	0.9469954545789572	0.3210409075922768	0.011504114877800679	-0.0070510007190069095	-0.015030058928180868	0.9998621808616805
131														-0.13737213735277196	0.11225793735646482	9.686821858106658	0.3211364551846298	-0.9469569434441124	-0.01199685018807624	0.9470068281100904	0.32100777735600494	0.011492362238631822	-0.0070316900043	-0.015051715514933936	0.9998619910746391
132														-0.1377715589921165	0.11235497181638451	9.68681506006563	0.3211282711105214	-0.9469598056637106	-0.011989993782907136	0.9470095203544419	0.32099950067629796	0.011501692206659192	-0.007042858199396699	-0.015048156794573457	0.9998619660360466
133														-0.13550840957139945	0.08619527444774834	9.709056373232407	0.3211162576853617	-0.9469645091780788	-0.01194015943228693	0.9470137317429584	0.32098838810699504	0.011465015950655461	-0.007024310672520979	-0.014989097957953392	0.9998629836142463
134														-0.13852559623726282	0.11257904890574118	9.68680170538185	0.32112037865588666	-0.946962947512446	-0.011953177420258965	0.9470123139935703	0.3209923070780482	0.011472399106337705	-0.007027058875734547	-0.015003827353453762	0.9998627433844629
135														-0.12522690627699257	0.10802186284817873	9.70636664139971	0.3212443781468807	-0.94692054528617	-0.011980418355257804	0.946970226273427	0.3211158833421418	0.011488255613929523	-0.007031362647372025	-0.015035637011417998	0.9998622352899336
136														-0.12285304977522535	0.10255607887150361	9.672438467478209	0.32125437550060904	-0.9469168019894669	-0.012008177703378104	0.9469667247278093	0.3211253062027449	0.0115134692634527	-0.00704616775281838	-0.01507009708779341	0.9998616122713009
137														-0.12605421303317516	0.10843821942778362	9.70635128894359	0.32114034276390296	-0.946955816138948	-0.011981758222497255	0.9470058092442366	0.32101248913747327	0.011444609011790468	-0.00699124503590397	-0.01502212030251004	0.9998627197743026
138														-0.12640058713684146	0.10842080301376257	9.70634698181885	0.3211164026675522	-0.9469633501983942	-0.012027855955371097	0.9470140790280707	0.32098832387664333	0.011438096759403226	-0.006970657104233608	-0.015063509415001012	0.999862240823024
139														-0.11572639496380874	0.13017600045169167	9.703663928039571	0.32121478895699723	-0.9469296263100058	-0.012055794113394847	0.9469802407020711	0.3210853358028017	0.011516546889124317	-0.007034420740831323	-0.015115883989860695	0.9998610038280551
140														-0.1130011248209688	0.12461991404761955	9.669741736673853	0.3212139612524847	-0.9469301346701616	-0.012037904719560507	0.9469805798699721	0.3210848511978006	0.01150215981536365	-0.007026552897346633	-0.015094316309000985	0.9998613849777103
141														-0.1412236921398468	0.11359668972789794	9.686750864459453	0.321219031697566	-0.9469284469976653	-0.012035362141118874	0.9469788681976401	0.3210899691810431	0.011500212103845605	-0.007025443928663718	-0.01509132061505939	0.999861437990134
142														-0.13044881743397405	0.1351608883645163	9.68407111942951	0.32121661975266114	-0.9469290733397655	-0.012050446405328897	0.9469797664124933	0.32108754679121754	0.01149388102156381	-0.007014641830800835	-0.015103554531670615	0.999861329105439
143														-0.1308567928206701	0.13529661533606588	9.684063719356155	0.3210339730488484	-0.9469898662282981	-0.012140074521236615	0.947042506232836	0.3209056043002284	0.011405459961515187	-0.006905037052740237	-0.01515870672634011	0.9998612574120896
144														-0.1423597850675384	0.11394604738908488	9.686730131311686	0.3210059797743979	-0.9469994611665601	-0.012131838249978764	0.9470519662050277	0.3208776524534927	0.011406378177427078	-0.006908998210286779	-0.015150996870846041	0.9998613469064348
145														-0.12889989985985567	0.10910144234849278	9.706306484227444	0.32106906335147795	-0.9469784768733258	-0.012100450292480882	0.9470302347046347	0.3209403446155866	0.01144682284798863	-0.006956372178754468	-0.015134712970673942	0.9998612650510101
146														-0.1292986569497359	0.10889355337523478	9.706303514803965	0.32109389008738837	-0.9469699815627752	-0.012106517564738305	0.9470219878702042	0.3209654645887017	0.011424755215142982	-0.006933126200725664	-0.01513355742567045	0.9998614440014821
147														-0.11289386250815499	0.09854957457860879	9.691962271625766	0.3212456402294689	-0.9469193680342585	-0.012039479854155669	0.9469695277567285	0.3211158486991238	0.011546653820032705	-0.007067682346912528	-0.015110332750850893	0.9998608531742811
148														-0.0990375454179424	0.11457241400631589	9.655368833146989	0.32126393242464035	-0.9469131565395809	-0.01203992090101244	0.9469633399165703	0.32113416971455855	0.01154460461837457	-0.0070653079982109	-0.015110228786740745	0.9998608715260849
149														-0.0885559253378402	0.11566024771131131	9.708862122638543	0.32123541386455695	-0.9469221870059559	-0.01209051839766042	0.9469731635557448	0.3211053597551132	0.011540166453039076	-0.007045309396417964	-0.015156506602669307	0.9998603122052159
150														-0.13060657536469364	0.10953253884889914	9.706278813796954	0.32122738618892327	-0.9469249939097195	-0.012083967531823043	0.9469758021602985	0.3210972318839499	0.011549796505747036	-0.007056662461219105	-0.01515333578928221	0.9998602802038723
151														-0.11714349033873173	0.10496665811482671	9.725855673298607	0.3212291252170734	-0.9469240099329927	-0.012114806011449184	0.9469751192776081	0.32109839430625864	0.011573445601986075	-0.007069128760565872	-0.01519014767419055	0.9998596335647332
152														-0.10085268669846274	0.09447766906535653	9.711518817430354	0.3212334657979736	-0.9469222702642974	-0.012135671754438004	0.9469738774470189	0.3211029759977666	0.011547910561512383	-0.0070381733696342815	-0.015201739469124065	0.9998596757709215
153														-0.14866678734578123	0.12019523491028991	9.720589561193998	0.3212943094856851	-0.946901500253414	-0.01214559631928457	0.9469532977722661	0.32116382025912327	0.011543500110263139	-0.007029831459357034	-0.015210173384932144	0.9998596061924163
154														-0.11805558524284797	0.12571373971884145	9.66966719072843	0.32130041437814805	-0.9468997685295167	-0.012119079139041564	0.9469509290152799	0.32116960631835567	0.011576787741471188	-0.007069777756687438	-0.015195799948027663	0.9998595430891336
155														-0.13799767739805532	0.14219982124855454	9.717904821005037	0.3211037360627368	-0.9469673852632531	-0.012048316655492271	0.9470181803406929	0.32097499424027165	0.011472540113752474	-0.006996912944746358	-0.01509385040790828	0.9998615998672559
156														-0.14668815021821222	0.1148988718181059	9.6866542984965	0.32109467265965047	-0.9469702428879156	-0.012065250697512582	0.9470214326695439	0.32096611518663304	0.011452465521691619	-0.006972607411608364	-0.015103376668909083	0.9998616258058315
157														-0.08864542829781134	0.11063877038982536	9.674910689094848	0.32108445342554726	-0.9469723812299328	-0.012168934058855371	0.947025208651905	0.3209553227531358	0.011442682126439738	-0.0069302197825102775	-0.015198354652448958	0.9998604813020788
158														-0.13114489470677793	0.08387328760103505	9.728485977263299	0.32108296207499315	-0.9469728988423479	-0.01216800407911358	0.9470257832442953	0.32095399424709914	0.011432385899820065	-0.006920790105030491	-0.015194157921840926	0.9998606103999541
159														-0.1202693338587981	0.10544430437573635	9.725812354657114	0.32108238455388444	-0.9469728679649004	-0.012185633652923234	0.9470260673325271	0.3209533981549331	0.011425585564386958	-0.006908699000509056	-0.015208666974220587	0.9998604734296621
160														-0.1287701104847361	0.07819966140577936	9.694563255849078	0.32108170970544164	-0.9469733198201892	-0.012168288349653458	0.9470263543523548	0.3209530607333319	0.01141126496031685	-0.006900714073112026	-0.015187638217840879	0.9998608482137128
161														-0.1483822817062701	0.11518570496771152	9.686625089304691	0.321063290055913	-0.9469800479056137	-0.012130649082177852	0.9470323271161823	0.32093450222233316	0.011437511976480743	-0.006937951814586212	-0.015160282054947483	0.999861005676606
162														-0.09312746253854065	0.11714474938484382	9.708801550793783	0.3210692909989127	-0.9469783522421109	-0.012104163014145923	0.9470300022160558	0.32094018977948047	0.011470374316887211	-0.006977483795324315	-0.015145790475525221	0.9998609502079568
163														-0.10713360223043704	0.12212380213746919	9.689206676625624	0.3210230601948126	-0.946994446832517	-0.012071142925704277	0.9470457331740091	0.3208944951863895	0.011449988470539746	-0.006969512182430851	-0.015107634740329853	0.9998615830566207
164														-0.12425673836090832	0.13282164756144374	9.703522592134085	0.3209877344351336	-0.9470063865184563	-0.012073865804134156	0.9470575349603326	0.32085877128894824	0.011474944958681364	-0.0069928404141968836	-0.015117962170960137	0.9998612640775414
165														-0.13584615155395144	0.11149357770461703	9.706184568107586	0.32103225165095145	-0.9469907151193299	-0.012119359624183658	0.9470425532850407	0.3209029618701288	0.011475684307677104	-0.006978228089641025	-0.015161614055195593	0.9998607051944637
166														-0.14739939208262434	0.0900226377050366	9.708848394912838	0.3210175283361241	-0.9469957649996052	-0.01211476676529737	0.9470475628663084	0.3208883378857904	0.011471193393884443	-0.0069756841923097335	-0.015155714490139086	0.9998608123875754
167														-0.12275015356145356	0.10684537422899082	9.72576606953488	0.3210323526576013	-0.9469909286257261	-0.01209998544260319	0.9470425360203587	0.3209033344035583	0.011466688135918114	-0.006975923971328811	-0.015140378768837141	0.9998610430532251
168														-0.12274277785551643	0.1274237763315564	9.669586446168548	0.3210168191126119	-0.9469960430176557	-0.012111827100969492	0.9470478308322879	0.320887724298764	0.011466233480069775	-0.006971941098412444	-0.0151513333823634	0.9998609048933045
169														-0.10682718196776489	0.09664981307490976	9.711433560236834	0.32109986731234685	-0.9469678716444778	-0.012113021304415404	0.9470193262998872	0.32096998281794425	0.011518061657971264	-0.007019318093767307	-0.015169713345233655	0.9998602947264794
170														-0.1347484401023701	0.10637486215314325	9.672238817648676	0.32105132704781103	-0.9469842473244598	-0.012119435637225472	0.9470358098478795	0.32092143207694807	0.011515611119297761	-0.007015715687626576	-0.015174641775216158	0.9998602452244931
171														-0.12688954376608047	0.13384788990930402	9.703474419029497	0.32100591319562755	-0.9469992584074493	-0.01214941435551442	0.947051384560106	0.3208760541564073	0.011499255271549902	-0.006991330075687031	-0.015197448626497871	0.9998600696392557
172														-0.1246051371390288	0.10765036139617988	9.725733603594895	0.32099854025892605	-0.9470019578473565	-0.012133795156974879	0.9470540422718479	0.3208692172979813	0.011471111852530516	-0.006969804028159854	-0.015173569911320796	0.9998605825853696
173														-0.12187678956721695	0.10191908062278733	9.691818624970272	0.32089109014828326	-0.9470384947963824	-0.012124258214403945	0.947090827906611	0.32076271790555033	0.01141238349404751	-0.0069189564688009264	-0.015144905930628536	0.9998613703237744
174														-0.13896851531009424	0.11258248470148847	9.706127796535492	0.32090934109281655	-0.9470322989917137	-0.012125158384305078	0.9470846666418828	0.3207810039864776	0.011409719245530855	-0.006915852167932644	-0.015145037071516935	0.9998613898140554
175														-0.15351355947647546	0.0969813391121599	9.742700220054207	0.3209043125590484	-0.947033917946787	-0.012131794564809279	0.9470862757986591	0.32077568920380867	0.011425559489473684	-0.0069288076052446395	-0.015156367446711701	0.9998611284328388
176														-0.09492516417013394	0.11332663430652508	9.67482000250313	0.3209159297864564	-0.9470299463817988	-0.01213452369817531	0.9470824608722561	0.32078753717071234	0.011409132486757413	-0.00691218615531941	-0.015153766925625202	0.9998612828940414
177														-0.12876328164373316	0.1345676490176059	9.70343978130933	0.32097330915932354	-0.9470109524802737	-0.012099202028158012	0.9470622687240007	0.32084370590067646	0.01150545710821966	-0.007013841077620838	-0.015151642363953282	0.9998606071683257
178														-0.0955293041805563	0.11385347127786713	9.674807870356643	0.3209453619136404	-0.9470205290600967	-0.012090996851256803	0.9470717077582497	0.3208157943810859	0.01150679970736493	-0.0070181927869621425	-0.015144095032967408	0.9998606909743164
179														-0.1293601918724641	0.13495259293967324	9.70342649522145	0.3208945008491012	-0.947038726570362	-0.012015394325329758	0.9470890663987793	0.32076612808257204	0.011462608027994628	-0.007001402194885906	-0.015057936475561992	0.9998621099513688
180														-0.12716402610601443	0.10867107597785106	9.72568913138869	0.32087295412492794	-0.9470460665337103	-0.01201229262749588	0.9470964855878413	0.32074487923542516	0.011444187669378538	-0.006985291568811782	-0.015048930436387655	0.9998623582245802
181														-0.12459573977393541	0.10290811750275573	9.691773601470977	0.32096317739018354	-0.947014465754974	-0.01209299013552369	0.9470657882275796	0.32083383694471196	0.011490946010085622	-0.00700225167144587	-0.015141027777344225	0.9998608491932139
182														-0.12503926289141687	0.10288199432774815	9.691768166303213	0.3209549569529845	-0.9470172421653171	-0.012093744205361353	0.947068743192296	0.3208259751295394	0.01146688058475266	-0.006979346349959213	-0.015133959289524991	0.9998611163560419
183														-0.12793337603966254	0.1291675339605835	9.669496028174693	0.3209164766375437	-0.947030167888796	-0.01210273238008778	0.9470818812689601	0.3207876070278602	0.01145518875387088	-0.006966002770069228	-0.015138437365138549	0.9998611416189498
184														-0.10084119037141669	0.11978318662843288	9.70869230211475	0.3209141095595297	-0.9470307716918203	-0.012118240565785397	0.9470827636302321	0.3207852275777269	0.011448869045832253	-0.006955078729736001	-0.015151080380686936	0.9998610261647175
185														-0.1318210312709667	0.1352912755568555	9.703388661491982	0.3209100275614511	-0.9470314117197972	-0.012176182756363894	0.94708410402817	0.3207803518448615	0.011474570468869572	-0.0069608984812981	-0.015214173861714898	0.9998600276068836
186														-0.11544436123081005	0.12501028568988853	9.689074407913155	0.3209085131122616	-0.9470319351678179	-0.012175384362548163	0.9470846872387827	0.32077900057434305	0.011464204653750216	-0.006951360290974283	-0.015210080960465541	0.9998601562355016
187														-0.14067062863953536	0.10833422241110775	9.672132751250519	0.32072865022073754	-0.9470924569348061	-0.012207003923038518	0.9471462231558064	0.32060013669528864	0.011383510559324172	-0.00686766985780756	-0.015212835638219594	0.9998606926680182
188														-0.143985831801865	0.11424680442332437	9.70603521643483	0.3207131339379629	-0.9470975529024871	-0.012219288269392708	0.9471515096648134	0.3205845477754923	0.01138268277901633	-0.006863196001490011	-0.015224093198064859	0.9998605520406041
189														-0.14139769722334689	0.10854760922135681	9.67211975739557	0.320645216519492	-0.9471228451302174	-0.01203998985093442	0.9471745342988052	0.3205188585655266	0.011316487073909316	-0.006859059630158296	-0.015032549228074833	0.9998634785632967
190														-0.11977427550963693	0.1311774393332775	9.722961684673432	0.3206500439163558	-0.947121249632923	-0.012036936080656074	0.9471728737544766	0.3205236638347711	0.011319370372124897	-0.006862693357987983	-0.0150306159456413	0.9998634826935973
191														-0.11719295903587568	0.1255161154883755	9.689046876813995	0.32056391471170187	-0.9471511291829853	-0.011979777631719606	0.9472022070191024	0.3204386272373381	0.011272319743173215	-0.006837806874341367	-0.014960770757116494	0.9998647007148032
192														-0.11762753181756413	0.12555675831411245	9.689041083530775	0.3205619408490472	-0.9471518167671048	-0.01197823333654831	0.9472029467873978	0.3204368292071514	0.011261264801839478	-0.006827860306290774	-0.014955750814978326	0.9998648437869981
193														-0.12371068362792384	0.07210557088159322	9.68006343246114	0.3204289307252256	-0.9471962258860677	-0.012025390699572275	0.9472483640171042	0.32030419494498863	0.011214257334384312	-0.006770319136318525	-0.014984404153370627	0.9998648060667804
194														-0.14340068038441756	0.10897847356113895	9.672085423052058	0.3204269469829769	-0.9471969148283288	-0.012023983818345995	0.9472491077476193	0.3203023892038332	0.01120300592050927	-0.006760141899945433	-0.014979452927641057	0.9998649491163699
195														-0.11872944836449491	0.12596285772316976	9.689022372709438	0.32049820051891764	-0.947173774603935	-0.011947559025617312	0.9472243958828332	0.320373203482599	0.011267401417349193	-0.0068445093716139	-0.014928201259099563	0.9998651416559288
196														-0.11944970537755986	0.10570446311364605	9.745197017136737	0.32051680217770784	-0.9471676857407595	-0.011931245126571453	0.9472181153834572	0.3203920253260963	0.011260195240496575	-0.00684261727616591	-0.014910573293349674	0.9998654176402322
197														-0.10246243645142836	0.11574622243437356	9.674714468709455	0.3203300224606431	-0.9472311735294549	-0.01190716609336768	0.9472819645636995	0.3202070287572813	0.011150710594894276	-0.006749542406812322	-0.014851351064626225	0.9998669316708364
198														-0.11962638377233346	0.12635918515270328	9.689006179613056	0.32031385818376745	-0.947236499512614	-0.01191831559068636	0.9472874651561461	0.32019081271498595	0.011149072201777485	-0.0067446729700495435	-0.014861273296952993	0.9998668171024183
199														-0.13123319154270585	0.10507361626363615	9.691662762401606	0.32029871303181184	-0.9472420657281677	-0.011882901379685736	0.9472923168593195	0.32017549655983296	0.011176664169954258	-0.006782392606485062	-0.014836452328598412	0.9998669305626793
200														-0.10651078378922058	0.12194396235186741	9.70860485759037	0.32029062885483084	-0.9472450067284892	-0.011866351407313288	0.9472952098400937	0.3201679583476269	0.011147370161854629	-0.006760065220855961	-0.014811336045645126	0.9998674541371737
201														-0.11495644320952872	0.09481759067847548	9.677358229485948	0.32022981639408526	-0.9472653708199313	-0.011882000571847514	0.9473156724179844	0.32010676167012425	0.011165926935512369	-0.00677358719389971	-0.014831668093819493	0.9998670612326832
202														-0.14059528425167675	0.14339308795824757	9.737182084936128	0.32022759885404256	-0.9472661423072233	-0.011880259701131955	0.9473164960366545	0.32010472720661126	0.0111543694047045	-0.006763229185089605	-0.014826302923281312	0.9998672109198388
203														-0.1019315383054462	0.09046035263019503	9.696958278441338	0.32028810633012	-0.9472445329155533	-0.011971792057165285	0.9472960198715402	0.32016409890994396	0.011189303138311256	-0.006766068208580635	-0.014924631679805782	0.9998657288307355
204														-0.1190815573660708	0.10120968341180614	9.711244575306202	0.3202794796917808	-0.9472475364288017	-0.011964932842631937	0.9472988646544779	0.3201553965249945	0.011197459544966542	-0.006776128149602969	-0.014920683814423954	0.9998657196252958
205														-0.161227873890612	0.09509070316158325	9.708580285282816	0.3204592479218434	-0.9471864209801143	-0.01198975947418742	0.9472378608743987	0.3203343835104039	0.011239113270342686	-0.006804803263924143	-0.014958831902650264	0.9998649548817322
206														-0.10556823382620505	0.1172006922639	9.674663566804057	0.3204514775097619	-0.9471893450555036	-0.01196641864286542	0.9472404056573425	0.32032670729126717	0.011243419677649346	-0.006816483838718932	-0.014938045697498492	0.9998651860820115
207														-0.10884337165652501	0.1230748374242653	9.708564717174555	0.3204585792135033	-0.9471869612365925	-0.01196492673825001	0.9472380944581887	0.3203340256205789	0.011229623187486066	-0.006803779514467981	-0.014932263495636575	0.9998653589815052
208														-0.12039967220028913	0.10167613545568153	9.711223450273858	0.3204500050352367	-0.9471899485524974	-0.011958078191503695	0.9472409217786825	0.320325373489457	0.011237936052137193	-0.00681398420815053	-0.014928377673314551	0.999865347513981
209														-0.13449549241314634	0.1064390939469841	9.691603138634981	0.3204828973801537	-0.9471782799544581	-0.012000769530985729	0.9472299964172157	0.3203581987855002	0.011223117140579778	-0.006785747877955248	-0.014964305978689318	0.9998650024739903
210														-0.0933001576045194	0.11265732661529347	9.694261422904866	0.3204793237320084	-0.9471790870992625	-0.012032457025997374	0.9472312996737742	0.32035445848879107	0.011219886126262787	-0.00677259024357823	-0.014993261425099165	0.9998646579078748
211														-0.12421730966126547	0.12805509787674618	9.68892614275142	0.3204092293555005	-0.9472041744462997	-0.011923827209333758	0.9472549978352268	0.32028563119930603	0.011184074545812616	-0.00677457157305939	-0.01487838562364336	0.9998663604808571
212														-0.13880769992968148	0.11243576096119923	9.725487124435547	0.32040628906296126	-0.9472049816382917	-0.011938705478653435	0.9472560761869699	0.3202827001373984	0.011176677483192463	-0.006762843763396151	-0.014890089062904384	0.9998662656535278
213														-0.10820929417681319	0.11769140064270286	9.674628430813826	0.3202320665943273	-0.9472637222950798	-0.01195257078607555	0.9473156098341079	0.32010972441274893	0.011086013757256699	-0.006675244516758926	-0.014872953979075959	0.9998671093453257
214														-0.1228464006141215	0.10194889121513666	9.711189947973054	0.3202430429017184	-0.9472599857079292	-0.011954620431521882	0.9473120222046333	0.32012094878117503	0.011068456893752958	-0.006657781884127656	-0.01486935197155577	0.9998672793487791
215														-0.12323749305094865	0.10191342036862587	9.711185365094847	0.32039262512245176	-0.9472092571705729	-0.011966156338409454	0.9472611725573473	0.32026976638714344	0.011115201464830015	-0.006696023627748472	-0.014896303860208083	0.9998666228047022
216														-0.13732742429507308	0.10678284163477711	9.691559643193827	0.3204038035186074	-0.9472055405800115	-0.011961044491925775	0.9472572734026818	0.320280740016166	0.011131287455368103	-0.006712724970273171	-0.014896693231228676	0.9998665050166688
217														-0.10958181455269556	0.11790931887366365	9.674610328202872	0.3203881462966728	-0.9472105456038403	-0.011984073158040811	0.9472628513013167	0.32026544369524007	0.011096671536594637	-0.006672799793328254	-0.014907309333561916	0.9998666140397688
218														-0.09916385969775408	0.11894832432483404	9.728131289681146	0.3203860283376192	-0.9472112798941905	-0.01198265777096383	0.9472636412411568	0.32026350723255975	0.011085121453796518	-0.0066623440763367864	-0.014902254068091841	0.9998667591209836
219														-0.12455476315959774	0.10218006900724755	9.711165757647063	0.3203938618376684	-0.9472080618366592	-0.012027505493024816	0.9472610940999884	0.32027104391634886	0.011085036455754283	-0.006647774156683047	-0.014944765651286761	0.9998662215908637
220														-0.13870384890890927	0.10699200081532027	9.691537734764832	0.32039845576723214	-0.9472065471987434	-0.012024412077384937	0.9472595186560009	0.32027562458011016	0.0110873177739729	-0.006650853898087051	-0.014942598289926569	0.9998662335026478
221														-0.12537416238438587	0.10245248910861995	9.7111523434335	0.3204720857098331	-0.9471812831795289	-0.012052347288866797	0.9472341584907075	0.320347898394079	0.011165705660590308	-0.006715003290498799	-0.01499469202347896	0.9998650248618213
222														-0.12577523541503935	0.10265566634592554	9.711145010924948	0.3204767514902249	-0.9471797431247935	-0.01204931401878504	0.9472325567073205	0.3203525471816439	0.011168215074304747	-0.006718278647533138	-0.014992655811540455	0.9998650333938732
223														-0.12860901939267214	0.12896032813702157	9.6888568369682	0.3204168655357926	-0.9472009536709668	-0.011974374515198461	0.9472528946494335	0.32029373058446353	0.011130126978506662	-0.006707149803632019	-0.014909041320606605	0.999866358384166
224														-0.1266205516748071	0.1027272346620007	9.711133270501273	0.3204131543777161	-0.9472018102823997	-0.012005877705028584	0.947254243039427	0.3202898572923016	0.011126830612566209	-0.006693993242115901	-0.014937801492299648	0.9998660172948436
225														-0.14090771247578562	0.10760573348972986	9.691499148246894	0.32033164586704904	-0.9472293224078664	-0.01201030502705534	0.947281819728714	0.320208334777823	0.011125482024207224	-0.006692583026363596	-0.014940987569404466	0.9998659791306468
226														-0.12454833076001315	0.09725549755378547	9.677215339801606	0.3203692074868297	-0.9472165915584656	-0.012012475624239568	0.947269096190539	0.32024581693968224	0.011129965633111473	-0.006695543041406092	-0.014944745196819877	0.9998659031562094
227														-0.11968623988035389	0.13050919801274988	9.742354811163786	0.32034995412155715	-0.9472230096838844	-0.012019851068999134	0.9472755105301457	0.32022626422871014	0.01114660701634499	-0.006709250641374738	-0.014956925604179612	0.9998656291383872
228														-0.12497517703975763	0.09757325907289821	9.677206637459928	0.3203553054208222	-0.9472214496543434	-0.012000150143058098	0.9472736671941853	0.3202317714459722	0.011145043609365487	-0.006713995026194922	-0.014937800082302133	0.9998658832060876
229														-0.1283579627443491	0.10347447166162949	9.711102527254946	0.3202820862228226	-0.9472453555735916	-0.012067377056206866	0.9472987052847779	0.3201584010348779	0.011124801686953591	-0.006674444586643881	-0.01499448535464067	0.999865299527096
230														-0.1257381979513176	0.09773030655734442	9.677195169140669	0.3202932126263262	-0.9472415629297626	-0.012069772321259338	0.9472950649797955	0.3201697706961823	0.011107555864302189	-0.006657162340778528	-0.014991310507562442	0.9998654623492271
231														-0.12914119159410725	0.10360376533008125	9.711090764233692	0.3201000520820425	-0.9473069022307156	-0.01206605333645304	0.9473609153625072	0.3199779631092752	0.011018129058551663	-0.006576678537468694	-0.014957811019124046	0.9998664966828972
232														-0.10452260560735485	0.12042330301383782	9.728057042354187	0.3200912269212055	-0.9473098771883923	-0.012066608031649072	0.9473640649249477	0.3199695152381197	0.010992625126025158	-0.006552475635657779	-0.014950113698393355	0.9998667707067019
233														-0.11302095870712507	0.0933095150186864	9.696808370132445	0.3199761295670629	-0.9473480047329733	-0.012125775675691286	0.9474033228355202	0.3198546199166772	0.010952899076214084	-0.006497721715949912	-0.014992666421053685	0.9998664908707011
234														-0.13578148279082927	0.1362230775685429	9.722681934750801	0.31994601639504533	-0.9473578580945915	-0.012150526711605061	0.9474134931961659	0.319824227351311	0.010960680132893912	-0.006497653636507766	-0.015018398901514796	0.9998661051319098
235														-0.10277261556495175	0.11526492487038603	9.694134974132798	0.3198105954814663	-0.9474031752782571	-0.012182220260146415	0.9474597377608388	0.3196896834330567	0.0108881416520509	-0.0064209298355544925	-0.01502430627845205	0.9998665120309305
236														-0.14239066851719914	0.08272515346341598	9.713714037730922	0.319822405413049	-0.9473993661575432	-0.012168401706728643	0.9474558641370264	0.3197019139664311	0.010866081104094703	-0.006404257035082246	-0.015004239750339906	0.9998669202855661
237														-0.1226019603536926	0.1520198904829121	9.686108444432248	0.3199500857423056	-0.9473558850801116	-0.012197115952976675	0.9474125414229639	0.3198287401940829	0.01091115485854385	-0.0064357585390202865	-0.015046725555578882	0.9998660795637
238														-0.10120793668134859	0.08907575465875611	9.716413578687446	0.3199472115002168	-0.9473566533727922	-0.012212827827314195	0.9474135973202242	0.3198258851854634	0.010903154501678456	-0.00642319748942817	-0.015059033024696333	0.9998659750478429
239														-0.14899608115553972	0.115002642512975	9.725306357482266	0.319878438061195	-0.9473798656925027	-0.012213719498411234	0.9474370784281098	0.31975772277227743	0.010861912681250127	-0.006384926243735098	-0.015046222381150554	0.9998664130317205
240														-0.09086031004888345	0.11063881732337325	9.713748090347542	0.31987694096594416	-0.9473805020573648	-0.012203563406014232	0.9474378777603724	0.3197570364588491	0.010812280979301508	-0.006341168913611193	-0.0150207175790315	0.9998670749755787
241														-0.13291603743727645	0.10437185479990699	9.711031606829982	0.3198983888113429	-0.9473735637942053	-0.01217996140277534	0.9474302962573218	0.31977794830247697	0.010858062130117318	-0.006391757948325288	-0.015013141021272176	0.9998668666512582
242														-0.13333540097673632	0.10464110530616803	9.711022960555148	0.31988892049255047	-0.9473766301270196	-0.012190128599961348	0.9474334400813952	0.31976824053574837	0.010869634777926726	-0.006399621992309529	-0.015026411209755241	0.9998666170067442
243														-0.10890158654467917	0.12147194218504635	9.727995970072639	0.3200006680082982	-0.9473394142278729	-0.01214935079062274	0.947395599826545	0.31988019389160555	0.010873775111240628	-0.006414819057766787	-0.014989856779154149	0.9998670683096812
244														-0.12008069125609967	0.12038790206870656	9.674455187962675	0.319997659835154	-0.9473402331442792	-0.012164718088323473	0.9473966998934608	0.31987720653718116	0.010865807330798238	-0.006402400409653989	-0.015001846690087039	0.9998669680836958
245														-0.11804402649769476	0.09417777453492285	9.696740127991696	0.3200679252198455	-0.9473166022749209	-0.012156409822107177	0.947372796806915	0.31994716337276685	0.010890202934935929	-0.0064270612030278415	-0.01500225663090874	0.999866803719512
246														-0.10708023755137795	0.11568960252739904	9.694083289887187	0.32006652589165097	-0.9473173016979228	-0.0121387358244338	0.9473733332237435	0.31994611593386596	0.010874299764436069	-0.006417670931325067	-0.014980413966223767	0.9998671915295637
247														-0.12096662427565552	0.12044096931352095	9.674443489520206	0.3200494885202501	-0.9473241513639986	-0.012053096714353902	0.9473789246420087	0.31992968266227423	0.010870662158642536	-0.0064418973972798325	-0.014897999667600713	0.9998682671051355
248														-0.11877273629664171	0.09419185562197273	9.696731092947157	0.32006038551718174	-0.9473204411481709	-0.012055347586331444	0.9473753633586536	0.3199408298384135	0.010852939848985398	-0.006424213854734016	-0.014894535412076675	0.9998684324905984
249														-0.12464924631079909	0.1264544793707352	9.708331216402932	0.3201279220944463	-0.947297247425125	-0.012084639683244854	0.9473523106302081	0.32000747644446	0.01090020932159142	-0.0064585632379254776	-0.01493787268757109	0.9998675646906804
250														-0.13629040000411896	0.10504261453067981	9.710977603399726	0.32009168945041316	-0.94730927462504	-0.012101593042310982	0.947364865050083	0.3199717791087369	0.010856935231844285	-0.006412707183331291	-0.014939838800034709	0.9998678304672126
251														-0.12311840586184518	0.10022841888388456	9.730610903556856	0.3201182001539676	-0.9473001434478011	-0.012115120880958171	0.9473558900655036	0.3199980894847126	0.010864634569637478	-0.006415254350542558	-0.01495529838919422	0.9998675830137251
252														-0.09541895239995069	0.11132307912286875	9.713696561482845	0.320090386413914	-0.9473098620136331	-0.012090072667400921	0.9473652571475009	0.3199704962595136	0.010860528223376721	-0.006419818941480313	-0.014930065477164113	0.9998679308136684
253														-0.1373854006396253	0.10521166990932826	9.710960342577074	0.3200003154036982	-0.9473397040222203	-0.012136034139103594	0.9473960398199951	0.3198807457077277	0.010819069223282594	-0.006367250185429548	-0.014959736246331883	0.9998678234729409
254														-0.13790165239964747	0.10527227103922644	9.710952369915391	0.3199898259461859	-0.9473428152198704	-0.012169705921677317	0.9473997662065639	0.3198703063182397	0.010801394707324788	-0.0063398961093682525	-0.01498591295737264	0.9998676053008999
255														-0.12161832995413485	0.09476199338972448	9.696690265246236	0.3201014226333804	-0.9473054550801725	-0.012143064005132376	0.9473616490385124	0.3199812047123817	0.010859768038174405	-0.006401965254206103	-0.014980100338770555	0.9998672969123071
256														-0.14133206321635428	0.13179458922485848	9.688641459113285	0.32009779244356884	-0.9473063657442298	-0.012167690545638116	0.9473627379404248	0.31997697050119234	0.010889495438365638	-0.006422307589717236	-0.015012920080372694	0.999866674210059
257														-0.12497525402031703	0.12140772678081611	9.674380452409602	0.32001635389551303	-0.9473341732872332	-0.012144849180461922	0.9473906826547004	0.31989682226619565	0.01081284065593658	-0.006358274803946284	-0.014966202797782192	0.9998677838171071
258														-0.11165641526223619	0.11659357034330081	9.694020832163234	0.31999342132199843	-0.9473417477147839	-0.012158262513252333	0.9473985552854436	0.31987403960192684	0.010797047364884344	-0.0063393811761541345	-0.014973704466301434	0.9998677914708822
259														-0.1232194705779926	0.09516305386298392	9.696666123162098	0.31996072117131985	-0.947353565523445	-0.012097884011041374	0.9474094017807811	0.319841569108428	0.010807223863743462	-0.006368855855744196	-0.01491953619501724	0.9998684138999563
260														-0.12282912741565749	0.1157151178485983	9.640470715837324	0.3199583864120759	-0.9473543714353401	-0.01209652375407522	0.9474102627691046	0.3198394202339599	0.010795335297294394	-0.0063580629406523245	-0.01491442881094076	0.999868558786047
261														-0.09888328616376657	0.11204942019973085	9.713653562108044	0.32002383960498837	-0.9473332592540794	-0.012018235957233817	0.9473878308919209	0.3199049974413201	0.010820835918268795	-0.006406244015159121	-0.014848855952970984	0.9998692272064913
262														-0.14104487673985203	0.10592354195920775	9.710900142481272	0.32002730027384024	-0.9473319236350739	-0.01203135658634685	0.947386651994113	0.3199082846140064	0.010826867446736868	-0.0064077065181415505	-0.014863239794688387	0.9998690041200311
263														-0.12466966681937662	0.09556359091065347	9.69664364769865	0.32007425458864003	-0.9473161883544433	-0.012021265787616356	0.9473705836538059	0.3199548691503788	0.010856285479492335	-0.00643807245802165	-0.014863411067921613	0.9998688065113605
264														-0.09692359465666688	0.1065093797083561	9.679743421043781	0.32007914095607665	-0.9473146988039266	-0.012008536748746135	0.9473691328196084	0.31996036281823104	0.010820924445228093	-0.006408565006566425	-0.014840069246871243	0.9998693427839984
265														-0.1389506630858395	0.10035656020201458	9.676987595881467	0.32013163741826944	-0.9472966009723788	-0.012036798165472519	0.9473512127110902	0.320012104907643	0.01085967252761253	-0.006435409755799152	-0.014879600087309808	0.9998685828660272
266														-0.11187529099942284	0.09112538996962993	9.716277601887908	0.320102896793214	-0.9473064250539214	-0.012027988865650216	0.947360901540572	0.31998341801617886	0.01085976182602363	-0.006438765163256194	-0.014871087594476879	0.999868687907032
267														-0.08660116489264238	0.12842147778442392	9.677081147237127	0.32011670804706804	-0.9473015888584949	-0.012041302889587662	0.9473561554494122	0.31999689079255783	0.010876792505347071	-0.006450423336239958	-0.014889245423004396	0.9998683425379146
268														-0.13999907072731094	0.10085892254088535	9.67696726264001	0.3201269294927349	-0.9472979890591228	-0.012052756452146377	0.9473525982509302	0.3200067404697273	0.010896817936952442	-0.006465570412891593	-0.014906575008424485	0.999867986496594
269														-0.10177887589965547	0.11312643153577576	9.713611170587992	0.3202117509738035	-0.9472697471711489	-0.01201917770063719	0.9473234564728934	0.32009084456430653	0.010959928939544042	-0.0065347803744102	-0.0148955469996094	0.9998677009109963
270														-0.11580760638299696	0.11802132201313296	9.693954851702411	0.3202160838696307	-0.9472683252781938	-0.012015804419364059	0.9473219691406359	0.3200951638797867	0.010962337537276042	-0.00653807423530595	-0.014893152299604296	0.9998677150502837
271														-0.11066806722817772	0.08611236621867549	9.682354064712	0.32004112245720245	-0.9473273183091665	-0.012026301239269503	0.9473814224924783	0.3199208699421986	0.010912254192230455	-0.0064900117459795945	-0.014885864455601939	0.9998681366995086
272														-0.11646563747527137	0.1182542692069757	9.69394412884123	0.3200469813918359	-0.9473258002628361	-0.011989906519695698	0.9473794017327938	0.31992705187256154	0.010906450043210152	-0.006496066070136853	-0.0148495668794917	0.9998686371164485
273														-0.13034910143743458	0.12308157301364976	9.674288388890647	0.3201396221720677	-0.9472947008168868	-0.011973809743379506	0.9473477885260597	0.32001915025381733	0.010950390203490415	-0.006541398192266432	-0.014849015963004494	0.9998683497514164
274														-0.12834567157813573	0.09687685694770459	9.696582657228703	0.32011656151002055	-0.9473023294103391	-0.01198681528791185	0.9473557069892857	0.31999622983192005	0.0109351418915101	-0.006523149686436686	-0.014856297893564109	0.9998683608010936
275														-0.11752265755510016	0.11838482940698551	9.693929778844097	0.3201451034729689	-0.9472922102735718	-0.012024187178097775	0.9473461339549577	0.3200244990726652	0.010937205945109782	-0.006512695515533588	-0.014892560166124036	0.9998678894978182
276														-0.1154875286369644	0.09234248693166294	9.71622384833324	0.32014214298199456	-0.9472931120096335	-0.012031966838388473	0.9473469808455308	0.3200210984650761	0.010963321579871392	-0.006534995773042297	-0.014908268722761638	0.9998675099001548
277														-0.10463019279960085	0.114117727679483	9.713569280622318	0.320054019698891	-0.9473228583989209	-0.012034385297138841	0.9473772024979991	0.31993398644244175	0.010894058293981258	-0.006469981580120859	-0.01488778942440919	0.9998682378515718
278														-0.1324250144566932	0.12370436087035998	9.674252252755133	0.32005082360241766	-0.9473237476854208	-0.012049372708259435	0.947378363275486	0.3199308053837925	0.010886531308849841	-0.006458104123871376	-0.014899558306418035	0.9998681393330814
279														-0.08866764433306704	0.10381966853174864	9.699321010142075	0.32004005113132905	-0.9473274106774562	-0.012047516383165641	0.9473818985307322	0.31991981681312587	0.010901795565928832	-0.006473330530850847	-0.014902610154006726	0.9998679953886092
280														-0.13070455544820567	0.0978080204399981	9.696541799340567	0.3200311483959885	-0.9473305063586196	-0.012040588800600624	0.9473848373303134	0.31991083765907535	0.010909901231607497	-0.006483367408952634	-0.01489857948225638	0.9998679904249612
281														-0.12303609735672576	0.1253676491769704	9.727778043546762	0.32002286856460926	-0.9473323806836365	-0.012112972548195683	0.9473876557252481	0.31990177447093193	0.010930895195204595	-0.006480229555991004	-0.014973817102647866	0.9998668868535846
282														-0.13158614645513625	0.0982336322394802	9.696525573023463	0.3200411898274574	-0.9473263960891694	-0.012096945338901603	0.9473814831947656	0.3199203152053625	0.010923242128069718	-0.0064778170329502305	-0.014956309424735439	0.9998671645248083
283														-0.10379927546937254	0.10936752753666316	9.679640261366677	0.32008532835122677	-0.9473112137372105	-0.012118040353995812	0.9473664825911964	0.3199639969500218	0.010944784993385161	-0.006490780929310346	-0.014983490364404453	0.9998666735017365
284														-0.13781202630800307	0.13059203393102625	9.708098513044257	0.320062365799175	-0.9473188012731018	-0.012131395366097267	0.9473743670915971	0.31994117708983133	0.0109293998082759	-0.00647229301183911	-0.014991062566296166	0.9998666798460194
285														-0.13275191267981265	0.09859434862417395	9.696506022744488	0.32011294585272004	-0.9473018020261678	-0.012124263914521363	0.9473570960265764	0.3199914102120091	0.010955820308033985	-0.006498808012685214	-0.01499310736655858	0.9998664771987853
286														-0.11066345617514628	0.14167116450061415	9.691207572762114	0.3201106326990437	-0.947302601097153	-0.012122903430502948	0.9473579486451029	0.31998927714385683	0.010944389059870876	-0.006488449118223489	-0.014988144232003718	0.9998666188849992
287														-0.10856960566633855	0.11554602949586859	9.713509162919777	0.320107383305017	-0.9473038475947726	-0.012111295791715224	0.947358984759308	0.3199860197972293	0.010949937449125403	-0.006497472541500697	-0.014978900709552163	0.9998666988074487
288														-0.1371094052086835	0.1048107017070893	9.730375541444582	0.3201101490565667	-0.9473025307064021	-0.01214116090941962	0.9473580485111316	0.31998843569110774	0.010960335083288475	-0.006497722074910126	-0.015010541003028798	0.9998662226851316
289														-0.10405270528678873	0.08392378737696102	9.701910648308504	0.320041471702332	-0.9473256394458961	-0.012148631158671309	0.9473813470596529	0.31991990581183904	0.010947013692396678	-0.006483797810147764	-0.015012884924893109	0.9998662778852926
290														-0.10676616641767546	0.11033762555111867	9.679596981174182	0.32003341037027894	-0.9473286615092099	-0.012125317725234985	0.9473839916010441	0.3199119336018553	0.010951127667745399	-0.006495283276484949	-0.014992058640872889	0.9998665158274216
291														-0.13831499347541037	0.10521067215194203	9.730354161813025	0.32000482872993175	-0.9473379740278445	-0.01215205967507545	0.9473940497644604	0.31988398503330556	0.010897274434807102	-0.0064361526102699115	-0.01499996946768263	0.9998667795539296
292														-0.12115665548331575	0.11515516287764199	9.659923714591843	0.32001661679842	-0.9473342668048458	-0.0121306187071411	0.9473899456613134	0.3198957330911023	0.010909207577062709	-0.006454132997269031	-0.014983553898559819	0.9998669097834081
293														-0.11086040266234394	0.11639135977299812	9.713473195643788	0.3200524757955853	-0.9473223188056779	-0.01211763300937145	0.9473775557970316	0.31993109539058334	0.010948103681611464	-0.006494575363959851	-0.014983941231030267	0.9998666421058493
294														-0.1361334520963037	0.09960858222589943	9.69644877111429	0.3200434247726024	-0.9473253717199484	-0.012118017803440783	0.9473807768524887	0.3199224192389679	0.010922880511121794	-0.006470696268393377	-0.014976173207697355	0.9998669133068933
295														-0.11154600918354173	0.11642411345733378	9.713464954174492	0.3199768000046769	-0.947347940069425	-0.01211312944638996	0.9474035224470244	0.3198564226255793	0.010882764361053676	-0.006435302148182293	-0.014958253620821513	0.9998674099773818
296														-0.11187579439235013	0.11654081414328016	9.713459761937479	0.3199743919316117	-0.9473487712466354	-0.012111735031996872	0.9474044070380397	0.3198541968354704	0.010871167905807522	-0.006424798276639224	-0.014953206486438065	0.9998675530203379
297														-0.12904905970745117	0.1271482814481325	9.72767702078866	0.3199773144677992	-0.9473484407701884	-0.012060265182363457	0.9474032468754499	0.3198573082314971	0.010880725194458325	-0.0064502740896301754	-0.01490751961913497	0.9998680712088844
298														-0.1206861757550794	0.08940370302592036	9.68220454276691	0.3199484595307411	-0.9473582987121333	-0.012051435813157483	0.9474129683475497	0.3198285057897835	0.010880914077397986	-0.006453731540053012	-0.014899018273943333	0.9998681756130063
299														-0.11842621930640568	0.1489799081077552	9.725020361132554	0.31983775433790795	-0.9473957268972877	-0.012047719985319746	0.9474505826552857	0.31971840907442395	0.010841232636546322	-0.0064190596074828275	-0.01488205482048673	0.9998686514328151
300														-0.1100695600925924	0.11127171633181379	9.679549288438526	0.3198352046253275	-0.947396607343673	-0.012046172669081374	0.9474515149667444	0.31971604362363754	0.010829507692850843	-0.006408484180843203	-0.014876822353806647	0.999868797136483
301														-0.1271454711777668	0.12188951079443834	9.693764906864114	0.31990930034846127	-0.9473718621661227	-0.012024738103242382	0.9474262357779262	0.31978976190584774	0.010864434631927058	-0.006447271533614794	-0.014868186039151701	0.9998686762438744
302														-0.1218604870279065	0.0899068914055158	9.682185174741806	0.31990676989703387	-0.9473727363959495	-0.012023182095316647	0.9474271614184969	0.3197874140869545	0.010852815213957074	-0.006436798935488222	-0.014862978343169938	0.999868821143171
303														-0.11094850638959919	0.11149611086301131	9.67953667162708	0.32003636575161376	-0.9473283533451121	-0.012071269400414076	0.9473830073937531	0.31991554523276877	0.010930746543021334	-0.006493219391548073	-0.01493435190620504	0.9998673928252059
304														-0.11442459947505547	0.11753156624719384	9.713418134129645	0.32004734215509323	-0.947324708408461	-0.012066300936261196	0.9473791846755152	0.31992631344215405	0.01094689046570567	-0.006509932642982331	-0.014934885541456572	0.999867276177617
305														-0.11153521489900656	0.11185217514295563	9.679525820495556	0.31988416775691	-0.9473800180296938	-0.012050753359249955	0.9474348084279951	0.31976453612165656	0.010859337820947713	-0.006434516102762926	-0.014891033441579	0.9998684184059243
306														-0.14324460628077962	0.10687435217341996	9.730264709914328	0.31987282261622774	-0.9473833043055626	-0.012093472396312067	0.9474386007624911	0.31975261480824274	0.010879481076965746	-0.006440119310993563	-0.014937872886210589	0.9998676836546398
307														-0.13015567940135692	0.10231426691349135	9.749926830683444	0.3200030587929147	-0.9473396245425164	-0.012069719749153874	0.9473940452814086	0.31988177386525657	0.010962377212343187	-0.00652421094901877	-0.014942774858155355	0.9998670652396907
308														-0.11285002066119786	0.11231748002818703	9.679505193113457	0.3200147888053536	-0.9473359364000895	-0.01204817624502242	0.9473899573702638	0.3198934635897516	0.010974544479058861	-0.006542447541673668	-0.01492633771286219	0.9998671915922869
309														-0.10497327309395707	0.13986487228253572	9.710743389128043	0.31998995831875765	-0.9473444331104723	-0.012039585946231415	0.9473983084213324	0.3198686553640255	0.010976726106048629	-0.006547654202582904	-0.014918725488703816	0.9998672711186397
310														-0.08299261212583263	0.09748927983459559	9.6849542453205	0.3199802149546027	-0.9473476018548082	-0.012049203191485594	0.9474015387007431	0.31985866443860816	0.010989051415574057	-0.006556409464825273	-0.014931712677833928	0.9998670198838624
311														-0.10018867885872791	0.10827445061952028	9.699160139130017	0.3200657853214624	-0.9473189759696341	-0.012027087527735467	0.94737215352327	0.3199433884669279	0.011055808653503247	-0.0066253901951409035	-0.014932713890810941	0.9998665502258879
312														-0.11738577569702127	0.11906045995817116	9.71336418037842	0.32005605730056874	-0.9473221411012048	-0.012036659197815101	0.9473753775702959	0.3199334097848848	0.011068300545097142	-0.006634316751157476	-0.014945711185696582	0.9998662968409323
313														-0.10100897768698976	0.10885220229724481	9.699145165215674	0.3201473123763029	-0.9472914460956786	-0.012025578247553322	0.9473439312768835	0.3200234059842856	0.01115775492993954	-0.006721179293051062	-0.014964483825888527	0.9998654359326237
314														-0.1286317124911877	0.11856958662463186	9.659785761127067	0.3201655404343663	-0.9472854913840196	-0.012009351843738074	0.9473377844787545	0.32004185144479613	0.01115057947696383	-0.0067192869603303375	-0.014946944073071147	0.9998657110060437
315														-0.11531407640875331	0.11399041815472952	9.679456595857841	0.32022481532106556	-0.9472648632719644	-0.012055972085894586	0.9473176301763729	0.3201002992154915	0.011185079310098033	-0.006736112351337623	-0.015002574862309779	0.9998647646246419
316														-0.10212328942292134	0.10961262237345581	9.699124932876124	0.32024173950041473	-0.9472590182700249	-0.012065678093558189	0.9473117010174186	0.3201166426144846	0.011219457951064452	-0.006765308362070154	-0.015022896769237848	0.9998642623753622
317														-0.11630183601083922	0.11474924325032157	9.679435812719277	0.32018090714241326	-0.9472790834966414	-0.01210473755290352	0.9473323110331113	0.3200554653985499	0.011224595368316177	-0.006758637002097353	-0.015061110127775383	0.9998637326093958
318														-0.10316666835487644	0.11038267612052108	9.699105157352491	0.32017796513849994	-0.9472799769861641	-0.01211263145904259	0.9473331441095553	0.32005207137613506	0.011251030146196744	-0.00678120278967757	-0.015077029181456314	0.9998633399019026
319														-0.12045656832078973	0.12123094625550937	9.713299737352248	0.3201457636006725	-0.947290729949442	-0.012122829718989744	0.9473439923782949	0.32001967822580346	0.011259025402148463	-0.006786026325863219	-0.015089019189680176	0.999863126306095
320														-0.14582592597775368	0.10478233371388608	9.696253319545804	0.32012962507295506	-0.9472961296198702	-0.012127075404363821	0.9473492341924058	0.32000302200305425	0.011291341106129376	-0.006815542950598771	-0.01510326839219367	0.9998627104048643
321														-0.1292933956482355	0.09456767423921163	9.682044368573383	0.32011973077669365	-0.9472991140910227	-0.012155098099981661	0.9473526211944345	0.31999289227945704	0.01129424661771405	-0.0068094848183323856	-0.015130675232481324	0.9998623373162516
322														-0.14651310994812045	0.1054368023477548	9.696235866537732	0.3201292272814385	-0.9472955428648379	-0.01218327987866365	0.9473493106611967	0.3200018249306559	0.01131881755334009	-0.006823593623966047	-0.01516530611173478	0.999861716469129
323														-0.12208148219824747	0.12253223048452255	9.713263121663822	0.3202059136071557	-0.9472700665705497	-0.012148821771381525	0.9473226526793695	0.3200772757227914	0.011416185282239586	-0.006925648816463289	-0.015164384105602119	0.999861028765082
324														-0.11936274139630479	0.11701707861324614	9.679371399927032	0.3201823575953237	-0.9472777387428395	-0.012171424195749792	0.9473305067511499	0.32005321576194506	0.01143897106593633	-0.006940379190632468	-0.015192918175599044	0.9998604934559618
325														-0.13120800255817355	0.09593366581439519	9.682005175219226	0.3201235662040409	-0.9472969220563093	-0.012224721814795378	0.9473503225084033	0.3199936763391291	0.011463574756265374	-0.006947575406633073	-0.015250854586244207	0.9998595614536863
326														-0.1227456346487415	0.14406674632151736	9.657016327379509	0.3201214904164071	-0.9472977329685283	-0.012216238629966842	0.9473508466927641	0.3199913153244586	0.011486138925887915	-0.006971703097534638	-0.015250023921585094	0.9998594061798438
327														-0.12472485458057522	0.10359212221378043	9.76943580237162	0.32006474246964134	-0.9473172684761668	-0.01218825150284698	0.9473698392908967	0.3199345227920568	0.01150168369239543	-0.0069963011501239895	-0.015228065296462987	0.9998595690383444
328														-0.12118792109729927	0.11852442118997768	9.679330380073734	0.3200684998410186	-0.9473159198539634	-0.012194400385408907	0.9473683015994669	0.31993762184535357	0.011542064480915708	-0.00703253397161463	-0.015246839645623712	0.9998590287369311
329														-0.10494377824766156	0.10847644315858647	9.665125605710012	0.32000668606151333	-0.9473360153273643	-0.012255404505745155	0.9473893926972089	0.31987553379456085	0.011531759816186083	-0.007004247335834445	-0.015300880475191576	0.9998584017629406
330														-0.11900198668120014	0.11367924598513016	9.645426040739991	0.3200120141344003	-0.9473345621541212	-0.012228579553809267	0.9473873040919312	0.31988055875375737	0.011563917018310211	-0.007043213404890213	-0.015285793392669594	0.9998583588015302
331														-0.10557635590809127	0.10931730943126237	9.665109239793832	0.32000852966027826	-0.9473351323163666	-0.012275505032394229	0.9473884783767914	0.3198764959011152	0.011580086741155342	-0.00704357746998862	-0.01533539856532221	0.9998575966442761
332														-0.16766339004693548	0.11961469730507773	9.71031803453538	0.3199995384806115	-0.9473381617174718	-0.012276103859004496	0.9473916898641853	0.319867879719784	0.011555323442166482	-0.007020067555153176	-0.015327976948417981	0.999857875787449
333														-0.09825677482867909	0.1368135138384051	9.696330050623219	0.3201082350978879	-0.9473014591883483	-0.0122744955962487	0.9473544309253873	0.31997540481911524	0.011632820675989865	-0.007092251303481459	-0.015352059486281688	0.9998569968955455
334														-0.1404513418670196	0.130862153767467	9.693464273926695	0.3200986993780824	-0.9473045532963484	-0.01228437871711628	0.9473575841225117	0.31996560065800633	0.01164569453141932	-0.007101440840979368	-0.01536547101675505	0.9998567256554387
335														-0.11274761237458306	0.14205728934439074	9.6766212634003	0.32013123182412895	-0.9472933162108297	-0.01230314890809938	0.9473465756864279	0.3199978618278499	0.01165478274373427	-0.0071035164506873414	-0.015386405944642413	0.999856388971007
336														-0.12202682433351643	0.09464306348176957	9.701602576077699	0.3201085492381635	-0.9473008994091262	-0.012309455036657905	0.9473541195329792	0.31997484475290544	0.01167351400602013	-0.007119614352820417	-0.015398204571162326	0.9998560928390909
337														-0.13602678034385926	0.09962548704460815	9.681901386793315	0.32004561711387713	-0.9473218683293775	-0.012332102462128415	0.9473756806655812	0.31991229544364136	0.011637994131654212	-0.007079735138099312	-0.01540782297792954	0.9998562278355106
338														-0.11466316991209084	0.1224395890852503	9.732818137883989	0.3200831417732939	-0.9473091556733414	-0.012334744829067816	0.9473629798970212	0.3199497292748669	0.011642811411999486	-0.007082843579630366	-0.015412148273361816	0.9998561391582421
339														-0.10939430521213765	0.0907204850206528	9.72127731192059	0.3200857800461837	-0.9473086805507364	-0.012302729999820013	0.9473615183774854	0.31995152798754145	0.011712097845486762	-0.007158694694628608	-0.01540400894766759	0.9998557243915788
340														-0.11210403116529966	0.11732971753292043	9.698924423514388	0.32010933430778826	-0.9473005202450338	-0.012318215476004025	0.9473534939819652	0.3199747442197005	0.011726913562404658	-0.007167393472356929	-0.015423598964761457	0.9998553600725391
341														-0.11256782998360532	0.11768582065530145	9.698914737368035	0.32011696273309465	-0.9472973269735758	-0.012365455076840632	0.9473508706137723	0.31998168722347065	0.011749373981165845	-0.007173431387197788	-0.015475598545446516	0.9998545132827046
342														-0.10743155100735213	0.08609840709193874	9.687375705689915	0.3201209246417851	-0.9472959027306929	-0.012371995640570732	0.9473492582415204	0.3199849778903488	0.01178969184306472	-0.007209474025885163	-0.015494727947105595	0.9998539577808929
343														-0.13830948357640752	0.10187173484246324	9.681845673294008	0.32012434159063324	-0.9472942434222219	-0.01241057211747944	0.9473480391587036	0.3199877749341889	0.011811714305121039	-0.007217937608656541	-0.015538348425315368	0.9998532197802288
344														-0.11048407322582672	0.11320032962098743	9.665009685021506	0.32014309831463816	-0.9472882027130426	-0.012387800539126928	0.9473414569957571	0.3200062885705756	0.011838037524915133	-0.007249859216547829	-0.01552534302290061	0.9998531908562184
345														-0.15008206310791794	0.1667582851395418	9.704875603431017	0.3201674045459782	-0.9472792492765598	-0.012444153499900554	0.947333219056502	0.3200298341271948	0.011860747892339528	-0.007252939978887402	-0.015586184862158558	0.999852221932374
346														-0.11392030866095022	0.14005398375430636	9.642637361038778	0.3201565008915252	-0.9472823644804306	-0.012487468969286653	0.9473368575752562	0.32001828997721254	0.01188159751460021	-0.007259009321740676	-0.01563381029770839	0.9998514343437437
347														-0.12086486950427637	0.15200698243599528	9.710376115146493	0.3201728492288138	-0.9472766114847573	-0.012504717136344563	0.9473312313453317	0.3200342006086018	0.011901619996938043	-0.007272189109311979	-0.015656684667256636	0.99985098064201
348														-0.13472150042851555	0.15684913923746976	9.690669213000396	0.32017830976756023	-0.947275017324983	-0.012485652019070445	0.9473293480228676	0.3200398182154937	0.011900467686705536	-0.00727710993161417	-0.01563829621623925	0.9998512326153809
349														-0.10131469304053718	0.13572379296959963	9.662322074699487	0.32018943910342107	-0.9472707154902067	-0.012526558238750816	0.9473257279463303	0.32005073617241697	0.011895017715391556	-0.0072586677560087885	-0.015675389952603196	0.9998507858136843
350														-0.12751597823785926	0.09857526343662015	9.701492822984044	0.32019988664651733	-0.9472669257570192	-0.01254607342567847	0.9473223377692084	0.3200612417391365	0.011882335624074638	-0.007240231697857265	-0.015689898127362444	0.999850691924406
351														-0.11347499575559718	0.1141801773795997	9.664963505617852	0.3201606275884861	-0.9472803963900376	-0.012530888128156604	0.947335594469036	0.32002215525971894	0.011878198302888	-0.007241822570668115	-0.015673887777385334	0.9998509315131918
352														-0.09464014344160669	0.07737659025748242	9.673143895987689	0.3201586595980074	-0.9472810705216093	-0.012530208132356627	0.9473363358762237	0.32002036146874796	0.01186739120537763	-0.007231833309533444	-0.015669769521112077	0.9998510683647527
353														-0.1286731566941754	0.0985925023171816	9.701477368216214	0.32024327818719317	-0.9472520517451962	-0.012561577943738474	0.9473075087510966	0.32010407978261984	0.011910582282722378	-0.007261311156490695	-0.01571396102320293	0.9998501611687876
354														-0.1323071297959545	0.1046294445236354	9.735343207431926	0.32023413224935354	-0.947255004386822	-0.01257208044141607	0.947310530636464	0.3200946524423093	0.01192359103198808	-0.007270425555940707	-0.015728005021587044	0.9998498741162476
355														-0.14644395698112592	0.10940733697442925	9.715629396833496	0.32028202869241545	-0.9472382062279039	-0.012617557561341051	0.9472945275556546	0.32014237731619344	0.011913702591769867	-0.0072456993989491805	-0.01576828806430699	0.999849419128571
356														-0.12423832865029615	0.152478206251536	9.710326151685374	0.32028120436602675	-0.9472388078150316	-0.012593295795950015	0.947294610640919	0.3201414338192858	0.011932434906617348	-0.007271229642648864	-0.015751295860621024	0.9998495016242166
357														-0.13566709184850737	0.13119871548596054	9.712969671111122	0.32034525931123375	-0.9472173837733586	-0.012575480681556674	0.9472724605566931	0.32020464149395855	0.011994708691484347	-0.007334869302619314	-0.015754854594037613	0.9998489807211057
358														-0.13505457587760356	0.15161123897410897	9.656736527063265	0.32034345380118334	-0.9472180014657934	-0.012574947549689948	0.9472731463800841	0.3202030048338944	0.011984233080206212	-0.007325145316293838	-0.015750980747030977	0.9998491130423639
359														-0.1363445211641897	0.13140426650874099	9.712957407733237	0.3203368120444496	-0.9472200980182913	-0.01258621306895881	0.9472752408820239	0.3201958962381694	0.01200858210360184	-0.007344716543374607	-0.015769398924932277	0.9998486791492218
360														-0.12230863860269998	0.14728111579355532	9.676427039477746	0.3203277561724669	-0.9472230200126376	-0.012596784655248319	0.9472782309441209	0.3201865530878319	0.012021830189679837	-0.007354033239593985	-0.01578358577355424	0.9998483868143409
361														-0.13697810090178847	0.1317337013975404	9.712944029735654	0.32036760627819627	-0.9472095750999665	-0.012594351373530883	0.9472649741768617	0.3202268976084005	0.011991778258821965	-0.007325677121495875	-0.015771965224419763	0.9998487783498421
362														-0.14511394152857376	0.10439749147690673	9.681719170212967	0.3203395358840834	-0.9472191708571868	-0.01258666398189888	0.9472744350414289	0.3201988614849755	0.011993073862305349	-0.007329834002983901	-0.015764880727383995	0.9998488596128614
363														-0.10703458350573077	0.11645822793756981	9.718484404628592	0.32034210852809636	-0.9472172366650105	-0.012666493929892835	0.9472741759382777	0.3202017486560615	0.011936320959927487	-0.007250455449916081	-0.015822348823837706	0.999848530615246
364														-0.11560466650883207	0.08916289004144279	9.687253896881147	0.32033322244669976	-0.9472200967161832	-0.012677340963204688	0.9472771110029632	0.32019257520650113	0.011949466620258063	-0.007259584477968271	-0.0158367660718106	0.9998482361206593
365														-0.09122130781578155	0.10606386343966114	9.704310861355559	0.3204408070186566	-0.9471826074706922	-0.01275920460894463	0.9472407780305647	0.3202992224374288	0.011971488713981876	-0.007252422580250294	-0.01592219240555097	0.9998469313628553
366														-0.10534860476526707	0.11094501408619255	9.684592069248168	0.3204519362197578	-0.9471786688588233	-0.012772072339097837	0.9472368927270218	0.3203099223063777	0.011992611431136578	-0.007268124232857191	-0.015941233669610703	0.9998465139406278
367														-0.10898026903449151	0.1171204258253308	9.718454822545077	0.3205089860627972	-0.9471590324625105	-0.01279676043688088	0.947217354602107	0.32036612888134247	0.01203439263816915	-0.007298835084056808	-0.015978444550840392	0.9998456962532527
368														-0.15659961340560943	0.1432274659085685	9.72704903962644	0.32051425631153907	-0.9471572733773572	-0.012794959532207285	0.9472155429136304	0.3203713587205188	0.012037764510267095	-0.007302517640995999	-0.01597785967951935	0.9998456787105519
369														-0.13940501961086263	0.15318168997057527	9.656649921848778	0.3205065310117666	-0.9471588385666402	-0.01287237755411355	0.9472182701319977	0.3203628993194786	0.012048297297238456	-0.007287819080387175	-0.01605450917062974	0.9998445581330834
370														-0.14080318390458388	0.13300357961079	9.712872026656656	0.32052582003685987	-0.9471525094009403	-0.012857784614791036	0.9472117575365868	0.320382401251825	0.012041733785669445	-0.007285950462969376	-0.016038731359320362	0.9998448249714726
371														-0.14351758890250613	0.15917232653490637	9.690505055341337	0.3205738146210497	-0.9471357723057277	-0.012894114864610829	0.947195467771919	0.32042981795182773	0.012061409523535942	-0.007292133545452669	-0.01607981922135648	0.9998441199517873
372														-0.14162238665961738	0.1330766440911875	9.712859116353489	0.32057273161722716	-0.9471362354164529	-0.012887020781368635	0.9471956476604543	0.32042841471569095	0.012084539539515635	-0.007316337646815995	-0.016080503845941112	0.9998439321211581
373														-0.11141692757221967	0.11793905450518094	9.71841729225205	0.3206309259062179	-0.9471167402976407	-0.012872047253377521	0.9471756252210787	0.3204860751273868	0.012124794287003846	-0.007358283738797315	-0.016079673423757584	0.9998436376569113
374														-0.11169325384171783	0.11794073102751865	9.718414100412256	0.3206296296502071	-0.9471171775589413	-0.012872162334093943	0.9471761387760957	0.32048494114507825	0.012114645370012637	-0.007348654541921876	-0.016076519275636948	0.999843759196607
375														-0.10657072209365513	0.08590695237106098	9.706902425234556	0.32069278034315074	-0.9470950492428134	-0.012927038931361594	0.9471546517086462	0.3205471391519834	0.012148964077346917	-0.007362498383929775	-0.01613999012491134	0.9998426347862521
376														-0.11255850970188254	0.11808967429956195	9.718402308906644	0.3206982851359527	-0.9470932066723121	-0.012925470436955161	0.947152757245636	0.32055259574778394	0.01215268700113758	-0.007366434201765095	-0.016139740844117838	0.9998426098204838
377														-0.10732062736354817	0.08619814946045493	9.706891581094705	0.32061689399546556	-0.9471213495032497	-0.012882414363905005	0.9471803412087411	0.32047183959720876	0.012132652342900776	-0.007362643030407806	-0.016091902942903587	0.9998434088132416
378														-0.09303223161576493	0.10187175541216571	9.670374967543985	0.3205964987986419	-0.9471285016550403	-0.012864148270717113	0.947187358757336	0.3204519322189355	0.012110596494512191	-0.0073479499422939385	-0.016067373457707007	0.9998439113890811
379														-0.1576991073820202	0.13827835613134284	9.693096060767736	0.32057927359153143	-0.9471332531952956	-0.012943339415376537	0.9471939813417416	0.3204354495349321	0.012028482503045996	-0.007245070980063262	-0.016115935375942927	0.9998438806000924
380														-0.12767348180968977	0.12314964955720548	9.69865981363315	0.3205865174162896	-0.9471313724678199	-0.012901478136959105	0.9471912183533238	0.3204425341856617	0.012057286552818946	-0.007285652012061113	-0.016085570300563554	0.9998440746950816
381														-0.14141427429594416	0.12803758425102688	9.678934833413779	0.3205893542649749	-0.947130260601034	-0.012912605693054094	0.9471902776045976	0.3204452716210935	0.012058437171105666	-0.007283127301663709	-0.016096501157132147	0.999843917172679
382														-0.1369906335898039	0.16122669734021214	9.744022260695504	0.3206012832265414	-0.947126170158924	-0.012916462115626127	0.9471863683403048	0.32045743278215627	0.012042317259339278	-0.007266417535475189	-0.01609507920947034	0.999844061642335
383														-0.12845673421650383	0.12327910153419162	9.698647826060515	0.32059719562298783	-0.9471272488119881	-0.012938806610737628	0.9471880671089333	0.3204537628200816	0.012006307546190288	-0.0072252117698016	-0.016104671753416587	0.9998442057953809
384														-0.14556168737908237	0.13389879235799945	9.712789579214524	0.3205960225583633	-0.9471276414962629	-0.012939128003226087	0.9471885392325027	0.3204527533822048	0.011995999181459079	-0.007215363217127849	-0.01610166337650725	0.9998443253677818
385														-0.11786411439477254	0.14483720213801812	9.695994998799733	0.3206330862635876	-0.9471147112457008	-0.01296717914812013	0.9471755357610547	0.3204884336619494	0.01206931417558932	-0.0072751940761520105	-0.016152016310134333	0.9998430796481372
386														-0.09573133383483554	0.10217304839918218	9.670345445769287	0.32063352621658553	-0.9471150094725048	-0.012934477098647172	0.947175438816707	0.3204894052710926	0.012051108304226437	-0.007268422682873603	-0.01611520837217788	0.9998437228341359
387														-0.11365081831409049	0.09243522128299067	9.740721260940758	0.32064851259031674	-0.9471100812209383	-0.012923831602316917	0.9471705014998819	0.3205048251923358	0.012029053033905349	-0.007250687007437301	-0.01609817002325832	0.999844126081572
388														-0.12432055528721758	0.09139384281468081	9.687125171248846	0.3206202710108437	-0.9471195109999366	-0.012933433425562135	0.9471800405234967	0.3204764208856668	0.01203472019697328	-0.007253457853991195	-0.016108865247225143	0.9998439337264624
389														-0.12146463562856183	0.08561706493458714	9.6532520626456	0.32064833539592114	-0.9471090170380915	-0.013005954519565497	0.947171012609194	0.3205046142962274	0.011994377336922633	-0.007191514492709142	-0.01616484023944078	0.9998434777800647
390														-0.10351678534878604	0.11420692499884565	9.73806349726162	0.3206333930158924	-0.947113891235677	-0.013019382148557114	0.9471761038026275	0.32048957911427056	0.011994084559975799	-0.007187187794289516	-0.016177351685972376	0.999843306535598
391														-0.13101181453530283	0.12378353375289076	9.698607223026269	0.3206760746525863	-0.9470991909510571	-0.013037547517147145	0.9471614636141465	0.3205315917678717	0.012027490306045696	-0.007212280479607122	-0.016205590967544842	0.9998426685392436
392														-0.1199639305417145	0.1454332231666078	9.69596032393621	0.32068188646735724	-0.947097238771749	-0.013036410651151565	0.9471594678293837	0.32053735361180624	0.01203110305410193	-0.00721596791120141	-0.01620571659842262	0.9998426398972169
393														-0.1371695084828769	0.15615160904108452	9.710093714377479	0.32060565217554765	-0.9471238662918604	-0.01297681368632641	0.9471855824150102	0.3204625817657485	0.011966877335743805	-0.007175531912656851	-0.01612809934210508	0.9998441859376797
394														-0.15103403283977532	0.16086908521132104	9.690362799654833	0.32058550586344864	-0.9471309307491123	-0.012958913866405429	0.947192514796241	0.3204429209946616	0.011944634711106582	-0.007160540779119352	-0.01610386297536265	0.9998446840649908
395														-0.13222253238056378	0.12402110259516273	9.698587758528511	0.3205657816955818	-0.947137406173993	-0.01297356666077249	0.9471992095330826	0.3204230595381385	0.011946563360333479	-0.0071580071112328	-0.01611821150808955	0.9998444710013534
396														-0.13247198522557932	0.12411832665130201	9.69858310986302	0.32057973068955514	-0.9471331790911978	-0.012937439298928726	0.9471943370636499	0.32043712088411025	0.011955726412693286	-0.00717802936503713	-0.01608703279362922	0.9998448295962387
397														-0.13593190497742844	0.1300830487388685	9.732445166339618	0.32063707228426336	-0.9471136778538198	-0.012944075833642873	0.9471746938357006	0.32049384229667455	0.011991513964520112	-0.007208830295068344	-0.016105224994556366	0.9998443151279361
398														-0.1024879140586178	0.10892752424234671	9.704166690786263	0.32061050260380697	-0.9471229907923375	-0.012920755887790892	0.9471836449031288	0.3204674781328959	0.011989090339369065	-0.007214461044171638	-0.0160821569361689	0.999844645822601
399														-0.11633229400765689	0.11367342543831976	9.684434717978432	0.32067313724249313	-0.9471009739541153	-0.01298014584756303	0.9471626529848732	0.3205298202761555	0.011980947558217627	-0.0071866432856034276	-0.016136277417739812	0.9998439741826641
400														-0.09985333628669223	0.10307274957121894	9.670294214257725	0.3206722407973595	-0.9471012687425655	-0.012980783035829824	0.9471630306354399	0.3205290825630345	0.011970824064719512	-0.007176864182165548	-0.01613362877726224	0.9998440871670886
401														-0.10332535550659029	0.10897026939963801	9.704157330243348	0.32075800381625663	-0.9470719918840134	-0.012997891238891897	0.947133882404837	0.320614367297095	0.011993176536029843	-0.007191090915240612	-0.016157650557280395	0.9998435970390159
402														-0.12043660753415174	0.1196997372807526	9.718288174117271	0.3207499832177162	-0.9470745455032552	-0.013009747331787351	0.9471365281820823	0.3206060400076523	0.012006835295069724	-0.007200364506466142	-0.01617319913974668	0.9998432789095298
403														-0.1401269102541757	0.07104677106504982	9.689694693903279	0.32078585993498976	-0.9470620410832401	-0.013035428838955197	0.9471241946695549	0.3206411716707764	0.01204154895094451	-0.007224398751131638	-0.016208928676445748	0.9998425269480418
404														-0.13698855722817457	0.15102082214077964	9.67617270512171	0.32079858671152095	-0.9470577677634588	-0.01303270051769839	0.9471197519644763	0.3206536341669689	0.012059118303722277	-0.007241698877908967	-0.016212076190570954	0.9998423507648352
405														-0.14065174073507306	0.1571710469665002	9.710027451130246	0.32078275916381177	-0.947062999810879	-0.013042078533412289	0.9471252410602922	0.32063797847861203	0.01204427264857776	-0.007224899288989554	-0.016216076787217377	0.999842407424238
406														-0.12091659587037777	0.14085912675301698	9.662023151121288	0.32076887909070434	-0.9470677398083781	-0.013039264593667733	0.947129963284245	0.32062418511165086	0.012040123366256338	-0.007222108838694509	-0.01621197507216192	0.9998424941000366
407														-0.15495434533552663	0.16216793554563372	9.690279255535899	0.320776365304025	-0.9470651290851508	-0.01304472051312067	0.9471274658931212	0.3206316856852827	0.012036838683331968	-0.007217119453991661	-0.01621614644546611	0.9998424624815883
408														-0.11139335155816651	0.14215496660381322	9.715609181534921	0.32078133898273636	-0.9470631300218136	-0.013067528983219619	0.947126022384792	0.3206369115934342	0.012011188341950512	-0.007185421491071944	-0.01622956182737951	0.999842473113083
409														-0.13664875304501567	0.12531286816805648	9.698509799329772	0.32075046937288143	-0.9470743028227724	-0.013015426609848283	0.9471361669040552	0.3206060128675688	0.012036023240861726	-0.007226184288443887	-0.016187941373762046	0.9998428540599315
410														-0.11789227709018597	0.08844393527834059	9.706748740104475	0.32075538271723103	-0.947072326227084	-0.013038149897229805	0.9471347433820317	0.32061117658681776	0.012010467362650728	-0.0071946046851539495	-0.016201306812609062	0.9998428653148396
411														-0.11837275687737114	0.08825605925960951	9.706744602075023	0.320745840751875	-0.9470758504221286	-0.013016880869631788	0.9471379222952114	0.3206017884103524	0.012010387936825531	-0.007201513082840262	-0.016181063478180623	0.9998431433950188
412														-0.07464907773564626	0.0681617713443541	9.73208523231153	0.3207525443568447	-0.9470738219534528	-0.012999271483072696	0.9471356111446717	0.3206086218489905	0.012010233041066862	-0.007206898793526009	-0.0161643857467964	0.9998433743558084
413														-0.11899738701126848	0.0883460861337118	9.706736146030494	0.3207741036434065	-0.9470663121818821	-0.013014405940312085	0.947128132512991	0.32062958701011246	0.012040288043864051	-0.007230147593485714	-0.016188522598892675	0.9998428159975156
414														-0.10810308655917136	0.11003182590279575	9.704093304886895	0.32076687216964445	-0.9470688263973012	-0.013009680432012238	0.9471304979270475	0.32062222998452233	0.012050125983426679	-0.007241105921565755	-0.016187146326397443	0.9998427589770513
415														-0.14211415067206182	0.13150744505682846	9.732337713119524	0.3208233904339638	-0.9470494061656953	-0.013029751788147751	0.9471111377831611	0.32067799478605824	0.012087859491202526	-0.0072694454769744385	-0.016218691106161757	0.9998420421352868
416														-0.14250791960989517	0.13177865271906103	9.73232828714886	0.32082861703590226	-0.947047421956402	-0.013045269508997603	0.9471093477563821	0.3206829784157297	0.012095897936753336	-0.0072719930768687545	-0.016236006902828944	0.9998417425755641
417														-0.14189787127592254	0.15229494043277866	9.676081986735957	0.3207992872475894	-0.9470578347035817	-0.013010573699987434	0.9471189751215331	0.32065341495230126	0.012125776023212402	-0.007311926297254574	-0.01621250153404571	0.9998418327554779
418														-0.15363036705485855	0.13085458988563217	9.678710964511898	0.32080419334875937	-0.9470558612392214	-0.013033235296280886	0.9471175548442753	0.320658566894454	0.012100445570146072	-0.007280579348709369	-0.016225879625814937	0.9998418444907753
419														-0.132281270870958	0.15343100114717032	9.729674651150448	0.32082673039463083	-0.9470487294173213	-0.012996660083577485	0.9471100201065046	0.3206817866777118	0.012074829483143947	-0.007267659743497758	-0.01618319505622424	0.9998426302771977
420														-0.09882920915562324	0.13219446168727528	9.701427617752731	0.3207846581648115	-0.9470625679847251	-0.013026719013733978	0.947124465349368	0.32063977547105676	0.012057426033106639	-0.007242252602511642	-0.016205761569516856	0.9998424491234572
421														-0.12959697760981137	0.14745525672798887	9.695805811271224	0.32081669257624473	-0.947052214558244	-0.012990483623231384	0.9471130246694287	0.3206709519376762	0.012126792028845156	-0.007319034496812662	-0.016193933546571428	0.9998420816560603
422														-0.09937175503861012	0.13205500720602836	9.701423973743411	0.3208092572787675	-0.9470546989164706	-0.012992986742055308	0.9471157188337443	0.32066387545261055	0.012103475441081717	-0.0072962718072846966	-0.016188768944744247	0.9998423316592313
423														-0.1222803994227926	0.08893186452659228	9.706689993499625	0.3208890897267993	-0.94702743386052	-0.013008905021720567	0.9470886161401673	0.32074335763142675	0.01211823885806917	-0.007303784772891103	-0.016209196490777948	0.9998419458479997
424														-0.10797229382393964	0.1044648673614079	9.670192032453024	0.3208752908142091	-0.9470321486863219	-0.013006040883541726	0.9470933083490801	0.3207296362954144	0.012114688696159896	-0.007301576904368577	-0.01620523854742085	0.9998420261312935
425														-0.09466308105163491	0.09977845133220176	9.689930728313342	0.3208416613198455	-0.9470441544993153	-0.01296139615157815	0.9471045023361186	0.3206961454302532	0.012126168431561671	-0.007327347144378982	-0.016166376676748223	0.9998424667161177
426														-0.13666669888085026	0.09361601190399796	9.686937636101616	0.3208409762123461	-0.9470443767898733	-0.012962113014087812	0.9471048048047168	0.3206956066717761	0.012116789064827353	-0.007318244251792755	-0.0161640419481826	0.9998425711325605
427														-0.12351108302530744	0.08903579662673526	9.706673459854901	0.3208435480927522	-0.9470433811581159	-0.012971193154721047	0.947103547817758	0.3206972117338252	0.01217243185093061	-0.00736799553944215	-0.016190509280235528	0.99984177750831
428														-0.1462315396657465	0.13199786543142536	9.732270079214453	0.3208439241880599	-0.9470435689568408	-0.01294815852144164	0.9471032146426541	0.32069743291998376	0.012192511311599917	-0.0073943982282168915	-0.016175135734281074	0.9998418314207607
429														-0.131945053464747	0.14784404702321802	9.69576822244331	0.32086201941977543	-0.947036941884672	-0.01298442141925096	0.9470974160146683	0.32071578570503106	0.012160155342088991	-0.00735180741061421	-0.016199243974138935	0.9998417551905224
430														-0.11880916542414564	0.1432361597534373	9.71550544483156	0.32086138367581835	-0.9470371468099855	-0.012985184929035649	0.947097702114485	0.3207152962188494	0.012150778605417483	-0.0073426912710221805	-0.016196954443894088	0.9998418592715754
431														-0.1440292556494916	0.12649359485821707	9.698387674025975	0.3208662018450365	-0.9470354327996452	-0.012991132957890268	0.9470963107779166	0.32072056973127844	0.012119994311250475	-0.007311540494374975	-0.01619275063827766	0.9998421556437627
432														-0.13308342694708097	0.14799532551278813	9.695750355415033	0.3208655755382269	-0.9470356343399576	-0.012991909976479697	0.9470965936933297	0.32072009035769844	0.01211056792402012	-0.007302372834565885	-0.016190458031329808	0.9998422597688704
433														-0.12801042851045355	0.11606874916009795	9.684258983489642	0.32088976899363547	-0.9470268035435356	-0.013038003118769235	0.9470882053794556	0.3207432632000052	0.012152791569621062	-0.007327167688383171	-0.0162478454548904	0.9998411474488038
434														-0.1226705015008678	0.08417793406491332	9.672772236655556	0.32088507970228247	-0.9470291372236472	-0.012983792739204518	0.9470896727020768	0.32073900193194527	0.012150905347889011	-0.007342852683633833	-0.01619586024681706	0.9998418758110368
435														-0.09807626985320365	0.10111457439586014	9.689882934811829	0.3209384343356897	-0.9470102105953359	-0.013045397438765437	0.9470718347250816	0.320792087595258	0.012139868481394209	-0.007311719129273409	-0.016251078870509295	0.9998412079920095
436														-0.12345483471200021	0.0845162701027134	9.672759307886597	0.3209247442114093	-0.9470148881829101	-0.013042626758125633	0.9470764910428502	0.3207784743419579	0.012136330285881665	-0.0073094915557519536	-0.016247213876728964	0.9998412870923266
437														-0.13271766637508425	0.12265455834098364	9.718091372234227	0.3209247847732809	-0.9470145986936985	-0.013062632936606776	0.9470763053928394	0.32077787632915783	0.01216658625929885	-0.0073317311511501325	-0.0162758692169954	0.9998406582048754
438														-0.11294254651675989	0.10636246799145768	9.670114574209078	0.3209310093016993	-0.9470125014932774	-0.013061748888951728	0.9470741627062563	0.320784036592964	0.012170957290514976	-0.007336048175696832	-0.01627648249989618	0.9998406165557563
439														-0.10528742436609428	0.1338863021963911	9.701336475155895	0.3209661221389855	-0.947000275564186	-0.013085355188816553	0.9470623243380547	0.3208189732200187	0.012171287584060837	-0.007328182480181196	-0.01629921787720402	0.9998403038676369
440														-0.12013691108719941	0.11853029891962612	9.73782097302597	0.3209667403038274	-0.9470003807129818	-0.013062562849720875	0.9470619116821805	0.32081943358241655	0.01219124590643437	-0.007354390500176762	-0.016284040202755902	0.9998403587448577
441														-0.13401362674336267	0.12342923133678609	9.718063778900422	0.3209973274676422	-0.9469895311276801	-0.013097468961940762	0.947051290037954	0.3208489995387057	0.012238199722992402	-0.007387137204595532	-0.01633240428073385	0.9998393284794974
442														-0.10647251669041481	0.13432314848746968	9.701317504226877	0.32102172935274614	-0.9469806862990945	-0.013138837843134719	0.9470432209472827	0.32087330957610094	0.012225254986127834	-0.007361177974234405	-0.016367619807891396	0.9998389440708217
443														-0.135039144189639	0.12341748855524615	9.718049730726523	0.3210288932282391	-0.9469784169570477	-0.013127358080577266	0.9470412429274604	0.3208816239880934	0.01216008146250017	-0.007303006713858296	-0.016335887006455392	0.9998398896266589
444														-0.14877804022926908	0.1281821580545442	9.698293817048295	0.3210352776034394	-0.9469762627611299	-0.01312662565348273	0.9470390457960772	0.3208879426619772	0.012164456084009307	-0.007307275260917015	-0.01633664656922136	0.9998398460289198
445														-0.1323451371011782	0.1176151357638514	9.684182056987181	0.32104095930541604	-0.9469738656686981	-0.01316055427179697	0.9470375261372039	0.32089410036498306	0.012120249125882256	-0.007254414944251554	-0.01635463516655088	0.9998399368760913
446														-0.11921353859587626	0.11296943771200998	9.703929420000525	0.32103421246818975	-0.9469762133560439	-0.013156206245659647	0.9470397275373591	0.3208872176705053	0.012130457602550772	-0.007265596389470512	-0.016353741881628463	0.9998398702970268
447														-0.13078077013189707	0.09162791439337707	9.70655411118286	0.3211015643590594	-0.9469529675809026	-0.013185695123391742	0.9470171759963814	0.32095481464529235	0.012102699031424222	-0.007228674429248151	-0.01637327535126089	0.9998398182310344
448														-0.11187686191641745	0.05484641644373844	9.71483232931099	0.3211021307346413	-0.946952989090324	-0.013170348916178746	0.9470170443891929	0.3209557137921195	0.012089144740150782	-0.007220753009947935	-0.016354395038995904	0.9998401844739375
449														-0.11680047218988604	0.1073100497512241	9.670058278304037	0.3211072833942968	-0.9469508799337948	-0.013196345848273878	0.9470152468110339	0.3209604188036377	0.012105034854588591	-0.00722736871704229	-0.01638415557805706	0.9998396494375599
450														-0.12059658828187224	0.11349416224069239	9.703906208088279	0.32109418378952403	-0.9469554570525723	-0.013186640773668112	0.9470194467400727	0.3209468997296181	0.012134869182387849	-0.007258969118724305	-0.01638444116535073	0.9998394158338793
451														-0.14913550831585354	0.10295696364773221	9.720626952914683	0.3211284336746054	-0.9469432031184697	-0.013232503671911986	0.947007911418942	0.32098073035770414	0.012140282079429111	-0.0072487789059850465	-0.016429875433715803	0.9998387441970853
452														-0.14378905167466385	0.1567243810691154	9.729458896134947	0.32113501543175693	-0.9469409785806785	-0.01323196691018563	0.9470056481268031	0.32098724629945635	0.01214455141311397	-0.007252880777931496	-0.016430788105234875	0.9998386994523978
453														-0.12393678251643399	0.14030350745909775	9.681498101650067	0.3211124191260521	-0.9469487635423179	-0.013223218545057952	0.9470137195219817	0.32096569673360364	0.012084558637137411	-0.007199258306016674	-0.016403071236449195	0.999839542093558
454														-0.15255606063475433	0.1294817240091887	9.698217860781298	0.3211114668178135	-0.9469488382748563	-0.013240980628806884	0.9470141255240074	0.3209647075831269	0.012079012545635748	-0.007188319421958338	-0.016418105127509738	0.9998393740436062
455														-0.14158311250902042	0.15100739650698214	9.695583517745373	0.3210835364680418	-0.9469585551735661	-0.013223365410052427	0.9470238528359701	0.32093759630068547	0.012036670654833104	-0.007154353142692964	-0.01638761923924066	0.9998401178022309
456														-0.10600703586334945	0.10379508751765629	9.68977107512231	0.32109525681002893	-0.9469541513868237	-0.013254102208846938	0.9470197692399583	0.32094867129734544	0.012062630772964746	-0.007168871793936776	-0.016425150341154722	0.9998393979602289
457														-0.10975950231650802	0.1098686575202393	9.723619874242237	0.32104150551586563	-0.9469729625877774	-0.013212110498882903	0.9470382315819073	0.32089601456152284	0.012013981885491356	-0.007137202415541663	-0.016369360594085294	0.9998405394738806
458														-0.10668480725072425	0.1041041916101546	9.689760318979665	0.3210547156828851	-0.9469685173547546	-0.013209719025049105	0.94703362229413	0.32090895193252345	0.012031741936619036	-0.007154563735263525	-0.016372895544410997	0.9998403575117634
459														-0.13727716469471624	0.11954842371080665	9.684089724855003	0.32103170279720256	-0.9469770656935549	-0.01315609552845524	0.9470411085746463	0.3208859084689262	0.012057048385796805	-0.007196142635754731	-0.016330058067782805	0.9998407596885963
460														-0.09916151097998199	0.13159566405383213	9.720980997928596	0.32103065021421656	-0.9469771769528746	-0.013173760032773341	0.9470415485879023	0.3208848203192151	0.012051445429175125	-0.007185184149676954	-0.016344981464312323	0.9998405946498001
461														-0.1019965317837323	0.07220153612890892	9.678283741105838	0.32100112103849227	-0.9469871171988492	-0.013178776553404355	0.94705191875755	0.3208560574290307	0.012002232656544013	-0.007137469416707029	-0.016333715759494032	0.9998411205085607
462														-0.1112343701985398	0.11024167516582993	9.723598892611157	0.32100085014574126	-0.9469871930481334	-0.013179924450806364	0.9470520829875909	0.32085593786697036	0.011992466150556418	-0.007127854836960882	-0.01633166673442788	0.999841222568413
