// Start Time: 1747398475.5038033
// Update Rate: 100Hz 
// Filter Profile: 46.1 human
// Option Flags: AHS Disabled ICC Disabled 
// Firmware Version: 4.0.2 
PacketCounter	SampleTimeFine	Year	Month	Day	Second	UTC_Nano	UTC_Year	UTC_Month	UTC_Day	UTC_Hour	UTC_Minute	UTC_Second	UTC_Valid	Acc_X	Acc_Y	Acc_Z	Mat[1][1]	Mat[2][1]	Mat[3][1]	Mat[1][2]	Mat[2][2]	Mat[3][2]	Mat[1][3]	Mat[2][3]	Mat[3][3]
0														9.732347280462402	-0.048106881076156675	-0.020480557640320727	0.005278399938259681	-0.002120774186282426	0.9999838202745798	0.8899919084775404	-0.4559411290842422	-0.0056647730662585105	0.45594576578645574	0.8900074095906381	-0.0005191677621088631
1														9.78102444298284	-0.06862127673663361	-0.007446245471947033	0.0052974174300324806	-0.00212034090064106	0.9999837206290099	0.8900089079434739	-0.45590773638998006	-0.005681521013798652	0.45591236126018536	0.8900245165467242	-0.0005280112997915754
2														9.773118501313634	-0.07244082754548471	-0.030440919304743838	0.0052952498273214355	-0.002100564802284044	0.9999837738467452	0.8900035800329817	-0.4559182735683027	-0.005670569193185537	0.45592278716658013	0.8900191657790355	-0.0005446909652611631
3														9.727785253291406	-0.02585586287638742	0.02897984445636757	0.0053080444017679085	-0.0021003403994405145	0.9999837064846784	0.8899947080714278	-0.45593545185425643	-0.005681843654054941	0.4559399568687559	0.8900103664074153	-0.0005508337821318321
4														9.78103175557292	-0.0675003994376727	-0.008060182636162627	0.00531744814220525	-0.002140677830326676	0.9999835709868845	0.8900204427416284	-0.45588487910869957	-0.005708633990893053	0.4558896097162673	0.8900361759493111	-0.0005188971731615033
5														9.752740041138104	-0.05879246272886205	-0.026029341972864356	0.00530960816676429	-0.0021366050977963402	0.9999836213557558	0.8900162657044448	-0.4558931444132325	-0.005699794604249131	0.45589785571181457	0.8900319521206368	-0.0005190006723225227
6														9.757701994708746	-0.07032837059104567	0.026939785288150962	0.005291702599773518	-0.0021558242737276245	0.9999836750193958	0.8900003399323512	-0.4559243239771436	-0.005692602768861854	0.4559291532726275	0.8900159342549354	-0.0004939315940378219
7														9.79189851113903	-0.045663140242146565	-0.01569406366305344	0.0052867234190766	-0.0021719033780131514	0.9999836665622125	0.8900092521040281	-0.4559068899654892	-0.0056955114979515	0.4559118135393271	0.8900248257872987	-0.00047723953099126915
8														9.737321871211375	-0.056909443887337485	0.03144974586950245	0.0053105712407717776	-0.0021373024217110626	0.9999836147514889	0.8900197541870563	-0.4558863192246306	-0.005700973656278419	0.4558910341187991	0.8900354464189478	-0.0005187753999408851
9														9.776082728383905	-0.053224387275057475	-0.06169087028787619	0.005290880143907772	-0.0021440957054031373	0.999983704587684	0.8900274309010692	-0.45587151189284314	-0.0056865532772831795	0.4558762757930543	0.8900430144089324	-0.0005036575381611175
10														9.7577171682501	-0.06850536360830681	0.02612929747168225	0.005311931038983253	-0.002118842308978852	0.9999836468142402	0.8900333212965508	-0.4558599212535698	-0.005693784024752069	0.45586453072208677	0.8900490114044054	-0.0005356562075711779
11														9.752753566728128	-0.05600553953097401	-0.027085755039079944	0.005287598025143003	-0.0021385331010896347	0.9999837338593566	0.8900375700899594	-0.4558517838581476	-0.005681107436574739	0.45585651814522266	0.8900531320261285	-0.0005069861872354364
12														9.781055027535091	-0.06387493781264315	-0.009275256093782618	0.0053056955794918426	-0.0021229682270245687	0.9999836711668473	0.8900281445907574	-0.45587007413959063	-0.00569010898826855	0.455874710233801	0.890043801455789	-0.0005292063650612633
13														9.749817505904716	-0.07137562211084558	0.0028543047097492266	0.005291926471122754	-0.002124321968416276	0.9999837412530261	0.8900298933797615	-0.45586680492816234	-0.005678472946102409	0.4558714560099537	0.8900454726702247	-0.0005217035572516737
14														9.779431029628798	-0.02567051457108612	0.010319915737394292	0.005293040840752217	-0.0021444748470845765	0.9999836923401748	0.8900238057776788	-0.4558785632867808	-0.005688645234007861	0.4558833281308672	0.8900394018037696	-0.0005043501891036084
15														9.741912908459314	-0.07478437060970998	-0.02000655605109347	0.005304550274582043	-0.0021367764281472468	0.9999836478327437	0.8900242898514619	-0.4558775341251302	-0.005695380091964575	0.4558822492933737	0.8900399474554426	-0.0005164423757861303
16														9.745257903825864	-0.049227229377328915	0.052518225473481644	0.005337233105745964	-0.002125038585421457	0.9999834989407507	0.8900339301035525	-0.4558584153226345	-0.0057191296507327904	0.45586304654709664	0.8900497679290456	-0.000541666181988476
17														9.781066794341635	-0.06191616174242557	-0.010111939517750796	0.005308260639116713	-0.0021576210046238553	0.9999835833855416	0.8900347491089358	-0.4558569532971257	-0.005708196672942811	0.45586178579431513	0.890050438347324	-0.0004994498527322588
18														9.752767203456596	-0.053057767324307954	-0.02809173781942378	0.005308561315981231	-0.002138218893237509	0.9999836234642646	0.8900287556906042	-0.45586876231892515	-0.005699612762909367	0.4558734837875419	0.89004443684671	-0.0005169309758681906
19														9.778139977969342	-0.0771338064792473	0.019903879112231654	0.005306924854546979	-0.0021339299174547577	0.9999836413120446	0.8900504451383874	-0.4558264561447286	-0.005696225723819226	0.45583115476845926	0.8900661145227615	-0.0005197314765498229
20														9.75277126745504	-0.05207758730760531	-0.028511661538965012	0.005300841386998045	-0.0021380980461652155	0.9999836646752458	0.8900426449575483	-0.4558417305367074	-0.005692702194144306	0.45584645576944144	0.8900582819332925	-0.0005133462709623338
21														9.768597134105768	-0.04317256870975544	0.01668866603900904	0.005312349458216736	-0.002130393518573692	0.9999836200491938	0.890043129412811	-0.45584070051068293	-0.005699433566637213	0.45584537589876284	0.8900588279329555	-0.0005254429842390107
22														9.76859951258698	-0.042737410592403505	0.016414451273341353	0.005310079440045079	-0.0021212805703246795	0.9999836514789044	0.8900351622232585	-0.4558563336341303	-0.005693249675448819	0.45586095803716176	0.8900508430726815	-0.0005326190483149196
23														9.729454299496686	-0.05452213158986452	0.005941876425444868	0.005312310421693334	-0.0021393700396995508	0.9999836010924472	0.8900287895678688	-0.45586864787929615	-0.005703474472490422	0.45587337397389166	0.8900444926949086	-0.0005176148421808247
24														9.768603224684837	-0.041958623286536906	0.016212876277616542	0.0053146571558054245	-0.0021497904263052536	0.9999835662751859	0.8900344715304546	-0.45585746866068166	-0.005710319936745756	0.45586225321561846	0.8900501933415882	-0.000509338571866913
25														9.768605386344145	-0.04150451938624714	0.01607912399682988	0.005306812564083496	-0.0021456928304668943	0.9999836167371379	0.8900302928887238	-0.45586573794818597	-0.00570146519489062	0.4558705029729632	0.8900459678956101	-0.0005094624073288534
26														9.75777153443684	-0.06137503178726167	0.02340674563643052	0.005286976664158949	-0.0021141183139916087	0.9999837890593559	0.8900498142117361	-0.455828022048345	-0.005669438874056465	0.45583261851188955	0.890065359858054	-0.0005282815028494481
27														9.78109400497618	-0.05712373628935042	-0.011849902876582006	0.005290501112776902	-0.0021396642294758683	0.999983716084897	0.8900340878255408	-0.4558585442256362	-0.005684203113911823	0.45586328334987924	0.8900496668689157	-0.0005073460347601588
28														9.770260276054177	-0.0773728882439358	-0.004329830540530559	0.00531321965459286	-0.0021484981948778903	0.9999835766913414	0.890054546294573	-0.45581829487935666	-0.0057084738448006656	0.45582307348055884	0.8900702590294666	-0.0005095821372192999
29														9.781097475864803	-0.05646047611323705	-0.012160688175994474	0.005304078626470754	-0.0021369409875870993	0.9999836499829081	0.8900597215873596	-0.4558083567945952	-0.005695075420253604	0.4558130743602641	0.8900753762235117	-0.0005156382625806089
30														9.759434582875933	-0.09695193606273786	0.0028152269574781585	0.00530419726448228	-0.0021277893918788537	0.9999836688684887	0.8900527059230047	-0.45582210694625697	-0.005691001512240057	0.45582677210812955	0.8900683565498657	-0.0005239256668788106
31														9.793585824511126	-0.07227369123053048	-0.04014998143532678	0.0053156988529935445	-0.0021200793816645858	0.9999836241704756	0.8900531916401472	-0.4558210745261656	-0.005697724896707446	0.4558256897070316	0.8900689036705116	-0.0005360241428479795
32														9.74987552225336	-0.06301614307113491	-0.0005390063350731391	0.005307504577447386	-0.0021142705619701108	0.9999836799944042	0.8900406733427518	-0.45584564172725567	-0.005687768793405823	0.4558502278059551	0.8900563357328889	-0.0005376160354721993
33														9.749878201020211	-0.06259879833989589	-0.0006807355934273818	0.005315666646449224	-0.00212691348242805	0.9999836098292518	0.8900283747138513	-0.455869491502264	-0.005700782550362993	0.4558741447947264	0.890044090456481	-0.0005302369011899177
34														9.740309825329271	-0.029183527576774212	-0.0037525279748941215	0.005326387859338311	-0.0021162349571159367	0.9999835754361056	0.8900630757382753	-0.45580167671512983	-0.005705498312755852	0.4558062645463449	0.8900788465373626	-0.0005441939222061154
35														9.791938271137488	-0.03327920840501095	-0.021101533002119022	0.005313904467197539	-0.0021250294807690917	0.99998362320041	0.8900554674485391	-0.4558166223962973	-0.005698386806283762	0.45582126681877866	0.8900711718716304	-0.0005307718781266679
36														9.760712634231798	-0.040818270638072744	-0.008891650431049863	0.005328389088025576	-0.0021165246177450303	0.9999835641615662	0.8900554622596201	-0.4558165197296735	-0.005707402503969838	0.45582110786090274	0.8900712447130683	-0.0005449434728383995
37														9.781115044400307	-0.052903896497045765	-0.013898200059031437	0.005320539797401713	-0.002112418865269916	0.9999836146371612	0.8900512833501434	-0.45582479052146885	-0.005698539534186142	0.45582935936930163	0.8900670188432989	-0.0005450728166052077
38														9.749892233617727	-0.06035663380329882	-0.0015912786174788237	0.005300262657573607	-0.0021293060786588547	0.9999836865026268	0.8900652899679944	-0.4557975690110503	-0.005688205148072667	0.4558022452884041	0.8900809188715597	-0.0005206254021100087
39														9.77320323503893	-0.05622848984767894	-0.03682973552204546	0.0053251745209773604	-0.002123428443747577	0.9999835666489552	0.8900763657096633	-0.45577569616973124	-0.005707712858466052	0.45578032616755076	0.8900921333393759	-0.0005370716524684127
40														9.749896419289781	-0.059664402956641445	-0.00199588998363521	0.005325447822158602	-0.002129993847881373	0.9999835512305695	0.8900782706325847	-0.4557719354998716	-0.005710950744654775	0.4557766029023435	0.8900940433105418	-0.0005313284207285607
41														9.77320497236193	-0.05565592538476914	-0.037236032762284	0.005347023477160484	-0.0021444695888651055	0.9999834051573643	0.8900765624721467	-0.4557749473433578	-0.005736750990433193	0.45577968611786723	0.8900924663338872	-0.0005282972237634076
42														9.760720736724997	-0.03859189291417354	-0.009883329957330088	0.005347620166474443	-0.0021551845697227456	0.999983378930883	0.8900831591772431	-0.45576199621587976	-0.005742173314625565	0.455766796407564	0.8900990720053511	-0.0005189485516478576
43														9.770306376856302	-0.07108783479546786	-0.007143660157417854	0.005319115750282988	-0.002147227840556598	0.9999835480747854	0.8900836687413496	-0.4557613654810063	-0.005713175546819493	0.45576613481869765	0.8900994141934316	-0.0005130350235543757
44														9.762392584842523	-0.07481247968849553	-0.030022559667571298	0.005335544910680667	-0.002147225592214308	0.999983460554605	0.8900839073664191	-0.45576071591572953	-0.005727798469777889	0.4557654767617166	0.8900997467982107	-0.0005205208231770508
45														9.781130421262745	-0.049616417899656165	-0.015145539024530882	0.005327689230385735	-0.0021431165429784405	0.999983511253535	0.8900797292058995	-0.45576898700229035	-0.0057189285412587165	0.4557737282733817	0.890095521580909	-0.000520650931364941
46														9.765296444847783	-0.05767622517437903	-0.060716530866331705	0.005340691641867901	-0.0021461030103451795	0.9999834354901362	0.8900752282592224	-0.45577761446049325	-0.0057318579880575315	0.45578236588538584	0.8900910966853737	-0.0005239745692988684
47														9.749913561887627	-0.056742543689643286	-0.003137525506569419	0.005338772128145874	-0.0021365479560153666	0.9999834662008146	0.890065126940544	-0.4557974168618427	-0.0057257826002377055	0.4558021142079941	0.890080979431031	-0.0005317317175375647
48														9.74991608041786	-0.05629436727879989	-0.003374181021032589	0.005348185368625136	-0.002133836350862728	0.9999834216904253	0.8900792058119754	-0.4557698330941743	-0.005732941865409069	0.4557745103605361	0.890095110639159	-0.0005382581883063287
49														9.770325630595593	-0.06824959698147273	-0.008383352338023174	0.005324311158814488	-0.0021129755768949376	0.9999835933878596	0.8900831451257448	-0.45576252567767983	-0.0057021882610777674	0.4557670967432233	0.8900989021013979	-0.0005458975541786648
50														9.742002565773122	-0.059604516426448526	-0.02633202026710022	0.005346348866149042	-0.0021677158984434453	0.9999833586423255	0.890086442120281	-0.4557555269442357	-0.005746756775999895	0.4557603998895274	0.8901023540400095	-0.0005071735131463306
51														9.781141946711175	-0.04696993842604508	-0.016111225078576052	0.005327103463776961	-0.0021339564742767214	0.9999835339636609	0.8900938129078606	-0.4557415403348936	-0.005714248535446442	0.4557462300357871	0.8901095969839581	-0.0005283608833367426
52														9.757845600309375	-0.05019701600591679	0.01869593949157074	0.005339345343503499	-0.0021410449962575573	0.9999834535219206	0.8900812817642585	-0.4557658365101188	-0.005728361295057327	0.45577055986998316	0.8900971397530475	-0.0005277871223143826
53														9.75784756421362	-0.049877771346167055	0.018524657321962623	0.005346204467837401	-0.00214622220975369	0.9999834057763233	0.8900783385675628	-0.45577147791005457	-0.0057368228569597	0.4557762272328336	0.8900942386365116	-0.000526341612861192
54														9.770338557005788	-0.06628210258669748	-0.009074272019146106	0.005345237857279694	-0.002155563827624385	0.9999833908504857	0.8900779026609578	-0.45577228642439127	-0.005740219695648696	0.45577708984428	0.8900938020636189	-0.0005175915489508132
55														9.74993241904478	-0.053317639473734454	-0.004367345463565344	0.005332748795230935	-0.002164341707686479	0.9999834385704891	0.8900702916541354	-0.45578723932342824	-0.005733095555646328	0.45579209921301755	0.8900861239761577	-0.0005041825963839619
56														9.781150036169786	-0.044956333152909915	-0.016922659027055552	0.005358796119043052	-0.002164907455562859	0.9999832981004548	0.8900719894596754	-0.45578362830221475	-0.005756539842970532	0.4557884782258648	0.8900879716900891	-0.0005155280525003247
57														9.762425204688942	-0.06943389185749639	-0.03225372779576085	0.005364345669983006	-0.0021626294402665724	0.9999832732748264	0.8900783999889935	-0.45577105997022227	-0.0057604484766780595	0.45577589412842506	0.8900944129290573	-0.0005200037600933127
58														9.752822135430277	-0.03593873514467082	-0.03523050421739638	0.0053543822741652924	-0.0021712999312986647	0.9999833078842221	0.890079177850094	-0.4557696029798829	-0.005755532752141523	0.4557744922087711	0.8900951378679522	-0.0005077358255826114
59														9.762430773472037	-0.06857876693699169	-0.03239724188859581	0.005357917005047619	-0.0021968216380301997	0.999983233209466	0.8900634474739937	-0.4558001351172521	-0.005770294429552847	0.45580516911952196	0.8900794407252564	-0.0004868286542170641
60														9.752824477948879	-0.035190875971491925	-0.03533676158193763	0.005361123197577977	-0.002193946755274734	0.9999832223371028	0.8900729530742924	-0.4557815529128576	-0.005771848053511497	0.45578656909091686	0.8900889633188243	-0.000490728388994166
61														9.773237055012943	-0.047243182381901956	-0.04031259318360494	0.005353260927669079	-0.002189823867656926	0.9999832734945464	0.890068774191048	-0.455789825939904	-0.0057629662255796466	0.45579482204988403	0.8900847371127654	-0.0004908680208534633
62														9.739146119973872	-0.07107732206603128	0.0021622435092849015	0.005363436967844193	-0.002179866816126086	0.9999832407218416	0.890066866129138	-0.4557934948585378	-0.005767483306955479	0.455798428434048	0.8900828827841285	-0.0005043924544189116
63														9.679603607775386	-0.07037792520536774	-0.0038318490262283155	0.005375399234768985	-0.0021316069146754546	0.9999832805277441	0.890067065073737	-0.45579324983068015	-0.0057561341030163415	0.4557978990233408	0.8900831251409889	-0.000552797575916697
64														9.870736756786354	-0.08723441521322556	-0.015336040672074964	0.005372669821284648	-0.0020839398769569306	0.9999833956689386	0.8900584476220708	-0.4558103820379308	-0.005731966767652197	0.4558147586855667	0.8900744647618114	-0.0005940903919813834
65														9.869047054315166	-0.04937042749790689	0.004346578350767357	0.005357076779542114	-0.0021183425194254424	0.9999834070390112	0.8900698335336664	-0.455788125302216	-0.005733782943507737	0.45579270854384	0.8900857809551068	-0.0005562192088152673
66														9.636607564669644	-0.015429208690735993	-0.07841993836871056	0.005355310415279979	-0.0021014754101083555	0.9999834520888118	0.8900810869049567	-0.4557662651096749	-0.005724536843158101	0.45577075310340737	0.8900970145939591	-0.0005702863093418054
67														9.737467576577584	-0.031160658434900193	0.020473976246779386	0.0053546996990628815	-0.002099349245686666	0.9999834598251505	0.890061631374545	-0.45580427776453614	-0.0057229997757913265	0.455808753257347	0.8900775545447119	-0.0005721448145364905
68														9.903131360893335	-0.02373749022255227	-0.0387858900251684	0.0053660052953063975	-0.0021247238670891178	0.999983345629146	0.8900854258999689	-0.455757538070814	-0.005744657701058864	0.455762153527081	0.8901014279508375	-0.000554411614505923
69														9.644529164793612	-0.01005322848873154	-0.05618598390619595	0.005378799605480322	-0.0021244453343503	0.9999832774835917	0.890076561810982	-0.4557747071042479	-0.005755908162807355	0.45577931351647116	0.8900926373676276	-0.0005606018158063053
70														9.798718254577933	-0.06777758810896764	0.005764087858465729	0.0053961581913665735	-0.002142505411821871	0.9999831454316293	0.8900864266778441	-0.45575514175880366	-0.005779602432730013	0.4557598430320966	0.8901026123043196	-0.0005523118553126816
71														9.795854519094794	-0.0836533200935512	0.03592717335166446	0.005386980490147575	-0.0021309252464373207	0.9999832196586065	0.8900916015936686	-0.4557452052960615	-0.005766161814301229	0.4557498449957133	0.8901077277539191	-0.0005583718639304291
72														9.74996717962164	-0.0460891083991368	-0.007733994323658719	0.0053745541208496395	-0.002126055859213938	0.9999832968877453	0.8900921790855745	-0.45574424524589463	-0.00575288240298899	0.4557488638479474	0.8901082309538164	-0.0005570364187544308
73														9.77258299723551	-0.0864508501301885	0.070675510089539	0.005382719529501867	-0.0021386713656996736	0.9999832260669456	0.8900798812556315	-0.4557680984351088	-0.005765885257747294	0.4557727847452361	0.8900959872584722	-0.000549683489143804
74														9.767526786218403	-0.07393767868554216	0.017342138563568314	0.005374119392953902	-0.002092397469604046	0.9999833702185148	0.8900751554436812	-0.4557776902826872	-0.0057371336471847	0.45578211516321815	0.8900911857295342	-0.0005870127212161402
75														9.742047154771468	-0.04889759530581179	-0.03140625518599775	0.005396162028437679	-0.0020663227522947913	0.9999833057334739	0.8900731609113428	-0.4557814879232348	-0.0057448665583453296	0.4557857497340761	0.8900893020235474	-0.0006202923347980449
76														9.801596016623318	-0.0486273447835036	-0.026337733311160395	0.00538987646841621	-0.0020409129785783353	0.9999833918150183	0.8900852589337424	-0.45575807749068303	-0.005727707294276074	0.45576219792837963	0.8901013478678762	-0.0006398931801585572
77														9.742049384050876	-0.04794603856360394	-0.03217229421144714	0.005401348764098535	-0.002033180756498054	0.9999833456650862	0.8900857496906044	-0.45575703494950814	-0.005734395499674194	0.45576110368178907	0.8901018993744725	-0.000651997479549693
78														9.773251097433816	-0.03953008444085838	-0.04494349941093355	0.005418435351257911	-0.0020125346385491127	0.9999832949918082	0.8901022855046047	-0.4557246660236507	-0.00574021925643714	0.4557286055294578	0.8901185193455765	-0.0006779529593930467
79														9.77832763453014	-0.05115154642512165	0.00770747328724271	0.005429906199457435	-0.002004801453638849	0.9999832483045883	0.8901027760623847	-0.4557236236083852	-0.0057469062353858735	0.4557275108710254	0.8901190704935906	-0.0006900571897325847
80														9.768689656196003	-0.017723973329840888	0.004540768321108842	0.0054379243193029	-0.0019881634350178423	0.9999832379521434	0.8901134708543741	-0.45570273973226627	-0.005746477537202754	0.4557065261576541	0.8901297996397277	-0.0007083859549935623
81														9.660946069813086	-0.08729088853741429	-0.023815310741580144	0.005455336445394698	-0.001974979385009401	0.9999831692387111	0.8901080422802057	-0.4557132234127539	-0.005755959942294331	0.45571692131450137	0.8901244617822761	-0.0007281239223974056
82														9.829954870068507	-0.05405290715490517	-0.010761935469384901	0.005416851341188633	-0.0018810025069035952	0.9999835596404154	0.8900916301723684	-0.4557462458333467	-0.005678847233895001	0.4557494351270693	0.8901077582171606	-0.0007944450752559451
83														9.899155145779815	-0.08651192847071715	-0.0028178503682207957	0.00542039309443193	-0.001906505349398624	0.9999834921517727	0.8900758938574492	-0.4557767942065003	-0.0056935961138921964	0.4557801251838045	0.8900920621487409	-0.0007735549349092152
84														9.75170511999813	-0.0776570563308668	-0.03168054341623356	0.005431691118035431	-0.0019308876121141294	0.9999833840642693	0.8900929362862359	-0.45574324559417456	-0.00571479384012169	0.4557467076183277	0.8901091875541549	-0.0007567871148932426
85														9.679666828073056	-0.06040791262802044	-0.009730060083602035	0.00543258909674188	-0.0019414954584535127	0.9999833586470783	0.8900959098490899	-0.4557373672645839	-0.0057204325594295	0.45574088937205004	0.8901121742084708	-0.0007477166858194662
86														9.778345059219564	-0.04796341235469165	0.005883625349504829	0.005452326058291046	-0.0019460741767917122	0.9999832423275168	0.8900992480734123	-0.45573060014741057	-0.005740093067856222	0.4557341338101643	0.8901156289407461	-0.0007525926652868775
87														9.765323207028336	-0.03985661976540358	-0.07001303356524917	0.005444449784371419	-0.001941927914428987	0.9999832933017034	0.8900950662858009	-0.4557388797153765	-0.00573118569310993	0.45574239537289146	0.8901113988887843	-0.0007527469896801975
88														9.7704162973269	-0.05157468958386323	-0.017222062043320736	0.005484433074244788	-0.0019508787012810225	0.9999830573895474	0.8900982609870072	-0.4557321394854644	-0.005770860239733389	0.4557356764416842	0.8901148302956725	-0.0007629586793835852
89														9.739223628670963	-0.05934379273325391	-0.005023840507004743	0.005476555579861486	-0.0019467308764181124	0.9999831086462792	0.8900940790904166	-0.45574041985455704	-0.005761950969558838	0.4557439387497811	0.8901105998412149	-0.0007631141126406282
90														9.754553199083158	-0.059329700295026114	-0.06314502605756231	0.00548557873722616	-0.0019157309179508863	0.9999831190580013	0.8900747944778507	-0.45577815959262213	-0.005755820842864745	0.4557814922318924	0.890091343185301	-0.0007950631780833106
91														9.767587670519772	-0.06658581489100263	0.012019221568647338	0.005504959547571353	-0.001874747358669493	0.9999830902283902	0.890091513663718	-0.45574552539991386	-0.005754422802299597	0.45574860693611635	0.8901081402842563	-0.0008401639670980732
92														9.788017081606128	-0.07850335410182141	0.006717922649809515	0.005493048538281919	-0.0018417459111220724	0.9999832170540439	0.8900896446391691	-0.4557494987659757	-0.005728776543020342	0.4557524008975422	0.8901061747603827	-0.000864135154472867
93														9.749999695871889	-0.03665088523631771	-0.014376171806176495	0.005489789078875318	-0.0018246961464129519	0.9999832662099117	0.8900888983450537	-0.45575109033114747	-0.0057181032571532175	0.45575389768904734	0.8901053949650817	-0.0008778355756102751
94														9.795962506679018	-0.0731612700585292	0.02864254845383441	0.005512049788469253	-0.0017974543871443482	0.9999831930911917	0.8900923047662572	-0.4557443444987398	-0.005725508999748108	0.45574697618637205	0.8901089043567311	-0.0009121851995247954
95														9.780092185080507	-0.0813172475526244	-0.017163792008606196	0.0055221786880891854	-0.0017822612421086181	0.9999831644019825	0.8901021497025916	-0.4557250897808731	-0.0057276207138028945	0.45572762549286266	0.8901187932456436	-0.0009302008154829511
96														9.755118458674886	-0.047304694849761963	0.03733791218039404	0.005527984264284247	-0.0017361133640864668	0.9999832135092871	0.8900966557340131	-0.45573601943838943	-0.005711745580596339	0.4557382854677664	0.8901132885744594	-0.0009739928447744517
97														9.782918471468804	-0.0640910061171078	-0.048425534847114156	0.005545389518364197	-0.0017229110279231574	0.9999831399742088	0.8900912269174643	-0.45574650357865243	-0.005721209696832152	0.45574867681612796	0.8901079462927077	-0.0009937438932623999
98														9.770431470059927	-0.046996493230287116	-0.021246114506297504	0.005559690235147852	-0.001721068129358072	0.9999830637410734	0.8900837024016486	-0.45576104976519227	-0.005733082583031401	0.45576319790376135	0.8901005018768523	-0.0010019955652757484
99														9.731307516300893	-0.05894549439152248	-0.03192728689820173	0.005579051230851617	-0.0016800751390718682	0.9999830256233804	0.8901004224659578	-0.45572841240374584	-0.005731671124932836	0.45573030633619993	0.8901172908530022	-0.001047096569092798
100														9.796490758656724	-0.02590769241293796	-0.08757291364851451	0.005551303984037359	-0.001651435648961641	0.9999832277515329	0.8900992320996625	-0.4557312106022988	-0.005693917680678673	0.4557329701038405	0.8901159118020869	-0.0010599608820640039
101														9.762495328394527	-0.0496641253920835	-0.04500749775884567	0.0055594715564043495	-0.001664024470995562	0.9999831615075192	0.8900869272845864	-0.45575508028724265	-0.005706896656880955	0.45575690247444073	0.8901036668921934	-0.0010526309772288522
102														9.742067539713716	-0.0367690195310153	-0.0403506883972609	0.005553858609666118	-0.0016584357373457537	0.9999832019816379	0.8900901776850545	-0.4557488265198226	-0.005699360875837833	0.4557506228664227	0.8901068793783757	-0.0010550071838789643
103														9.75795187045257	-0.027787709914058656	0.004814506407202712	0.005566644936367882	-0.0016581268611300937	0.9999831313974576	0.8900813109938552	-0.45576600255651634	-0.005710580803546361	0.4557677832883899	0.8900980853417034	-0.0010612197799511058
104														9.767632229091891	-0.060448911517483384	0.00731977747635839	0.005586458071072109	-0.0016370263416295439	0.9999830556719334	0.8901012453509539	-0.45572696880748226	-0.005718647237325902	0.4557286083963799	0.8901181101664548	-0.0010887804177430738
105														9.769372528398858	-0.09736891821655197	-0.012720194001998676	0.00558272491641737	-0.0016605198825409562	0.999983037784255	0.8901007747339518	-0.45572779528888097	-0.00572602996448901	0.45572957332230046	0.890117643502731	-0.0010661728839524431
106														9.778386702326552	-0.038989586121037235	-0.0007563112038740365	0.005575960903799859	-0.0016154133092750045	0.9999831494079486	0.8901095581593803	-0.45571097251743514	-0.00569947370608892	0.4557125005234245	0.8901263393288921	-0.0011031317392263262
107														9.770445383497899	-0.042646024906600535	-0.023864669271153046	0.005572691078939318	-0.0015983521596512618	0.9999831950510534	0.8901088116617302	-0.45571256413859385	-0.005688786194865347	0.4557139985959194	0.8901255552766711	-0.00111683799929152
108														9.751757673256154	-0.0669261363825943	-0.03911800666395498	0.005557123601877212	-0.0015982923535239335	0.9999832817796634	0.8901152276834581	-0.4557002049142562	-0.005674917367682775	0.45570165659485884	0.8901318827581995	-0.001109718001947646
109														9.762504610846065	-0.045844549071473846	-0.047002799313656675	0.0055598036470802525	-0.0015757759130685667	0.9999833026174376	0.8901085650320358	-0.45571331698574763	-0.005667025538826587	0.45571463772849796	0.8901252100980622	-0.0011310649250069194
110														9.759706206747454	-0.06176652626304274	-0.01704764397369463	0.00559080597288153	-0.0015708983446415803	0.9999831374413095	0.8901131011299244	-0.45570414048968766	-0.005692410510885204	0.45570539835012164	0.8901299167081995	-0.0011494762334077757
111														9.762505015131529	-0.04513429552207914	-0.04760230359588184	0.005576960441792678	-0.0015721867400282363	0.9999832127296364	0.8901148317367168	-0.4557009065445885	-0.005680677491005759	0.4557021876560911	0.8901315700520317	-0.0011419991935293083
112														9.773247156423002	-0.02402894656412345	-0.0555175917416949	0.005577833199239324	-0.0015373723794860905	0.9999832619914037	0.8900998208291129	-0.45573041427731065	-0.005665550512692463	0.45573149631859167	0.8901165238264019	-0.0011735733551308525
113														9.782941575365214	-0.056502067790165485	-0.052992098744604234	0.005569939805760649	-0.0015332011345443042	0.9999833123931827	0.8900956341604749	-0.45573870230914026	-0.0056566125944073065	0.455739769845712	0.8901122875861573	-0.0011737415028696407
114														9.770454622243623	-0.03932627666339093	-0.025711817205341197	0.005583181888521305	-0.0015298403952289652	0.9999832436937957	0.8900850303978891	-0.45575928468861465	-0.005666840540494045	0.45576031720805704	0.8901017548620426	-0.0011828989491076136
115														9.770455593052912	-0.03904980016850325	-0.025764085652894227	0.0055882047134210855	-0.0015680934521715706	0.9999831563836494	0.8900917101761341	-0.45574596592160865	-0.005688762774536282	0.45574721002306307	0.8901085077838011	-0.0011510547723262987
116														9.767666302235186	-0.05496496048016317	0.004568002666602613	0.005582575373340615	-0.0015673111298146192	0.999983189052708	0.8900701234555473	-0.4557881909033208	-0.005683340998536013	0.45578943623566864	0.8900868882131121	-0.001149455119189069
117														9.777368688493882	-0.08756102054517015	0.007261996551845688	0.005589401303661812	-0.0015724457949558568	0.9999831428615629	0.8900671732124271	-0.4557938472107559	-0.0056917496833256975	0.4557951137986301	0.8900839826999698	-0.0011480323400546721
118														9.772213690916043	-0.0752200506469921	-0.04591092482409121	0.005594195380983269	-0.0015751274965041806	0.9999831118330995	0.8900642712762807	-0.4557994455308266	-0.005697231890501919	0.455800721780322	0.8900811111506415	-0.0011478664455000787
119														9.756939889786588	-0.074208866204169	0.011659753106060367	0.0055761908245537395	-0.0015487410388103084	0.9999832536083209	0.890062287278595	-0.4558036696113356	-0.005669173946578954	0.45580481662690264	0.8900789943426569	-0.0011631722488789076
120														9.790899036136622	-0.04938933441986063	-0.03141961757553819	0.005605220582627579	-0.001550512998000464	0.9999830885628337	0.8900856164186279	-0.4557577781951968	-0.0056958809020138945	0.4557589022135412	0.8901024904605209	-0.0011745335614420371
121														9.770462900431143	-0.03639508855793137	-0.026857773886517666	0.005567877650256348	-0.0015277119497562053	0.999983332278429	0.8900789543658708	-0.4557713322113329	-0.0056522322373860345	0.45577237052439934	0.8900955897152316	-0.0011778947594358047
122														9.75002560203495	-0.023403049231207042	-0.022294969107004254	0.005595187379200395	-0.0015243981890314395	0.9999831849028029	0.8900650043298775	-0.4557982914737808	-0.005674993994556399	0.4557992781317754	0.8900817904550931	-0.0011934633671945027
123														9.770465328401272	-0.035353250017451605	-0.027361265602408504	0.005563921440128405	-0.001501477553689401	0.9999833940338033	0.8900842093498071	-0.4557612610984154	-0.005636767523272523	0.45576215622223126	0.89010079117319	-0.001199378390973338
124														9.762518044149106	-0.039079555171106437	-0.05021417298324339	0.0055727335273085266	-0.0015098716192755157	0.9999833323254577	0.8900618116003323	-0.4558048566588039	-0.00564837826120973	0.4558057877778299	0.8900784532466453	-0.0011961999378762855
125														9.770467819359505	-0.034443961036084624	-0.027629377171039672	0.005573597037136724	-0.0015204547306185145	0.9999833114774863	0.8900647769512149	-0.4557989966617906	-0.005653978500908152	0.4557999866683317	0.890081436082967	-0.0011871367366516616
126														9.77223472157812	-0.07138130898424791	-0.0475346394800255	0.00557951883888036	-0.001535332504774889	0.9999832557216277	0.8900584256340786	-0.4558112495737554	-0.005666014454365431	0.45581231655947163	0.8900751358824217	-0.0011766718219456407
127														9.757977874543593	-0.01696173559780753	-0.0003913168874069655	0.005589610969815417	-0.0015201219868979932	0.9999832225984353	0.8900682750111494	-0.45579199046866004	-0.005668089915871033	0.45579295965151073	0.8900850243958509	-0.0011946875551928082
128														9.759746941477731	-0.05377559434549217	-0.020464726025581473	0.005578552627407363	-0.0015195154245654097	0.9999832852720377	0.8900793704706105	-0.4557704480386315	-0.00565799940851669	0.45577142737695275	0.8900960564835345	-0.0011900500978829776
129														9.759748704408466	-0.05340606788469976	-0.020590733921481294	0.0056000991800749245	-0.0015339540293944354	0.9999831427950219	0.8900776576593274	-0.45577347253888423	-0.005683754527768259	0.45577450809019404	0.8900944830268765	-0.0011870384404243928
130														9.788143005935588	-0.06111174740914637	-0.0028528570880208466	0.005572802994194159	-0.0015228043150403714	0.9999833123276642	0.8900779977153676	-0.45577317385212207	-0.005654377044947645	0.4557741785685001	0.8900946551147144	-0.0011845194922731062
131														9.75975316015392	-0.052409385271880965	-0.021035591128956904	0.005594811729096594	-0.0014966774644049052	0.9999832288785068	0.8900760168017317	-0.455776947049017	-0.005662053783025367	0.4557777774267634	0.8900927673536314	-0.0012178294932472244
132														9.756986377145259	-0.06823182761266844	0.008952488156288504	0.0055898876824498345	-0.0014908220882821621	0.9999832651625719	0.8900823277180041	-0.45576470974015	-0.005655018972240411	0.4557655132190205	0.8900990432558491	-0.0012207191425201436
133														9.788152077196019	-0.0595952930629617	-0.0036857488290324056	0.005581988797239978	-0.0014866285511512811	0.9999833155291233	0.8900781389126344	-0.4557730011458939	-0.0056460655580423125	0.4557737904167902	0.8900948047045414	-0.0012209042124176617
134														9.759759285700737	-0.050919590870894565	-0.02183735008681819	0.005585198340990916	-0.0014595430284190525	0.9999833375080007	0.8900584719780875	-0.4558115247141862	-0.005636523552775108	0.4558121565069584	0.8900751224879151	-0.001246719133977281
135														9.759760979212489	-0.05046180082610078	-0.022140632659063283	0.005590671833433869	-0.0014572236726569376	0.9999833103045368	0.8900648790820713	-0.4557989660044735	-0.005640355828468169	0.4557995781185737	0.8900815575487573	-0.0012511988289505838
136														9.780206902939481	-0.062618548014393	-0.027241154448778206	0.005624119875370315	-0.0014495539538651458	0.999983133892248	0.8900537470168047	-0.45582037806247633	-0.005666600773516994	0.4558209041904208	0.8900706049164389	-0.0012734075197192163
137														9.759764038883871	-0.049670218047807156	-0.022578469561401766	0.005577550978363377	-0.0014525089714707562	0.9999833904334472	0.890040192026502	-0.4558473423431837	-0.005626460351262408	0.45584794340055074	0.8900567907141346	-0.00124972042638255
138														9.759766844598042	-0.04904652440184545	-0.022727897766778266	0.005587929956327509	-0.001434956122440656	0.9999833578313844	0.8900534063907977	-0.4558215247070304	-0.005627733637613208	0.4558220143991963	0.8900700413533111	-0.001269911167849691
139														9.770479374275205	-0.028128495673615823	-0.03054107182798151	0.00559149026360567	-0.0014604039123903845	0.9999833010890955	0.8900376510908872	-0.45585210572494683	-0.005642459281913925	0.4558527337608585	0.8900543381875876	-0.0012490781429773112
140														9.780217725397575	-0.06069447734180074	-0.027706798247748163	0.005571618214875229	-0.001464114029216923	0.999983406582618	0.8900442307440619	-0.4558394564222009	-0.005626480953823454	0.4558401302975409	0.8900608104724206	-0.0012366371736047266
141														9.725859046368678	-0.07217547957183904	0.019804029664882972	0.005578438399786612	-0.0014692278677728154	0.9999833610588194	0.8900412791368344	-0.4558451158246841	-0.005634874554836189	0.45584580995934165	0.8900579035929368	-0.0012352304476956344
142														9.777466739509666	-0.07613617071399753	0.0023624044587250903	0.005586524618656441	-0.00147069072152467	0.9999833137665279	0.8900314772893152	-0.4558641565580177	-0.005642712100193015	0.4558648485866	0.8900481491663517	-0.001237735297860143
143														9.775681302176444	-0.03848942448137441	0.022107914280271698	0.005588733085061082	-0.0014886974554551013	0.9999832747813282	0.8900250803500728	-0.45587651992144657	-0.005652869373771796	0.4558773106992164	0.8900417868640755	-0.0012227941171791268
144														9.751824298759415	-0.05093310271879753	-0.045996839958997573	0.005576420424230455	-0.0014883051140584524	0.9999833441028607	0.8900333459929324	-0.45586051993618226	-0.0056417536404277935	0.45586132382104755	0.8900499824792998	-0.0012174287334486
145														9.76253084463503	-0.029919613307035367	-0.053884819561513496	0.005593814968183286	-0.0014750620184080243	0.9999832665730676	0.8900279240120534	-0.45587098898418665	-0.0056511840682600956	0.4558716965472801	0.8900446424728485	-0.001237211575707553
146														9.780229966751817	-0.05825858848674424	-0.028600026104945896	0.005590694084327386	-0.0014848900363652606	0.9999832694806622	0.8900453234884025	-0.4558369955138666	-0.005652933514168512	0.4558377631088498	0.8900620363898634	-0.0012268257614754807
147														9.755238754080468	-0.02443517536895514	0.026224569565355578	0.005603473777351875	-0.0014845426191539834	0.999983198466273	0.8900364571512801	-0.45585416814769486	-0.0056641260552734995	0.45585491773504366	0.8900532419555498	-0.0012330698242702387
148														9.757034184390928	-0.0613554636237261	0.006190014405876675	0.0056023700949967	-0.0014860266647695464	0.9999832024459561	0.8900563405742847	-0.45581534763067233	-0.005663873925314311	0.4558161077154155	0.890073120922703	-0.0012309988171660957
149														9.76773841167959	-0.04038344931082737	-0.0015798176434871408	0.005603220384154006	-0.0014965985905905366	0.9999831819155687	0.8900593035367703	-0.4558094924832796	-0.005669457626128471	0.45581031154304313	0.8900761016647925	-0.0012219395403580413
150														9.767739913601114	-0.040013338603795	-0.0017060631017421855	0.005611407378139754	-0.0015000569899025207	0.9999831308258471	0.8900635306859502	-0.4558011275574697	-0.0056783325192824585	0.4558019563912565	0.8900803794862384	-0.0012225397894776169
151														9.78023882525766	-0.05628761962217515	-0.029503926589486244	0.005612716954607078	-0.0014700573508270032	0.9999831680282284	0.8900662313013461	-0.45579600947220755	-0.005665831468465887	0.45579666662384144	0.8900830504400113	-0.0012498055841594913
152														9.777498270281828	-0.07201014870607483	0.0005154839574591484	0.005606020804128697	-0.001462439960027817	0.9999832167592149	0.8900557108626446	-0.45581667042362206	-0.005656370277428213	0.45581729244461094	0.8900724825727881	-0.0012536646990470302
153														9.759789951710651	-0.042849830239976044	-0.02519846944598703	0.005611478999930086	-0.0014601141667431317	0.999983189543731	0.8900621188051328	-0.45580411029485873	-0.005660186077320162	0.45580471253767324	0.8900789184701166	-0.0012581428840526265
154														9.749094579838852	-0.06313289032242389	-0.017662147324176466	0.0056287667290712	-0.001485698865125229	0.9999830546984244	0.8900626513498644	-0.4558027336547993	-0.005687237014765367	0.45580345946159706	0.890079581100305	-0.0012432421912150216
155														9.749097330966688	-0.06263524519588133	-0.017915689001424775	0.00560794911583834	-0.0014390237300353492	0.9999832399182589	0.8900476010652612	-0.45583261710984657	-0.005647390261115548	0.45583310404652216	0.8900643540719357	-0.0012754865032975071
156														9.777511921309866	-0.07013295014993073	-0.0003767048128370279	0.005610427207904944	-0.0014415292736941754	0.9999832224092051	0.8900744644801153	-0.4557801180293156	-0.005650813182118908	0.455780616949625	0.890091234650997	-0.001274052778697965
157														9.75706028711489	-0.05722875252702452	0.0042797956755095895	0.0056025176202472715	-0.0014373150110841837	0.9999832728210376	0.890070274146797	-0.45578841222474453	-0.00564184029300685	0.4557888972721476	0.8900869942916845	-0.0012742512446426435
158														9.780252386772228	-0.05293016235964485	-0.031175170090377395	0.005618312946465032	-0.0014135162119292555	0.9999832181249619	0.8900678478336164	-0.45579311064921324	-0.005645045398350701	0.4557934409493745	0.890084626457863	-0.0013026630018401764
159														9.770487725336404	-0.019538967688378383	-0.03433686695175695	0.0056237667472714414	-0.001411188341571279	0.9999831907562438	0.8900742554972764	-0.45578055039002996	-0.005648857152710074	0.45578086066501583	0.8900910618771696	-0.0013071410908460646
160														9.751840734075929	-0.0440231812464092	-0.04951047777997441	0.005625733979962078	-0.0014185215119448258	0.9999831693153175	0.8900710913397336	-0.4557866664421253	-0.005653941534044804	0.45578701547815326	0.8900879184048591	-0.0013015495467914584
161														9.759800308483412	-0.03926311858804074	-0.026968993848879408	0.005617823424371338	-0.0014143003999207426	0.9999832197663875	0.8900669001384526	-0.45579496229645233	-0.005644964402134467	0.4557952976259171	0.8900836770211856	-0.0013017536430773857
162														9.78821686677474	-0.04703148696507617	-0.00921166914858552	0.005635234888485885	-0.0014416432287474024	0.9999830827531799	0.8900815071240868	-0.4557660892690445	-0.00567296643000248	0.4557665573552608	0.8900984178938882	-0.0012851689894589624
163														9.754346684180742	-0.07108986699919763	0.0334364189190659	0.005631929344840303	-0.0014245290736136784	0.999983125902019	0.8900807633321797	-0.4557676754554554	-0.005662221819673796	0.4557680507866465	0.8900976332553914	-0.0012989054205963524
164														9.780261051408493	-0.05061567295649448	-0.032280627744013926	0.005654928393955538	-0.0014365194277088933	0.9999829789535388	0.8900788489045444	-0.45577109128179505	-0.005688153001060514	0.45577150472316835	0.8900958649290176	-0.001298737326589361
165														9.777536389936367	-0.06660017430610156	-0.0021693426674958883	0.005666347997115684	-0.0014287271376939858	0.9999829254738013	0.8900793440426975	-0.45577004172151736	-0.005694767571004011	0.4557703959329709	0.8900964148944386	-0.001310871149519388
166														9.767764328296627	-0.0331488662296606	-0.005310091770032944	0.005661834426325618	-0.0014111794737217132	0.9999829759568024	0.8900930393504097	-0.4557434444680387	-0.005682791951039212	0.45574370531130753	0.8901100613951636	-0.0013242628966274594
167														9.741163636493397	-0.06186257546573528	-0.04316182622870126	0.005656707703155017	-0.0014272094276968073	0.9999829822208028	0.8901019115801705	-0.45572608155857225	-0.005685559655475181	0.45572644059708395	0.8901189255714761	-0.0013075473962628203
168														9.780266207057444	-0.04909966417326625	-0.033050885663372755	0.00567773992264059	-0.0014392020845281905	0.9999828458362334	0.8900997732252721	-0.4557299557502612	-0.005709740465695223	0.455730355554347	0.890116922729383	-0.001306482714642676
169														9.780267053621543	-0.048805580856639635	-0.033235626245691624	0.0056831868660963125	-0.0014368722849833482	0.9999828182449347	0.8901061803982266	-0.455717393801662	-0.005713545615550153	0.45571777341236663	0.8901233579592539	-0.001310958205798629
170														9.769588798667634	-0.06900421735281499	-0.02559751047587265	0.005674279710910168	-0.0014717481681901234	0.9999828181059376	0.8901097026706024	-0.4557104139829732	-0.005721520699915272	0.4557110046525262	0.8901268744088099	-0.0012758110317203641
171														9.769592420248527	-0.0684508246684821	-0.025701824827173345	0.005654876357267746	-0.00143787427795794	0.9999829773005864	0.890117079547374	-0.45569641415850926	-0.005688833020103312	0.4556968368020982	0.8901340969992315	-0.0012970304254644738
172														9.777556029427675	-0.06360432277821333	-0.0032737452511282664	0.005665144016208767	-0.0014474677074985398	0.9999829053441426	0.8901016100226649	-0.45572646138077505	-0.005702300625005818	0.4557269247897656	0.8901186983962273	-0.0012933626988190228
173														9.759812068426722	-0.03459759991310036	-0.029023634643349353	0.005682529278119963	-0.0014342077559324484	0.9999828258070818	0.8900961950541071	-0.45573691954541296	-0.00571171720754815	0.4557372844207554	0.8901133653705976	-0.0013131555219644264
174														9.76959885335744	-0.06723540573145058	-0.026452870866156768	0.005690347642235749	-0.0014379778249536401	0.999982775933409	0.8901021600503833	-0.45572516011405584	-0.00572041193106515	0.45572553649905706	0.8901193800040499	-0.0013132874222667734
175														9.788237246686325	-0.04199011956136711	-0.011605581253663943	0.005697157423088406	-0.0014430769376769792	0.999982729813995	0.8900992085940098	-0.45573081949569305	-0.005728788886178948	0.4557312160227943	0.8901164742272423	-0.0013118885810534664
176														9.788238637555114	-0.04161049870634405	-0.011798408292006212	0.0057017754429571355	-0.0014395200078030634	0.9999827086199765	0.8901148785478568	-0.45570018094728526	-0.005731323786445697	0.45570055161754175	0.8901321659544487	-0.0013169619241636399
177														9.757104119385147	-0.04937478394544985	0.00046813163950837816	0.005707215880619898	-0.0014371890179660785	0.9999826809373344	0.8901212857795257	-0.45568761774649125	-0.0057351229046800345	0.45568796811973883	0.8901386012977162	-0.0013214350720244794
178														9.749143673327099	-0.05329695751100453	-0.022358925547887272	0.005707762082316825	-0.0014445281571034418	0.9999826672449958	0.8901174537714522	-0.45569505486767964	-0.005738942460937868	0.4556954464809136	0.8901347821018718	-0.001315199230170927
179														9.767778993425253	-0.028021161841832783	-0.00743961709965952	0.005708597876806332	-0.0014550893547215504	0.999982647162065	0.8901204127653566	-0.45568920484228853	-0.005744507692952816	0.45568965611336026	0.8901377597345104	-0.0013061416902109824
180														9.769612251546144	-0.06480197480394664	-0.027555588835017287	0.005702047437464497	-0.0014166786253549946	0.9999827396893877	0.8901171889864782	-0.45569579563231616	-0.005721163678902075	0.4556960352316348	0.8901344476340094	-0.0013373890480503636
181														9.749149287032989	-0.051949886907478725	-0.023070194239395787	0.0057222101426140926	-0.0014236727404874916	0.9999826145823796	0.8901248348705421	-0.45568059437896236	-0.005742321231528014	0.455680847367732	0.8901422184473466	-0.0013402536559115608
182														9.788246881408455	-0.039164255719782944	-0.013244851759412446	0.005742604361078041	-0.0013954299141030746	0.9999825374827838	0.8901249451463911	-0.45568031234283835	-0.0057476056986764945	0.45568037539846534	0.8901424075497628	-0.0013746847731707645
183														9.741185607458082	-0.05568659056416485	-0.046485213529814565	0.005768737663463919	-0.0013969572697638544	0.9999823849329332	0.8901266798454153	-0.4556766208728914	-0.005771569738056148	0.45567665673495744	0.8901442948759769	-0.0013852099487686176
184														9.749151662164415	-0.05107635535872974	-0.023998425929891765	0.005770301332764849	-0.001405549971387976	0.9999823638703875	0.8901338204762124	-0.4556626044394284	-0.005776898813401543	0.4556626880346386	0.8901514564077038	-0.001378182967786079
185														9.757119012410271	-0.046321680237051986	-0.0013295762580588424	0.005753175866831439	-0.0014271064158219438	0.999982432013045	0.8901227329714081	-0.4556843322751604	-0.005771444052682373	0.45568456328359136	0.8901402994394872	-0.0013513322402461947
186														9.777587177319372	-0.05837807150865915	-0.006255201854224427	0.005781340388762601	-0.0014257296003405973	0.9999822715420594	0.8901214712595561	-0.45568648667161915	-0.005795883677300717	0.4556866714158247	0.8901391987548826	-0.0013654061605345436
187														9.738493176093629	-0.07057930388556577	-0.016614660651432342	0.005782171854168516	-0.0014362881824728224	0.9999822516249511	0.8901244287410217	-0.4556806388303221	-0.005801444101313613	0.45568088378504534	0.8901421754256158	-0.0013563485664030983
188														9.769626375296102	-0.06186228304978638	-0.029252101681873727	0.0057613330221292225	-0.0014205834622093572	0.999982394337238	0.8901212498073092	-0.45568717515865065	-0.005775728300709715	0.4556873573880259	0.8901388545269534	-0.0013608740431648725
189														9.788255986160538	-0.03634129648688641	-0.014502986024370331	0.0057580119289636356	-0.0014034505455937651	0.9999824376583776	0.8901205085486136	-0.45568875942883447	-0.005764962390718387	0.4556888473067807	0.8901380706703734	-0.001374621199319137
190														9.769631458741515	-0.060783997724562285	-0.029809088944688873	0.005770175035750835	-0.0013944815129998123	0.9999823800954528	0.8901306777784224	-0.4556688090851686	-0.005771733243181698	0.455668828819553	0.8901482976719183	-0.0013880180124374863
191														9.777599854687145	-0.0560844607910877	-0.007331758755460196	0.005771004495635501	-0.0014050390340494268	0.9999823605306365	0.8901336349007916	-0.455662961982634	-0.005777291365039017	0.4556630416496551	0.8901512741902496	-0.0013789604995404492
192														9.749165887225864	-0.047667312904959146	-0.025202686928672377	0.0057763914259262306	-0.0014286046103983985	0.9999822960387655	0.8901225505253836	-0.4556844177834998	-0.0057927916843700245	0.45568462597313963	0.8901402532624731	-0.001360578384312694
193														9.757133957183214	-0.0429989185913975	-0.002630503837532886	0.005781820858877407	-0.001426267487348476	0.9999822679970933	0.8901289574832052	-0.45567185421398837	-0.005796578908986383	0.45567204171138065	0.89014668849479	-0.0013650510398920956
194														9.75898204040897	-0.07999872891608076	-0.022711686662618538	0.0058072663073329145	-0.001426026141666259	0.9999821208939088	0.8901351083648943	-0.4556595510773751	-0.0058191380963052985	0.4556597025349669	0.8901529868294603	-0.0013767804244427806
195														9.78029557321186	-0.03830496296171547	-0.03822963932835165	0.005765285923572561	-0.0014160193674165877	0.9999823780284185	0.8901249915205727	-0.4556798477884211	-0.005777178378916781	0.4556799984075666	0.890142612848454	-0.0013666903846956124
196														9.741204439945795	-0.050259809256409986	-0.04867170952568026	0.0057960723182254315	-0.001393603092438911	0.9999822315501923	0.8901301219244531	-0.4556696074523389	-0.005794384090603788	0.4556695859813775	0.890147890361288	-0.001400605907424246
197														9.769643913554624	-0.05801217855336156	-0.03121706718185258	0.005807475476512003	-0.0013857936173314878	0.9999821762434771	0.8901306193643512	-0.45566855183088834	-0.005800977708811106	0.4556684690634483	0.8901484429287014	-0.001412746609269211
198														9.765111209998633	-0.03661889984427993	0.01868466272098584	0.005820169958071775	-0.0013828086144529461	0.99998210657091	0.8901204443535693	-0.4556883015266294	-0.00581088595482443	0.4556881830434749	0.8901383373903808	-0.0014213171444372175
199														9.787437797493753	-0.08588690503066923	-0.006187098433071309	0.005812244246426512	-0.001378560820305741	0.9999821585342834	0.8901162528365713	-0.45569660367470516	-0.005801882067052344	0.45569647162667515	0.8901340938136251	-0.0014215405711465179
200														9.769648959589103	-0.056813464167067416	-0.031836184109707996	0.005821713547581542	-0.0013899201070528555	0.9999820877263081	0.8901133661852952	-0.4557020688410467	-0.0058154786795578395	0.45570198923161653	0.8901312782820778	-0.001415780442615422
201														9.7544690616827	-0.05583364513930209	0.025825289739843778	0.005797679303783443	-0.0013689144625102512	0.9999822563365236	0.8901172961196866	-0.45569478648047823	-0.005784524448011641	0.45569461930471455	0.8901350389956042	-0.0014234777924311826
202														9.736675887035084	-0.026727132612012042	0.00018618237124248252	0.005815844121300706	-0.001393644218865786	0.9999821166965678	0.890109658981635	-0.4557093551210484	-0.005811939672429545	0.45570930530849874	0.8901275422156926	-0.0014098383936061443
203														9.777624944934802	-0.051167156978195696	-0.00951351028519097	0.0058033197461123676	-0.001402287736080421	0.9999821773756921	0.8901020159141525	-0.4557243757414725	-0.0058047067632520655	0.4557243934062412	0.8901198385297064	-0.001396535127748344
204														9.74918314038616	-0.04263565970648407	-0.027443583402241564	0.005802926376757445	-0.001400302615075677	0.9999821824402938	0.890091066867988	-0.4557457767411918	-0.005803418335377508	0.4557457830054751	0.8901088844265934	-0.0013982623403565597
205														9.785599165935686	-0.045915507168633206	0.012922852693684126	0.005796380832438108	-0.0014034698912971377	0.999982215962619	0.8900775127843216	-0.4557723037915493	-0.005798994069673102	0.4557723370334379	0.8900952967906349	-0.001392632855540088
206														9.757156003494716	-0.03742258773870425	-0.005015358425554131	0.005795794846491509	-0.0014114829046311672	0.9999822080807778	0.8900769213032542	-0.45577341907323965	-0.005802122853778735	0.4557734995866024	0.8900947130403032	-0.001385240875206195
207														9.769663544384885	-0.0537654951778042	-0.0326436937465194	0.005802594886543222	-0.0014165581821451445	0.9999821614686435	0.890073967211844	-0.4557790815902323	-0.005810479888493536	0.4557791820436217	0.890091805460359	-0.0013838598072605235
208														9.746517738124947	-0.057178846055201425	0.002331250998238466	0.0057934313130728055	-0.001401648257273902	0.9999822356101054	0.8900701843544927	-0.45578665943329866	-0.0057955160075611745	0.45578668593628363	0.8900879487246176	-0.0013930033820898635
209														9.77763714462612	-0.048576998762003006	-0.010501826077484332	0.005824156736119246	-0.0013902691053512273	0.9999820730143759	0.8900753740322794	-0.4557762422209819	-0.005817694407561025	0.45577615968763874	0.8900933008279168	-0.0014170679773434225
210														9.777638976313899	-0.048131500433823166	-0.010843327860296412	0.005807518537528089	-0.0013696648431588132	0.9999821982148751	0.8900677512525426	-0.4557914368328637	-0.005793469605998969	0.45579125804328263	0.8900855521398217	-0.0014279227117333648
211														9.746525814723336	-0.05581383715693448	0.0014880998532903842	0.0058083362521571535	-0.0013802060485498258	0.999982178971828	0.8900707056854641	-0.45578559690734766	-0.005799011328853743	0.4557854781698965	0.8900885263180712	-0.001418875034103928
212														9.78561457193102	-0.04291781402007393	0.011479300850863246	0.005823020022464043	-0.001378689449274939	0.9999820956663277	0.8900682569790397	-0.4557902212111796	-0.005811382499746609	0.4557900726827126	0.8900861606966297	-0.0014269478691245063
213														9.759036874868542	-0.07173288467121257	-0.026453227583711075	0.005819688357249442	-0.001361530483385831	0.9999821385715681	0.8900675162465618	-0.45579180514408557	-0.005800593605134741	0.45579156173639346	0.8900853760163899	-0.0014407122060854927
214														9.774985039572979	-0.06252316014968967	0.01867035970240261	0.005805762890330579	-0.0013605607345207882	0.9999822208378251	0.8900669990726968	-0.45579297828633547	-0.005787754883883556	0.4557927492610924	0.8900847767596971	-0.0014352357489770262
215														9.74653652997356	-0.053927193413919654	0.0006350653535344461	0.0058024301939064715	-0.001343399085232122	0.9999822633840778	0.8900662582926495	-0.4557945617690714	-0.005776963792816947	0.4557942382838644	0.8900839919584211	-0.0014490019302409451
216														9.759046057727003	-0.07026667714486257	-0.026994687537517464	0.0058124775551168795	-0.0013741744940524159	0.9999821632154903	0.8900650691912235	-0.4557965921428382	-0.005799930740781001	0.45579643231413514	0.8900829052596366	-0.001426202745399452
217														9.767021900894841	-0.06546565767998029	-0.004425891321967204	0.005788431343057232	-0.001353143599608364	0.9999823313764031	0.890068997484186	-0.45578931414832224	-0.005768953605200522	0.4557890672011382	0.8900866643819587	-0.0014339139846911708
218														9.790163370832072	-0.061044727256611774	-0.03985193403648026	0.005800504927420513	-0.0013508389739587678	0.999982264531053	0.8900585692283527	-0.455809555548941	-0.005778616915321111	0.45580927753366773	0.8900763025181283	-0.00144159976850744
219														9.73857285815261	-0.05645338443955399	-0.022771636157010736	0.005797168498917371	-0.0013336730375583805	0.9999823069202893	0.8900578285332303	-0.45581113864834816	-0.005767820282125691	0.4558107663319348	0.89007551769517	-0.0014553678466453501
220														9.790168222720789	-0.059958736836230646	-0.04030653944839585	0.005763052039450212	-0.0013302773183142547	0.9999825086437499	0.8900721399970916	-0.4557835938989995	-0.0057359509682534116	0.45578325203125764	0.8900896280121282	-0.001442661790866051
221														9.759062044052271	-0.06761928387587339	-0.027959686673142175	0.0057744441052220985	-0.001322449641668444	0.9999824533071677	0.8900726401764987	-0.45578253434808147	-0.005742524921834857	0.4557821310719779	0.8900901822344667	-0.001454814524669168
222														9.77766294219239	-0.042322604919683184	-0.013203245239657277	0.005779523552614019	-0.001325683740139083	0.9999824196805293	0.8900693124512872	-0.4557889573800388	-0.005748509625140508	0.45578856517029676	0.890086888395194	-0.0014542925990858602
223														9.749206324898609	-0.0338462250295342	-0.031198250142009713	0.005771587316711013	-0.0013214078606045288	0.9999824711769261	0.8900651175115306	-0.45579726295950024	-0.00573948323577933	0.45579685756818367	0.8900826416462094	-0.0014545346591590125
224														9.764396087666738	-0.07819798443423538	0.024503847189329478	0.005758996105867886	-0.0013223391324552192	0.9999825425391542	0.8900790012339783	-0.4557702853960297	-0.005728744395141816	0.4557699041470114	0.8900964545313278	-0.001447793004457687
225														9.77766798991861	-0.04095170841559732	-0.013776125762701062	0.005789709361334383	-0.0013109580047204195	0.9999823801720813	0.8900841974703513	-0.4557598582836316	-0.005750912175000011	0.4557593670777067	0.8901018104500146	-0.001471854114476312
226														9.767049667399181	-0.06101418681470253	-0.006342429340618068	0.005747735107799357	-0.0013002930700865	0.9999826362387817	0.8900829616854165	-0.4557628025936604	-0.005708685425799664	0.45576231180128224	0.8901003185090459	-0.0014622351544149592
227														9.77767211334985	-0.039878959907555994	-0.013994460247461761	0.0057526925807262486	-0.00133853705149517	0.9999825572711929	0.890089608660011	-0.4557495467446025	-0.005730549498860593	0.4557492677816841	0.8901070491579381	-0.0014303691158847331
228														9.738593310359084	-0.05217348044873929	-0.02418863616726893	0.005764627139731304	-0.0013384944007553967	0.9999824886000154	0.8900971892543835	-0.4557346076019918	-0.005741177170729916	0.45573431158448774	0.8901146981522092	-0.0014357499835521703
229														9.759081434048305	-0.06419634786107767	-0.029231451166978197	0.005771418742208101	-0.0013435607695013174	0.9999824426309503	0.8900942365206506	-0.45574026934931894	-0.005749522252450456	0.4557399925817607	0.8901117917081369	-0.001434372234753234
230														9.798162843802873	-0.0512603375816998	-0.01915083862344248	0.005768009035689026	-0.0013656259129728454	0.9999824324145055	0.8900967617732803	-0.4557352485813278	-0.005756551158168144	0.4557351037088162	0.8901143287614137	-0.0014131458287682808
231														9.769702311500584	-0.04277493053651177	-0.037002341982834364	0.005754083668723042	-0.0013668243454181273	0.9999825110032388	0.8900984749301796	-0.455732052050104	-0.005744707231046642	0.4557319337594223	0.8901159635268938	-0.0014057120926609934
232														9.78755192885872	-0.07100997451619978	-0.011759945254282663	0.005787827477057306	-0.001353488072817266	0.9999823344055301	0.8901027967573643	-0.4557233080968896	-0.005768679393642562	0.4557230653124933	0.8901204606834207	-0.001432904365546217
233														9.767066792833765	-0.05812107086175138	-0.007096871181209608	0.005741241477644543	-0.001356311072834071	0.9999825991318894	0.8900892100040668	-0.45575035164656297	-0.0057284560197732315	0.45575019076313245	0.8901066101284205	-0.0014093349709857206
234														9.787560302339948	-0.06979356543461435	-0.012069537833644998	0.005740791376128596	-0.0013379522262297328	0.9999826264481886	0.8900931399115464	-0.45574278634878507	-0.005719700468651445	0.4557425211638489	0.890110511439387	-0.0014254221595075278
235														9.759097135312508	-0.061258768129918297	-0.03027502086200248	0.005749422909948287	-0.0013098304103701386	0.9999826140891148	0.8900805892848368	-0.4557673625426889	-0.005714527035504791	0.4557669236732312	0.8900979696556879	-0.0014545446922841765
236														9.746585556538946	-0.044086759868208196	-0.0030343788750656106	0.0057423879153728485	-0.0013153319071975145	0.9999826472909437	0.8900876676034848	-0.4557535856147412	-0.00571079499681143	0.4557531886462432	0.8901050157713308	-0.0014463531730199986
237														9.767078856781142	-0.0559304362866671	-0.00803280478190063	0.005733055542708587	-0.001303630015214663	0.9999827161620983	0.8900928351811852	-0.4557436636957911	-0.005697171250482802	0.455743213699627	0.8901101131601197	-0.0014524520009357444
238														9.748496518115052	-0.08046751486313367	-0.023297439686732844	0.005757082409056424	-0.0012962621961826737	0.9999825877016331	0.8901052193934225	-0.4557192495796665	-0.005715240251550513	0.45571872291000143	0.89012262372488	-0.0014698035286989652
239														9.769711150821642	-0.03887317812100481	-0.038923363143283846	0.0057491445659232365	-0.001291975359456854	0.9999826389175124	0.890101024776119	-0.45572755555338273	-0.005706207308050548	0.4557270159089366	0.890118377469542	-0.0014700550081132024
240														9.803533507852816	-0.05834041504695275	0.03176417314226126	0.005750420022500591	-0.001300180956709196	0.9999826209485068	0.8900987017413071	-0.45573203177255506	-0.005711074758630308	0.45573153701275126	0.8901160737487773	-0.0014633612188041933
241														9.735991095004861	-0.06247210352001662	0.0036839283601808256	0.005742481917883124	-0.0012958909448252953	0.9999826721339137	0.8900945067561017	-0.45574033810961206	-0.005702040191790769	0.45573983032431464	0.8901118271803807	-0.0014636152395004487
242														9.76971520126033	-0.03744440769075579	-0.03930548661371362	0.005729513369428896	-0.0013019631034504875	0.9999827386353362	0.8900785800798101	-0.45577155309126105	-0.005693213142764886	0.4557710982057317	0.8900958354496764	-0.0014524997364062098
243														9.756491798460932	-0.07378261453998745	-0.001454582236681573	0.005726165194134325	-0.00128477780589914	0.9999827800408163	0.8900778415817374	-0.4557731302746258	-0.0056823978094959204	0.4557725824985152	0.8900950528261906	-0.0014662799786133163
244														9.777695651203693	-0.032191520546501665	-0.01701733122373637	0.005743206893554287	-0.0013025815606999003	0.999982659277578	0.8900771895554946	-0.45577411275344193	-0.005705679346569292	0.4557736414137734	0.8900945238709717	-0.0014582068915545698
245														9.78759192372856	-0.06476311434949243	-0.014267262371451957	0.0057292769864521476	-0.001303760932852116	0.9999827376473271	0.8900788991995706	-0.4557709222596902	-0.005693823164866385	0.4557704779654929	0.890096155833729	-0.0014507877600640762
246														9.759120956971076	-0.05629244179673063	-0.03217753129317052	0.005729095845856791	-0.0013131587544938372	0.9999827263882486	0.8900845256666947	-0.45575988237846876	-0.00569796306235254	0.4557594920892867	0.8901017948686827	-0.0014422697617239022
247														9.767101668319782	-0.051484871504221194	-0.009821264556106471	0.00573632831104709	-0.0012776010594288123	0.9999827309874109	0.890081339857034	-0.4557662262565939	-0.005688184431802523	0.4557656228543513	0.8900985983245654	-0.001477255844115677
248														9.764487603328107	-0.0672078669942853	0.020279664057826507	0.0057168275861885776	-0.0012909607754013064	0.9999828255038313	0.890085578830812	-0.4557580880613786	-0.005676929104284856	0.45575758933863975	0.8901027460843568	-0.0014564248414369318
249														9.759126302858924	-0.054920443918018896	-0.03291869204539516	0.0057475297516079715	-0.0012795728006779195	0.999982664147335	0.8900907839646994	-0.455747645894796	-0.005699084352615735	0.45574703751408085	0.8901081091388838	-0.0014804871967102895
250														9.777701535951353	-0.029658869242740787	-0.018197943804525808	0.005747655816591868	-0.001287383735380565	0.9999826533974139	0.8900835111097334	-0.45576180411234113	-0.005702732926746112	0.45576123979906824	0.8901008485308743	-0.0014736829490535897
251														9.756516126080195	-0.07043933599850984	-0.003096750735173701	0.005756286910446162	-0.0012592355304534841	0.9999826395927501	0.890070962646338	-0.4557863747779113	-0.005697545140770255	0.4557856366921037	0.8900883073564605	-0.0015028281623046258
252														9.767111980658553	-0.04922421136378922	-0.011076169250330664	0.00572859461895131	-0.0012506856861552729	0.9999828093467438	0.8900789581335535	-0.4557711162842074	-0.005669025395555249	0.4557703714498999	0.8900961326431893	-0.0014977189517335066
253														9.738635002718357	-0.04065763420999684	-0.02901845386583363	0.0057279857299681325	-0.0012537939912080076	0.9999828089422864	0.8900912722847771	-0.45574705569780016	-0.005669940498235382	0.4557463298611899	0.8901084480126082	-0.0014945215426945824
254														9.78500742987589	-0.07686711702080394	0.014096215872057989	0.0057410136876077655	-0.0012514044568343041	0.9999827372253605	0.8900779561873926	-0.455772931314393	-0.005680404066596256	0.45577217189195846	0.8900952022497208	-0.0015027511158142715
255														9.738636804803157	-0.039937454456346944	-0.029411047019479455	0.0057478006344594545	-0.001256447095354607	0.9999826919144963	0.8900750022095798	-0.45577859619466243	-0.005688733816821556	0.45577785513282926	0.8900922944231788	-0.0015013923532066764
256														9.779637518116619	-0.06424827446781961	-0.03923787805475613	0.005749597370152182	-0.0012652201726008339	0.9999826705238425	0.8900745010014526	-0.45577950510259546	-0.005694330114069224	0.45577881126385844	0.8900918165820579	-0.0014944084301224403
257														9.756534537620611	-0.06779010211727556	-0.004062069716830738	0.0057458011534812226	-0.0012886298655908623	0.9999826624507917	0.8900739924579335	-0.45578040709063117	-0.005701619269381231	0.4557798522522678	0.8900913211268651	-0.001471847659528458
258														9.76972694347856	-0.03052893974860758	-0.04225583499845251	0.00575507038721168	-0.0012731829493825009	0.9999826289341305	0.8900927238516263	-0.4557438095962599	-0.005702890589863729	0.45574315366358514	0.8901100825290459	-0.0014895868233851806
259														9.746623752423542	-0.03396627479363786	-0.00738894596301688	0.005751712927784369	-0.0012559825633196575	0.9999826700029342	0.8900919863943861	-0.45574538527989894	-0.005692060485678219	0.4557446363424287	0.8901093002007547	-0.0015033766096305134
260														9.795611011298949	-0.05383415831163658	0.005328142145169122	0.005758201346155178	-0.0012601643623761372	0.9999826274006154	0.8900930184774458	-0.4557432735231396	-0.005699745268277823	0.45574253869368797	0.8901103755288968	-0.0015025980300170105
261														9.756545660303438	-0.06610949671547711	-0.00494938965502378	0.005764986390635274	-0.0012652045220037933	0.9999825819430226	0.8900900647607923	-0.4557489380420458	-0.005708072150620858	0.45574822165977236	0.8901074680795941	-0.0015012404504328725
262														9.76712986510197	-0.04506868344689548	-0.01285070111044226	0.005760649273442109	-0.0012548718464037711	0.9999826199572661	0.8900859740892879	-0.45575703456599226	-0.005699488848775525	0.45575626561735033	0.8901033371133167	-0.0015085126002751803
263														9.76713123909313	-0.04470308877005783	-0.013080617032474252	0.0057807561148380815	-0.0012618509287942725	0.9999824951422775	0.8900936266645209	-0.45574182449275946	-0.005720592557804771	0.4557410653319957	0.8901111150526351	-0.0015113668692034454
264														9.77705548364281	-0.0773701473183236	-0.010462643742605401	0.005794272990058469	-0.0012594208996904999	0.9999824199752281	0.8900793862135816	-0.455769499305155	-0.0057314693387844895	0.4557687051983382	0.8900969482939065	-0.0015198683181352202
265														9.769727919211942	-0.02780042019519715	-0.04388206445092934	0.005799646656049373	-0.0012570471793657	0.9999823918105027	0.8900857956841031	-0.4557569351017919	-0.005735192064631078	0.45575611945432193	0.8901033849722233	-0.001524349345776277
266														9.74663205994165	-0.031082239989976845	-0.008961030927686148	0.005764324441003721	-0.0012212754970671869	0.9999826403742718	0.8900941046136976	-0.45574130551549585	-0.005687475623893767	0.4557403399916226	0.8901114373679246	-0.0015399906261092111
267														9.759153550605696	-0.047183888946887055	-0.03662971490900304	0.005767924917799094	-0.0012466167925724303	0.9999825883427749	0.8900783270307251	-0.4557719352104058	-0.005702177193644742	0.4557711078955408	0.8900957190219121	-0.0015192717127522348
268														9.78764445720395	-0.05490025714472372	-0.01885205612959106	0.005781956435447266	-0.0012657323327336378	0.999982483297303	0.8900872387631276	-0.4557542649089663	-0.005723408802402907	0.45575352590057955	0.8901047398699493	-0.001508539107916873
269														9.756566558631551	-0.0628159063457355	-0.006430041381039533	0.005773998777903411	-0.0012614193629609805	0.999982534727134	0.8900830421607513	-0.4557625744928807	-0.005714345936658094	0.4557618226617662	0.8901004912440013	-0.0015088045641112324
270														9.767142799681807	-0.0417302322657124	-0.014220930381410165	0.0057699262336496915	-0.0012767132844008766	0.9999825388247776	0.8900968785713506	-0.4557355090883618	-0.0057177367471880625	0.4557348513212443	0.8901143273530436	-0.001493161760218853
271														9.779665667244219	-0.058034129371447474	-0.04182002222284876	0.005776703129256211	-0.0012817518335683231	0.9999824932533536	0.8900939254972062	-0.4557411722449269	-0.0057260556925154416	0.45574053308207113	0.8901114205721983	-0.0014918019347840983
272														9.764559073461307	-0.057298223295049806	0.015789959357515142	0.005801675883512325	-0.0012761155927413226	0.9999823558873107	0.8901178802992517	-0.4556941353681905	-0.0057457952107375365	0.4556934273483755	0.8901355102005708	-0.001507896368995898
273														9.766511403074508	-0.0943056241116259	-0.004378207114778471	0.0058190361727767925	-0.0012627830376579219	0.9999822719413677	0.8901124853560477	-0.45570455517469255	-0.005755154760306247	0.4557037439294299	0.8901301948434481	-0.0015277423425456016
274														9.76714790159718	-0.040226330038710886	-0.01502845184037142	0.005778610843014176	-0.0012801259943309162	0.9999824843136824	0.8901136454939713	-0.4557026428374309	-0.0057270774758404475	0.4557019922736331	0.8901311490945703	-0.001493870617585158
275														9.76715000598467	-0.03967204034124664	-0.015133315003278577	0.005788556142748147	-0.0012648652050747944	0.99998244621283	0.8901235167281196	-0.4556833367910397	-0.005729008513596701	0.4556825842462571	0.8901410543767752	-0.0015118623138015708
276														9.748598242215172	-0.06411064545722128	-0.030402649550869645	0.005773248116975327	-0.0012434777235254546	0.9999825615326152	0.890105179815132	-0.45571944800012215	-0.0057055745315185424	0.4557185957062216	0.8901225974424054	-0.001524155482340972
277														9.767153773923644	-0.03850756187966046	-0.01569899629659088	0.005763873076082504	-0.0012317511486503174	0.9999826301272785	0.8901103467610436	-0.45570952681835264	-0.005691902663172599	0.4557086222095174	0.8901276930621247	-0.0015302574300941618
278														9.748603722943091	-0.06301956937634447	-0.030921620220464227	0.005774912589564418	-0.0012217219778276611	0.9999825787382456	0.8901040278328705	-0.45572180358133696	-0.005697137550889131	0.4557208246506662	0.8901214215689801	-0.0015442939274844525
279														9.779679484574809	-0.05424204052684848	-0.04363980916775829	0.005754951323452884	-0.0012283644395520987	0.9999826856781413	0.8901116347107748	-0.45570712945190217	-0.0056824219501512285	0.4557062192770436	0.8901289250931637	-0.0015291908684358924
280														9.75659699541684	-0.0576230959633274	-0.008534891540655015	0.0057461150413370965	-0.0012228815023164197	0.9999827432124833	0.8901086775273781	-0.45571303477563346	-0.005672047782279699	0.45571210687493685	0.89012590935014	-0.0015300820868580645
281														9.756598949432062	-0.0572664824430487	-0.008698588479220483	0.005767621408599211	-0.0012372692181629175	0.9999826017027343	0.8901069688239073	-0.4557160517038765	-0.005697742583347265	0.4557151726620515	0.8901243449003695	-0.0015270957026514154
282														9.779684250168456	-0.052963910757718766	-0.04413896960717005	0.005764706799880226	-0.00121911524708046	0.9999826408060926	0.8901089728558307	-0.4557122730600062	-0.005686881748508565	0.45571129522653986	0.8901263044874574	-0.00154190221892625
283														9.748615249704326	-0.060866775437242365	-0.03159275637936905	0.0057591418547986994	-0.001270225733752739	0.9999826092546218	0.8900862696237057	-0.45575638661327567	-0.005705145797107791	0.45575570749300787	0.8901036471039738	-0.0014941551968002398
284														9.779687799469366	-0.052212074819075645	-0.04424821232344295	0.005773250108826455	-0.0012393948626306939	0.9999825665898161	0.8900892508796103	-0.4557505827815733	-0.0057036622297296224	0.45574970658438785	0.8901066622571877	-0.0015279900568184734
285														9.77712049200189	-0.06798514942378012	-0.014228605716774262	0.005765285283446553	-0.0012350667134777282	0.9999826178968383	0.8900850532664768	-0.45575889420091964	-0.005694585882091152	0.4557580053462737	0.8901024126284394	-0.001528265624082925
286														9.744085295065657	-0.03854660449590748	0.017971334747293052	0.005772756532827106	-0.0012389890802197434	0.9999825699421323	0.8900838131662676	-0.4557612106197	-0.005703019714328461	0.4557603326545754	0.8901012210982098	-0.0015281943810206422
287														9.779692157711409	-0.05083159780342796	-0.04488764027453248	0.005758789225973171	-0.0012401424465871003	0.9999826490461536	0.8900855172042091	-0.4557580314524192	-0.0056911185131821584	0.45575718141348726	0.8901028473234583	-0.001520781610201638
288														9.748625962362594	-0.0586743109195848	-0.032424140918484536	0.005760682840543818	-0.0012486260102194113	0.9999826275822481	0.8900831357773917	-0.45576261303354854	-0.005696662664853136	0.455761808336214	0.890100489548185	-0.001514122909674509
289														9.785121446098055	-0.06177257023458017	0.00775393101444726	0.005761885470509653	-0.001218513108348418	0.9999826578004393	0.8900858640526282	-0.45575744267685503	-0.005684017799090946	0.4557564648905289	0.890103178665518	-0.0015414408941326063
290														9.759181610859367	-0.037122296801595726	-0.04052538056177423	0.005754366000524147	-0.0012530966447479308	0.9999826583599993	0.890078545002022	-0.45577162347859923	-0.005693062336345478	0.4557708536084944	0.8900958695446692	-0.0015073222958447707
291														9.785127060227893	-0.060885552586665705	0.007683257003872628	0.005741817678651173	-0.001261650388699187	0.9999827197347173	0.8900708832074291	-0.4557866769954338	-0.005685766422200367	0.4557859743301595	0.8900881491806063	-0.0014940857238975869
292														9.76915166328429	-0.06914994076159968	-0.03778334923153833	0.005745292419881254	-0.0012519540902256598	0.9999827119635447	0.8900970774482038	-0.455735536116783	-0.0056845262348210746	0.45573477411009145	0.8901143486829678	-0.0015039732443130616
293														9.746077158219968	-0.0727965711423909	-0.0026496007239597847	0.005757631946303854	-0.00129211601756829	0.9999825899037279	0.8900884422755618	-0.4557520351915154	-0.005713785632549928	0.45575148337864346	0.8901058436247837	-0.001473954944095024
294														9.761165566119695	-0.07293775006961521	-0.060633788169489077	0.0057682050430167275	-0.0012751280299773682	0.999982550777307	0.8900948788843239	-0.45573944301775515	-0.005715475637909306	0.4557387786819144	0.890112315455962	-0.0014938136241118838
295														9.787693994725721	-0.043091076343024226	-0.023300327856127206	0.005760239566449221	-0.0012707899478694995	0.9999826022151815	0.8900906811270111	-0.4557477552688759	-0.00570639450393895	0.45574707789627233	0.8901080657202751	-0.001494097961951657
296														9.777149353047419	-0.06334683809215651	-0.015723664134226756	0.005777438492420017	-0.0012901518187397598	0.999982478202869	0.8901008056976498	-0.4557276778598033	-0.005730560959139097	0.45572708598552863	0.8901183174953746	-0.0014845734547958567
297														9.766605913966533	-0.08366558803704277	-0.008166547703578563	0.00578278737259591	-0.0012877680403967084	0.9999824503578443	0.8901072170701787	-0.45571510883332644	-0.005734256761965595	0.45571449558883476	0.8901247559946328	-0.0014890519501931654
298														9.756634981372882	-0.05027778935701141	-0.011143459782344704	0.005768775069721677	-0.0012957892514021685	0.9999825209294468	0.8901052076513829	-0.4557191445741767	-0.00572543277576959	0.45571859798134656	0.8901226781735185	-0.0014755524793226837
299														9.7851467090544	-0.05778637244113076	0.006502089192781855	0.0057815486665197535	-0.0012953257039122756	0.9999824477591285	0.8900963545855636	-0.45573629589732234	-0.005736563019745733	0.4557357274216144	0.8901138976182259	-0.0014818968867765236
300														9.759190637837218	-0.03315062645602415	-0.041775960882387726	0.005761881561876292	-0.0013012087919854753	0.9999825536360855	0.8901075159913722	-0.4557146818784443	-0.005721773859324264	0.45571417653671464	0.8901249550350264	-0.0014675582973713852
301														9.756641872573054	-0.04882699135331668	-0.011554130069466591	0.0057524891416312895	-0.0012894645412981909	0.9999826229239546	0.8901126831252703	-0.4557047609874417	-0.00570807786480354	0.4557042025351615	0.8901300512254235	-0.0014736679467201586
302														9.756643943759798	-0.04836293597792073	-0.01175434959672622	0.005757878350785783	-0.0012928108214130818	0.9999825875869428	0.8901067573457446	-0.45571625643495967	-0.0057143808369816695	0.4557157089286494	0.8901241611489301	-0.0014732191189185673
303														9.746106941301004	-0.0686138111424347	-0.0042406611822179315	0.005763219797372987	-0.0012904257564844701	0.9999825598973887	0.8901131692805926	-0.4557036861342245	-0.00571806933672897	0.4557031173591274	0.8901306001059888	-0.0014776955458389307
304														9.777168412225434	-0.05998813860770033	-0.01699382164705238	0.005785413356326874	-0.0013057002716898025	0.9999824119148786	0.8901274231622147	-0.4556755067399255	-0.0057448317563380535	0.45567499330871014	0.8901450037516996	-0.001474031544582699
305														9.777171330436326	-0.05951296084316454	-0.01698695039141797	0.005740107282398876	-0.0013213455104700844	0.9999826524567457	0.8901362147039604	-0.45565874974907355	-0.005711659094889687	0.4556583922643054	0.8901535585634387	-0.0014393526167174597
306														9.774630816453268	-0.07510990109564951	0.013294542360807382	0.005736226500362429	-0.0013032243097640395	0.9999826985062967	0.8901379718723669	-0.45565546366490706	-0.005699952918057527	0.45565500846197887	0.8901552673768307	-0.0014536935017214758
307														9.76918569992505	-0.06288233825541371	-0.03987564903225576	0.0057531494977781095	-0.001330494405450966	0.9999825653757636	0.8901328013261239	-0.45566521985304353	-0.005727426960215221	0.45566489581068603	0.8901502329387521	-0.0014371934184796986
308														9.764646198565847	-0.04154752362381997	0.010233609665682514	0.005754216834892079	-0.0013400321207412969	0.9999825464989535	0.8901375445840743	-0.45565588708647853	-0.0057327380254650895	0.4556556163490705	0.8901549959851649	-0.0014291298747702297
309														9.787714351101512	-0.03703644927913523	-0.025091480373379917	0.005725499964226999	-0.001331812374349317	0.9999827223137202	0.8901380017149572	-0.45565536184349076	-0.005703431088410982	0.45565508507319696	0.8901552771843105	-0.001423357952372195
310														9.779724622994289	-0.040876988957938065	-0.047883271547648605	0.005730911734955824	-0.0013358362882922026	0.99998268594616	0.8901363451599293	-0.4556585147316611	-0.0057100768698139515	0.45565825316349606	0.8901536572378653	-0.0014222622978157795
311														9.777187020005261	-0.0566712421102931	-0.017660571000129643	0.005716929315827679	-0.001336977723285615	0.9999827644563507	0.8901380472872771	-0.4556553388197785	-0.005698155545977024	0.45565510365932604	0.890155281226596	-0.0014148546245401628
312														9.764655310795536	-0.03946412168651466	0.00977547393914123	0.005703046366954234	-0.0013425713075752022	0.999982836234913	0.89011731978071	-0.4556959517825533	-0.005688282288920876	0.4556957672488762	0.8901344825537751	-0.0014038091683359344
313														9.777192711970338	-0.055619788798643606	-0.0178510782764844	0.00569506907684858	-0.001338220551037883	0.9999828875305654	0.8901131227337364	-0.4557042632967203	-0.005679185715409207	0.45570406507448086	0.8901302340550796	-0.0014040995844984416
314														9.74867706887222	-0.04716879550317731	-0.03567463670770108	0.005669381359945491	-0.0013565160952647703	0.9999830088451896	0.8901169121264656	-0.45569704220375407	-0.00566466885136141	0.4556969835992347	0.8901339031802086	-0.0013760623988853804
315														9.785188619703804	-0.05038313530400809	0.004781507524085879	0.005699606692772308	-0.0013857458475516338	0.9999827969480244	0.8901223528938242	-0.4556859125285421	-0.005704910322882839	0.4556859788958949	0.8901395558177807	-0.0013637471225141917
316														9.756670829473633	-0.0421940648887429	-0.013121842554426425	0.005692617705908509	-0.00137868786495976	0.9999828465145918	0.8901067413009113	-0.45571652506145893	-0.005695425935047627	0.4557165601493184	0.8901238947504331	-0.0013670405966895172
317														9.797729801497233	-0.06632104162163417	-0.022918025682248797	0.005688788185985005	-0.0014020724534041795	0.9999828357936003	0.8901062224172704	-0.4557174479215551	-0.005702672524473762	0.4557176214532764	0.8901233857464369	-0.0013444866188284665
318														9.77467043863566	-0.0699252972782606	0.012413252324690207	0.0056805917488917945	-0.0014394570459964617	0.9999828292729809	0.8901190516289363	-0.4556922665975567	-0.005712450471102304	0.4556926648571226	0.8901362177366983	-0.0013073135890249166
319														9.797734964884206	-0.06558413856395313	-0.02283121614347775	0.005685920562837732	-0.0014370689335421738	0.9999828024222388	0.8901254661854023	-0.4556796905428656	-0.005716124122103428	0.45568006842034925	0.8901426596111656	-0.0013117868681153944
320														9.777206612913735	-0.052995024139946174	-0.018218366294937244	0.005712387845624778	-0.0014391731291641952	0.9999826485523666	0.890140223084858	-0.4556505544521888	-0.005740685834717596	0.45565091009625025	0.8901575708873783	-0.0013217867988529752
321														9.748686586341874	-0.04489211834380088	-0.03600957165409617	0.005712709791868054	-0.0014903045346749133	0.9999825718177436	0.8901433817745118	-0.4556440858414925	-0.005764279721474641	0.4556447353255283	0.8901607978506274	-0.0012763777124240039
322														9.766687859203273	-0.0732091300438818	-0.010313788681885644	0.005716306678568317	-0.0015293934201054404	0.9999824922436011	0.8901649184975862	-0.4556017423001566	-0.005785351264017968	0.45560261381399353	0.8901824045491065	-0.0012429469131188253
323														9.748690188689581	-0.04438975245084094	-0.03565541120895423	0.005707899511610437	-0.001565672595143286	0.999982484122842	0.8901609348452711	-0.45560941075473227	-0.005794385827516513	0.4556105024673574	0.8901784166677207	-0.0012068721521776848
324														9.748692410888662	-0.04404045906512689	-0.035480549191702314	0.005698011136197778	-0.0016020885662696993	0.9999824828372333	0.8901666577499194	-0.45559812996189086	-0.005802189721658524	0.45559944479710446	0.8901841254973344	-0.0011698773936981155
325														9.77215380419251	-0.08414763707361712	0.04307532783920767	0.005713496921170513	-0.0016219594617443711	0.9999823624446764	0.8901708526303922	-0.45558964216365827	-0.005825039096048923	0.4555910546534167	0.8901884335356725	-0.0011591889808263423
326														9.777216293671257	-0.05135110513504449	-0.017724186981933798	0.005714694446900315	-0.0016335300430131983	0.9999823367674939	0.890190604694943	-0.4555509650718442	-0.005831426494743497	0.4555524443796025	0.8902082058719243	-0.0011491814735988815
327														9.777218510702085	-0.05090342743597131	-0.017792693820613496	0.005702133767962914	-0.0016420696794023915	0.9999823944838528	0.8901829466416011	-0.45556602285740894	-0.005824115929376872	0.45556756598661446	0.8902004843994697	-0.001135955976670544
328														9.797754845041627	-0.06263145179256185	-0.022589774711147863	0.005672167247166737	-0.0016652628306568218	0.999982526556552	0.8901886579854509	-0.45555506813688196	-0.005808019358007843	0.45555677989991794	0.8902060473814508	-0.0011015864523513663
329														9.720178865462158	-0.03412543128527931	-0.05326567167916582	0.005680356687777444	-0.0016776745516827174	0.9999824593241615	0.8901763497216562	-0.45557895376954777	-0.0058209345015892144	0.4555807282404812	0.8901938004110919	-0.001094424748417644
330														9.766710544845283	-0.07016237825586377	-0.010003733777991327	0.005669434897874193	-0.0016987131317849347	0.9999824857874432	0.8901972540225196	-0.4555381067308166	-0.005820845889411286	0.4555400162869382	0.890214663825416	-0.001070453874324362
331														9.746177952761899	-0.05757985894535313	-0.0051193211754550424	0.005686354446073183	-0.001725981502917806	0.9999823430245984	0.8901920878919835	-0.455547850208042	-0.005848318163606758	0.4555499006998301	0.8902096254021764	-0.0010539514656842663
332														9.766714544067622	-0.06959376890484285	-0.010070711398198526	0.005692754578967174	-0.0017305914829346958	0.9999822986425427	0.8901952110059799	-0.4555416469711658	-0.005856123019326143	0.4555437178222562	0.890212790813476	-0.001052722546389162
333														9.803229224248044	-0.07273423225347783	0.030265263095317976	0.005694933200334706	-0.0017484936763305092	0.9999822550954132	0.8901887988418045	-0.4555540473714056	-0.00586620321136222	0.4555562206275199	0.8902064101619328	-0.001037860383407141
334														9.735671302638806	-0.07723476595263924	0.002382927369548093	0.005691226241952618	-0.0017616790497027024	0.9999822530579177	0.8901860325383119	-0.4555594181251381	-0.005868903746502507	0.4555616724633044	0.8902036357173633	-0.0010244696313416735
335														9.76924526510592	-0.052237689139996185	-0.040640865642215716	0.005697982894704967	-0.0017666901634020293	0.9999822057400811	0.8901830868050227	-0.45556506730249446	-0.005877194905297312	0.45556734404170457	0.8902007348118399	-0.0010231242578294109
336														9.777234739918816	-0.04748169058630536	-0.01832716111495603	0.005719894811010373	-0.0017394108851302437	0.999982128466866	0.8901819043377432	-0.45556728652066186	-0.005884270713499062	0.45556937999933617	0.8901996528318653	-0.0010574048640846212
337														9.758737846353918	-0.07209046216159383	-0.03347068162880197	0.005702756770019746	-0.0017608258886445127	0.9999821888700875	0.890170777353466	-0.45558909940935105	-0.005878745214945247	0.45559133629948206	0.8901884474601802	-0.0010306780709250507
338														9.785227649449684	-0.04219020282203504	0.004183022882643706	0.005693187516877585	-0.0017810406281809632	0.9999822075968043	0.8901852231633399	-0.4555608634559971	-0.005879468416519318	0.4555632295055563	0.8902028575451255	-0.0010081373719453834
339														9.777240615300878	-0.04621842734495269	-0.01842112386668187	0.005696804068892836	-0.0018063298075867151	0.999982141638553	0.8901694465481262	-0.45559150029044393	-0.005894174692459286	0.4555940109961976	0.8901871275387714	-0.0009874759075047534
340														9.74871493442836	-0.038097743041611724	-0.03616398151194284	0.005707902723965208	-0.0018375694590354041	0.9999820214308743	0.8901674435055531	-0.4555951014294315	-0.00591828322190735	0.45559778573790544	0.8901852205535598	-0.0009647480128608943
341														9.758748356412791	-0.07072106012740641	-0.03332739388485843	0.005708646131993678	-0.0018480686514451006	0.999981997838761	0.8901703930579743	-0.45558926753245155	-0.005923734654433577	0.4555920134093128	0.8901881845719501	-0.0009557019120219334
342														9.777244388340145	-0.04540287220109243	-0.018446552782705287	0.005726564776074139	-0.001874297145110948	0.9999818465682653	0.8901666008845168	-0.45559631341622653	-0.005951627613487609	0.4555991978982969	0.8901845236869466	-0.0009405650818076206
343														9.748718174935139	-0.03727107491642668	-0.03615198737149076	0.005718155109808443	-0.0019105675103707198	0.9999818260518183	0.8901626137306187	-0.45560398557049486	-0.005960658399387475	0.4556070936875478	0.8901805199306876	-0.000904498489398553
344														9.745733454865947	-0.10670286390801513	0.004921925234824002	0.005709345884962469	-0.0019368116083325893	0.9999818259000308	0.8901580317708294	-0.4556128839864992	-0.00596476482250019	0.45561615625814755	0.8901759088552659	-0.0008771831351400139
345														9.77473345054268	-0.060509789094454904	0.01226280644165042	0.005678904341664015	-0.001956236126123112	0.9999819614301536	0.8901362920587947	-0.4556555947010282	-0.0059464760549932105	0.4556590080370392	0.8901540047418038	-0.0008463077633524829
346														9.751677697984153	-0.06424930344153404	0.04742397242955102	0.005734192849509379	-0.001977245249701498	0.9999816045975984	0.8901542979627077	-0.4556196464228714	-0.006005298661783565	0.4556231390643853	0.8901723587568425	-0.0008525575614659053
347														9.78225940371246	-0.1092116547501706	0.04534170289350857	0.005709604083334097	-0.0019967506512558186	0.9999817065366985	0.8901584293035605	-0.4556117459220348	-0.0059923048731647666	0.45561537634393917	0.890176358911374	-0.0008239382614986246
348														9.762184658158946	-0.04291776474368196	0.039540551496395106	0.005721056206581365	-0.001987311923088597	0.9999816598854212	0.8901547507540564	-0.4556188554053505	-0.005998192152881721	0.45562241958212035	0.8901727412083789	-0.0008376059309848083
349														9.766754479204264	-0.06361610019485552	-0.010845826148337113	0.005727812227996232	-0.0019923150518511568	0.999981611254835	0.8901518052236013	-0.45562450093294854	-0.006006480397570901	0.4556280893714144	0.8901698404407649	-0.0008362687478389863
350														9.77725655526657	-0.04253231637363775	-0.018836465008869614	0.005730789462802532	-0.001970168374653636	0.999981638075774	0.8901560890257316	-0.455616229510977	-0.005999047975664029	0.45561968265489433	0.8901741233280016	-0.0008572833120594758
351														9.750782496971791	-0.07153433351829641	-0.05675625138775775	0.005742120275465945	-0.0019622873257593154	0.9999815885721062	0.8901566130657886	-0.45561512008307037	-0.006005544682441355	0.4556185161623543	0.8901747085713794	-0.0008694537790779888
352														9.751235329572033	-0.017527199568338453	-0.06756112552907954	0.005732873384427628	-0.001958064287008121	0.9999816499051402	0.8901600960551932	-0.4556084488028701	-0.00599539577109548	0.45561182771496145	0.8901781323778353	-0.0008689548560569249
353														9.777260776161102	-0.04121441581921238	-0.019560648795117246	0.005741065462933792	-0.0019704604057148023	0.9999815785568953	0.8901477860765291	-0.4556323288789623	-0.006008312856964071	0.45563577461652893	0.8901658823871665	-0.0008618140594245927
354														9.758777113445175	-0.06597798415388217	-0.034609493600070526	0.005753719077084218	-0.001981760772204244	0.9999814834990817	0.8901602066023923	-0.45560784560865797	-0.006024749075596858	0.4556113489569467	0.8901783886638	-0.0008573549745258813
355														9.769273505256002	-0.044927724609905115	-0.04254650336371456	0.005750303025813142	-0.0019645060190414676	0.999981537195169	0.8901594858383528	-0.4556093978811766	-0.0060138452217925464	0.4556128002889201	0.8901776324298727	-0.0008711684313886803
356														9.756278396335173	-0.08128716646196381	-0.004713186053283309	0.005742917105289791	-0.0019594767126161483	0.9999815895075936	0.8901590284278134	-0.455610408514839	-0.0060049780508994455	0.4556137871175236	0.8901771262529459	-0.0008722869216786222
357														9.795309753499751	-0.06803600782566378	0.0052153668490271185	0.005743650416712487	-0.0019699737958410735	0.9999815646716363	0.8901619777931157	-0.4556045743337017	-0.006010419091445285	0.45560801548188207	0.8901800891108775	-0.0008632376329213987
358														9.77476682105884	-0.0553217699991755	0.00994629530930077	0.005734209289008307	-0.0019645645311902604	0.9999816294962791	0.8901576902302912	-0.4556130946529394	-0.00599954203631109	0.4556165112983766	0.8901757402148045	-0.0008638086141600776
359														9.756290178110133	-0.07983528503326623	-0.005123752558024766	0.00572019752150138	-0.0019656865657864953	0.9999817075410132	0.8901593936756602	-0.4556099238340954	-0.005987583391587892	0.45561335932048397	0.8901773606311358	-0.000856404395530308
360														9.766783092354718	-0.05862100379799036	-0.013012344577000814	0.005711284792970506	-0.001953997589321077	0.9999817813937584	0.8901728331317529	-0.45558383894364973	-0.005974349132324808	0.4555872127048803	0.8901907366327666	-0.0008625734812633401
361														9.787333965185885	-0.07030703843275247	-0.01821940318644264	0.005712436419108402	-0.001923854210393816	0.9999818332625523	0.8901755835990119	-0.45557863112095276	-0.0059616465944681285	0.45558182408247605	0.8901934675400265	-0.0008898959196861345
362														9.764295054009034	-0.07371151657743155	0.01657764022642592	0.005709850764590962	-0.001892601172612085	0.999981907668858	0.8901536284127916	-0.4556217444977515	-0.005945062183733807	0.45562475286993454	0.890171468876434	-0.0009168263652457598
363														9.785267507946063	-0.0318889402784066	0.0007513523810438014	0.005719725765656436	-0.0018773270673873022	0.9999818800259577	0.8901635195405967	-0.4556023954027461	-0.005946913685141386	0.4556053042011961	0.8901814045161598	-0.000934792690245545
364														9.779766868241456	-0.019561931466845976	-0.052486045059166486	0.005705758887146917	-0.0018781487016247822	0.9999819582737365	0.8901703527219664	-0.4555892014390237	-0.005934868743552257	0.4555921283893877	0.890188155442212	-0.0009276098428092072
365														9.75423885035226	-0.03934260950453352	0.013079591272819902	0.005701914438328959	-0.0019015287130818015	0.9999819360169921	0.8901698303857376	-0.45559012780264485	-0.005942097255798584	0.45559319709886537	0.890187631703184	-0.0009050524356804535
366														9.750813794258828	-0.06445423295707879	-0.0597806964673475	0.0057090435841331555	-0.0019046560710259675	0.9999818893893058	0.8901613635972679	-0.4556065693387718	-0.00594985159542466	0.4556096504465277	0.890179210193434	-0.0009056265162041277
367														9.766800561168125	-0.05526097086237804	-0.01451626605087076	0.0056991792192986335	-0.001933530045167997	0.999981890244914	0.8901667341316013	-0.4555960189872891	-0.005954236173803473	0.455599280949505	0.8901845476891288	-0.0008753592381550712
368														9.764315530833317	-0.07110170948319922	0.01590084585686104	0.00569401697605143	-0.0019499927459146194	0.999981887685456	0.8901867316606382	-0.4555569062089111	-0.005957178922688489	0.45556027147461836	0.8902045285964664	-0.0008580910882632908
369														9.782787915434346	-0.04575371524427166	0.030874344985458213	0.005706362872278381	-0.00199013546091259	0.9999817382250622	0.8901780918457758	-0.45557340497233095	-0.005986441324352609	0.45557699922250605	0.8901959964203183	-0.0008280921766217753
370														9.761832863933662	-0.08682317727562089	0.04625484383046214	0.0057185397313698205	-0.0019895736416346566	0.9999816697820345	0.8901758419351417	-0.45557766206469147	-0.005997021154878046	0.4555812427420636	0.8901938190216752	-0.0008341685697073609
371														9.784876853240501	-0.08221577390460708	0.01072918264960247	0.005685626773685781	-0.0019535560331651047	0.9999819284702179	0.8901726296672463	-0.45558453808110044	-0.005951306808641588	0.45558793118287333	0.8901903797953874	-0.00085128153614622
372														9.764328733112503	-0.06941764711358171	0.015220434895830139	0.005716889641760314	-0.0019406983268838718	0.9999817752653435	0.8901743991103694	-0.455580793124685	-0.0059732825461011885	0.45558408262505895	0.8901923245152629	-0.0008769451502110281
373														9.756337978389846	-0.07353057218896963	-0.007775852977501502	0.005728205570215361	-0.0019328093118642364	0.9999817257875813	0.8901749270666709	-0.45557967651948666	-0.005979762892219631	0.4555829089011051	0.8901929131320716	-0.0008891156524932775
374														9.769293413837476	-0.03616947824601145	-0.04616805280184131	0.005724320912570691	-0.0019143663197264127	0.9999817835099216	0.8901718732816953	-0.4555857989797179	-0.0059678962934446855	0.45558892454519473	0.8901898196281544	-0.0009038042635916566
375														9.785282504267364	-0.026887391955392838	-0.0010184162522468856	0.0057204720745661075	-0.0019377418298557325	0.9999817605115834	0.8901713489725155	-0.45558672876184936	-0.0059751187879349965	0.4555899973306009	0.8901892932026754	-0.0008812489007820057
376														9.748740958535915	-0.022896453513707088	-0.041565321995814246	0.005695251524930889	-0.001909108693510464	0.9999819595443031	0.8901904366999096	-0.4555498950156371	-0.005939659861166735	0.45555301614421584	0.8902082051156563	-0.0008950009326862407
377														9.800324487514645	-0.026290003680846056	-0.05873426362263473	0.005678522474677317	-0.002024770524576558	0.9999818271782875	0.8902020846411696	-0.45552663836079327	-0.005977478082795362	0.4555304631778426	0.8902198504010327	-0.0007842633118479436
378														9.795373280540133	-0.05838078247193004	0.0018434490718329043	0.0057031180125122205	-0.0019169847448728405	0.9999818996434003	0.8902062859195448	-0.4555187840871445	-0.005950281766399224	0.45552194563408854	0.8902241080274437	-0.0008913655126673858
379														9.710297995655598	-0.07871163445231423	0.06188530380975584	0.005685561281776497	-0.0019790119954390395	0.9999818787880272	0.8901953439548208	-0.455540002168239	-0.005962887364246439	0.45554354785691903	0.8902131148978217	-0.0008282933346575594
380														9.787386091732087	-0.061840773354131025	-0.020745648970986696	0.005647216895848128	-0.0020289679587054965	0.999981995953104	0.8902000586956273	-0.4555309374083007	-0.005951517639754211	0.4555348114465378	0.890217641002995	-0.000766294610382523
381														9.784915768115379	-0.07759847741719059	0.00956211206864147	0.005667672842521232	-0.0019953076875596776	0.9999819479529529	0.8902075348451086	-0.45551628942748557	-0.005954407712800869	0.45551994730148226	0.8902252124116949	-0.0008054793651142145
382														9.764360849052336	-0.06498805590706076	0.014136236702326093	0.005668424271263184	-0.002014039292588532	0.999981906142311	0.8902124608604789	-0.45550654198408164	-0.005963617898163076	0.45551031107430723	0.8902301577993372	-0.0007890814633768062
383														9.756370563775423	-0.06897267281722522	-0.00861145010431897	0.005660423092718414	-0.002009651794180445	0.9999819602923237	0.8902082714061247	-0.45551484891229393	-0.005954489107431515	0.4555185980072953	0.8902259172367861	-0.0007893981200337019
384														9.792920244376665	-0.07190867286230022	0.03149572378499221	0.005675675435314942	-0.0019903406633031695	0.9999819124626188	0.8902279200806478	-0.45547638466170626	-0.005959305696564221	0.45548000726402543	0.8902456411348192	-0.0008132792988461701
385														9.745915365548077	-0.08866347434681261	-0.001679349347564902	0.0056755653809261175	-0.0019471906916204151	0.999981998040973	0.8902082851891342	-0.45551501744751344	-0.005939516850039184	0.45551838265675637	0.8902259698122725	-0.0008518999769933644
386														9.751811445061062	-0.046361151126296934	0.04023864607447061	0.005681731040160842	-0.001917339238470206	0.9999820207096886	0.8902433438802588	-0.4554466009040102	-0.00593147552288259	0.45544978494811317	0.8902610389853236	-0.0008808265944834637
387														9.761306961883195	-0.03463489200240026	-0.07096745408082825	0.005710697647048513	-0.0019335965611482764	0.9999818244031853	0.8902263973981293	-0.45547929096739337	-0.005964635394458906	0.4554825455579305	0.890244279231369	-0.0008797658145544562
388														9.756383811241376	-0.0668120585978372	-0.010442284941815157	0.005710217808304829	-0.0019251371778649107	0.9999818434648843	0.890232960196522	-0.455466519729822	-0.00596036785288695	0.45546972456170975	0.8902508316491764	-0.000886992463412728
389														9.740746157373675	-0.021593424517070508	-0.06645485046638805	0.005697645380589034	-0.0019336373233293513	0.9999818987780822	0.890225297926001	-0.4554815916613312	-0.005953032019291038	0.4554848578928606	0.8902431020257118	-0.000873799724430746
390														9.76684527826874	-0.04529554164649762	-0.018420460071567977	0.005720259726561261	-0.0019479508498328468	0.9999817418913944	0.8902306129479283	-0.45547085420033184	-0.005979694338020369	0.4554741863146766	0.8902485644254119	-0.0008712861048654763
391														9.77238551441659	-0.0567462766248321	0.03446043470764327	0.0057062299200563715	-0.0019490679520245968	0.9999818198718502	0.8902323139942205	-0.45546768654151937	-0.005967716230781572	0.4554710375650622	0.8902501826175797	-0.000863880067499212
392														9.782496975867108	-0.089193904332302	0.03714091881291302	0.005720733968945957	-0.0019482523354936165	0.9999817385911073	0.890229302735164	-0.45547340772590494	-0.005980251350480581	0.4554767411784272	0.8902472573209022	-0.0008712508773505157
393														9.772048769217601	-0.10943013041082927	0.044659085462866864	0.005712729486510304	-0.001943867097913221	0.9999817928855104	0.8902251141298212	-0.4554817141222698	-0.005971119893768417	0.4554850281780521	0.8902430170919312	-0.0008715645097395752
394														9.764395938050257	-0.06010021591350978	0.01122484076219249	0.005768908905444459	-0.0019645831434543792	0.9999814298791325	0.8902384484492274	-0.4554548680397761	-0.006030595458469623	0.45545825779400934	0.8902567065694837	-0.0008785301947843993
395														9.764397416128455	-0.059939314918011244	0.010792998617900226	0.0057878869387303356	-0.0019235442135029923	0.9999813999982416	0.890255291651634	-0.45542196790896516	-0.006028833402071332	0.455425093787166	0.8902736271077474	-0.0009234854448742502
396														9.756401274467423	-0.06388514398174838	-0.012281070652402274	0.00578556532499408	-0.0019133226973304662	0.9999814330426968	0.8902478293622926	-0.45543664397461736	-0.0060220960523226785	0.4554397101149568	0.8902661413989599	-0.0009316270769431645
397														9.76685287162199	-0.04280461528695876	-0.020259495769210243	0.005798332386815486	-0.0019128159748611484	0.9999813600645652	0.8902389986045665	-0.45545375802688126	-0.006033213300485785	0.45545680882501915	0.890257387183188	-0.0009380088978888645
398														9.777302096679804	-0.02169176612344166	-0.028332727984002482	0.005800149025340429	-0.00188298129935216	0.9999814061534895	0.8902497398405481	-0.4554329205098643	-0.006021264791748526	0.45543579018904573	0.8902681109066426	-0.0009652551981303992
399														9.777302204594259	-0.021137512442133573	-0.028711697451777384	0.00579670693695733	-0.0018657097548287482	0.9999814584860053	0.8902490256532556	-0.45543446095431595	-0.006010332659778461	0.45543723004615744	0.8902673592255098	-0.0009790738077552485
400														9.738291290286536	-0.033540622903617874	-0.03883411322809379	0.0057853318323927705	-0.0018953780008365562	0.9999814685672046	0.8902640263237453	-0.45540509247945726	-0.00601374904786578	0.4554080514982392	0.89028231998957	-0.0009472827277249851
401														9.785304487138571	-0.015931707727551796	-0.006319726504928033	0.005815944820403873	-0.0018839875222272928	0.9999813125138204	0.8902692807742253	-0.45539452840053923	-0.006035827415922124	0.45539738964512116	0.8902877479185408	-0.0009712932322904488
402														9.77386294702616	-0.045408605837694016	-0.10208992094010907	0.005798407405778805	-0.001864088784412854	0.9999814516502595	0.8902592849049269	-0.45541439585496746	-0.006011130394778297	0.45541715395022686	0.890277627047349	-0.0009811558574129853
403														9.749415784264139	-0.05597143153408411	0.06662320075797427	0.005803272892352329	-0.0019023580240511984	0.9999813513549565	0.8902658918137838	-0.4554011922864084	-0.006032904534752581	0.45540417641557124	0.8902843001525218	-0.0009492129315096243
404														9.74842029077497	-0.06490789678952595	-0.03620422414055661	0.005774096315189825	-0.0019669188710287333	0.9999813953478824	0.8902770131841315	-0.4553794047297717	-0.00603635187019208	0.45538280556877075	0.8902953043671038	-0.0008783018851885038
405														9.768991837363295	-0.07663905427454024	-0.0408695141323685	0.005760060499049591	-0.001968031988232255	0.9999814741049662	0.8902787132780383	-0.4553762397182718	-0.006024365862713599	0.4553796596105804	0.8902969207798827	-0.0008708977044335486
406														9.764427589300645	-0.05509570715845853	0.009186446773182243	0.0057615470587307205	-0.001977504912582584	0.9999814468527959	0.8902821797122873	-0.45536938793592424	-0.0060300097513033	0.4553728637745436	0.8903004043609004	-0.0008630947737324202
407														9.792999227988293	-0.06239454166304731	0.026884804989613174	0.005741482480772775	-0.0019841199397355735	0.9999815491532769	0.8902897664259841	-0.4553547512617828	-0.006015172523404166	0.45535828440480736	0.8903078758336267	-0.0008479696491978661
408														9.74942721020894	-0.053552690670543655	0.06693883660287077	0.0057139636275794214	-0.001976795371807172	0.9999817212828046	0.890303996827596	-0.4553272940614289	-0.005987362984234357	0.455330807054026	0.8903219347869371	-0.0008417747764808969
409														9.76443716433121	-0.05344847803569152	0.008730131961716058	0.005743354060923689	-0.0019523887733866596	0.9999816008618398	0.8902868736419202	-0.4553605758151017	-0.006002384045875941	0.4553639165601795	0.8903049669475152	-0.0008771109151001766
410														9.756438346578326	-0.05744425920790215	-0.01445477862812553	0.005746324056136509	-0.0019098981501720624	0.9999816658563786	0.890299896334686	-0.4553353334799881	-0.005985705565390742	0.45533841738457503	0.8903179692524037	-0.0009161222552769854
411														9.761302482313887	-0.024465650774458426	-0.07566281559974716	0.005756152835010353	-0.0018946267878127698	0.9999816383783627	0.890309793483185	-0.4553159575463423	-0.005987522992513428	0.45531894132845874	0.8903279110490652	-0.0009340634556705418
412														9.800308075922993	-0.011081879640531223	-0.06587644081273226	0.00574235807209561	-0.001893620044002009	0.9999817195963638	0.8903040904304949	-0.4553272764448878	-0.005974770958784903	0.45533026682453376	0.8903221245866071	-0.0009287545904424488
413														9.756446140423567	-0.05591109035214951	-0.015186232107348539	0.005723754454903751	-0.0019076117148296157	0.9999817996606165	0.8903023131375536	-0.4553308852559368	-0.005964574919157972	0.4553339761722831	0.8903202490955657	-0.0009078510606578827
414														9.787450209416436	-0.047087144390602735	-0.027970371527494285	0.005754955276588758	-0.0019019299332830863	0.9999816314074441	0.8902929769696123	-0.45534880924369264	-0.005989747819143798	0.4553518372076148	0.89031109427148	-0.0009272371701551929
415														9.78259811391275	-0.07934327458897743	0.032570875818658925	0.005764630343700616	-0.0019216721365159506	0.9999815379361766	0.8902713121050025	-0.4553909343558208	-0.006007307996963918	0.45539407097571927	0.8902895057691812	-0.0009143508240221365
416														9.782885342897861	-0.025618043903176745	0.022002449882148743	0.005785546339690362	-0.0019620599830724172	0.9999813387129657	0.8902439757652622	-0.4554438828533089	-0.00604426878633646	0.4554472429021954	0.8902623320640524	-0.0008882796093560019
417														9.752893907353242	-0.024619301555469774	0.13785548969379074	0.005783408938076717	-0.001987167826824787	0.9999813014977247	0.8902023272930513	-0.45552515729563403	-0.0060537222287894155	0.45552866941948944	0.8902206929940554	-0.0008655068420611034
418														9.784902760051208	-0.006595537983241818	0.22851601042329117	0.005778910647528279	-0.0020265398801228574	0.9999812484881117	0.8901196503184543	-0.45568650795188653	-0.0060675025808446525	0.45569025917686806	0.8901380227845175	-0.000829508643286847
419														9.7198441813986	1.0205355803857408	1.6571547555455886	0.005807738248894467	-0.001983115949126979	0.9999811685364706	0.8894631365638102	-0.45696658333159285	-0.006072101145377484	0.45697001966267065	0.8894816518452662	-0.0008900337722013152
420														9.879703273563768	0.7094690946738726	0.4260778476547666	0.005737215161314535	-0.0021922814045076677	0.9999811389543491	0.8878223176159978	-0.46014594607393156	-0.006102512161877849	0.4601506456641695	0.8878405837840322	-0.0006935999408163029
421														10.057445744271526	-0.08844457892458903	-0.4806671087332796	0.005557937984894679	-0.0024429108755195106	0.9999815705860837	0.8860291175141161	-0.4635900282224542	-0.006057115638772703	0.4635962815236047	0.8860464535898549	-0.00041211446007377583
422														10.197119291028692	-0.3560797363298294	-0.3124030570174969	0.004592005100484298	-0.003833737421986616	0.9999821078132032	0.8846263158841585	-0.46626393870686533	-0.005849846731456498	0.46627802300170457	0.8846373505108972	0.0012503386269654415
423														10.207134217669083	0.020206884365035344	-0.44148452518840403	0.003078960730609648	-0.005956120762172168	0.9999775220605137	0.8832550780629047	-0.468860408328281	-0.005512220816437707	0.46888270076524574	0.8832521962201416	0.003817171123364105
424														10.385326088375292	-0.2482460980531078	-0.44696296638177613	0.0008833977406549343	-0.009151766894044566	0.9999577314922612	0.8818472664724211	-0.47150763096574116	-0.005094365141378565	0.47153432348403984	0.8818144924550695	0.007653931843009276
425														10.49676070174027	-0.09210310580352056	-0.3054664292491937	-0.002266789192588825	-0.013767452376540812	0.9999026547228564	0.880297609025807	-0.47440019156498736	-0.004536274523291972	0.47441646389032893	0.8802016334330236	0.013194820636647231
426														10.495202035571081	0.144254172503028	-0.3294464004825348	-0.006290411534765783	-0.019720302325457018	0.9997857472473368	0.8785880582407548	-0.4775645268053329	-0.003891870236561068	0.47753895614856706	0.8783753368653919	0.02033009953605519
427														10.927639647140397	0.18858377542794827	-0.6006280583375376	-0.01071274844253367	-0.026856997023531615	0.9995818819544928	0.8768779216700062	-0.48070025496489655	-0.003517863609397265	0.4805937447663025	0.8764735971993463	0.02869992863999271
428														10.94727165057515	0.16791900938021936	-0.3768528159366824	-0.014626287243853286	-0.03491645119994086	0.9992831996771798	0.8754764324220341	-0.48324366772817373	-0.0040711023335495145	0.4830394269571047	0.8747893455205229	0.03763659082232773
429														10.513082629214603	0.0443397506721292	0.0032631462849760373	-0.017977619827284352	-0.04360884472443305	0.9988869174471883	0.8745245240655402	-0.4849508703564539	-0.005432324406584366	0.4846479773952287	0.8734534458128368	0.04685526655986183
430														10.03728484686595	-0.03564505812334799	0.48314419905830797	-0.021060086710548764	-0.05279198111209027	0.9983834330947227	0.8741115827189152	-0.4856711735413024	-0.007242385494228953	0.4852683934735261	0.8725459975962727	0.05637435919235012
431														9.497404489674603	-0.23050575545272045	0.8619440832519103	-0.02433646267638101	-0.062158632710275274	0.9977695329904548	0.8741064798733473	-0.48565217202705935	-0.008934743914897791	0.48512431234460546	0.8719393741453523	0.06615231959035894
432														9.142270975520326	-0.4637162310193805	0.8539957290815519	-0.0280248090975454	-0.0714623252609467	0.9970495204067578	0.8744996795971156	-0.4849193370785198	-0.010175800306202354	0.48421577882137307	0.8716343112771711	0.0760835523932965
433														8.654948537790267	-0.6154817359096423	1.1452688741085086	-0.03249133577241409	-0.08053017339026464	0.9962224672599282	0.8752267348764906	-0.4835978991234509	-0.010546777745951141	0.48262042606707206	0.8715778583334476	0.08619490243465305
434														8.391581774297752	-0.7335373542110745	1.3392923557676535	-0.03747859424941585	-0.08868531206723262	0.9953543441391244	0.8761357189268453	-0.48196176524524337	-0.009952831869877832	0.4806054067461463	0.8716924757420059	0.0957636190896351
435														8.158721760466852	-0.913545372281561	1.6276121373265373	-0.043006626694537586	-0.09522129344542013	0.9945266891013729	0.8770596018198866	-0.4803139363042511	-0.008060858977719354	0.47845259422005393	0.8719125115896077	0.1041714318688356
436														8.09770914353059	-1.0162748310983207	1.6465886433944956	-0.04916922654449951	-0.09913826738664627	0.9938581342931142	0.8779686034714818	-0.47869877120601445	-0.004314830725296426	0.47618643248138837	0.8723640813246645	0.11057753449603824
437														8.405743340754949	-0.8418322255067081	1.34423190587358	-0.0558276675895924	-0.10014924523643226	0.9934049527811307	0.8788376278274868	-0.47711923336629386	0.0012888236952864895	0.4738435347728863	0.8731136041950867	0.11465137907327388
438														8.827791569781589	-0.4674571060690243	1.0718129984690665	-0.06291629705845853	-0.09873874769271174	0.9931224492823268	0.8796547160231811	-0.47553780055777845	0.00844871699419375	0.47143304948065456	0.8741364080878604	0.116775082584536
439														9.21495135535031	-0.1785606943386013	0.9633721939611797	-0.07048447948561537	-0.09581440887304143	0.9929005676320022	0.8802999002819141	-0.4741222477171507	0.016738571721909956	0.4691524525304058	0.8752300801914586	0.11776367441940228
440														9.58786775981084	0.07818858044220425	0.9591818368214261	-0.07852354350809831	-0.09206380137043868	0.9926521594154503	0.8807077582969111	-0.4729566715992737	0.025803706426923423	0.4671058740698535	0.8762626565516538	0.11821953790502204
441														12.915696485585578	0.960858990786314	2.2136043756284667	-0.08398857724363912	-0.0873163002284138	0.9926337605617744	0.8809870538113793	-0.4719864685128284	0.03302399972041664	0.4656261696998295	0.8772711309824401	0.11656600205658235
442														9.426111775276206	-0.17683844443460733	0.6394023899583694	-0.08878348477074238	-0.08258220617481365	0.9926216157505655	0.8815897918536677	-0.47034202057215735	0.039721814957353996	0.46359134130327473	0.8786117247723253	0.11456223357297901
443														10.22555373544583	-0.047304002756976625	0.7919769183150983	-0.09462583146186071	-0.07761545175273582	0.9924826414952403	0.881901479587389	-0.4690446047365415	0.04740188887708363	0.461839509268886	0.8797573531473095	0.11283291745547641
444														9.997116296393077	0.3559634756424288	0.9448876324184203	-0.10105306233238948	-0.07329863806189996	0.9921771959945044	0.8819694697650555	-0.4680569335244328	0.05524998988282137	0.46034566685871325	0.880653176135745	0.11194574742450625
445														10.083524254109342	0.6051528501936799	0.9881195979781752	-0.1080463151583676	-0.06936060977773734	0.9917232978971298	0.8817986114943686	-0.46734746414916717	0.06338419771478082	0.4590830018061028	0.8813486560746566	0.11165726079433635
446														9.839920474561964	0.8691302385908566	1.2304047052285603	-0.11538296808814807	-0.06536951869455726	0.991167794422726	0.8814082404527295	-0.4668641181299855	0.07181510192664098	0.45804615961406375	0.8819097012893965	0.111485400095505
447														9.81767935282661	0.9288913373932081	1.2116905804789397	-0.12311066242425622	-0.0612448611392471	0.9905013032709726	0.8807849208868068	-0.46660249002382825	0.0806228220914193	0.45723264093443966	0.8823441410739903	0.11138729180889612
448														9.606758710707478	0.8510117075986434	1.2859495170628121	-0.13065811024295143	-0.056787762777590955	0.9897997818884673	0.8801225326224316	-0.46624732138778113	0.08943021228307879	0.4564129553354267	0.882829873360341	0.11089918351614064
449														9.428841252682032	0.9344046464829837	1.2144946668149397	-0.13815301041624561	-0.05199358698604639	0.9890452025186987	0.8793320551390155	-0.4659460070383028	0.0983333886838943	0.4557289572958083	0.8832842042272616	0.11009147126225999
450														9.27265595883527	0.8181522305010979	1.15002484191727	-0.1453106187239444	-0.046556925581852926	0.9882900772376653	0.8784133597721964	-0.46571959429357285	0.10721580510704504	0.4552744155559221	0.8837068021529515	0.10857022781968301
451														9.341542153191364	0.9703334765153189	1.2791198149997927	-0.1518718296215143	-0.04034317968214213	0.9875765161345968	0.8773900491488185	-0.46556626348065294	0.11590839470589126	0.45510619532373675	0.8840930280020294	0.10610310464899314
452														9.43940281037705	1.139058257665061	1.1331837399943334	-0.1575380781734938	-0.03342251213507541	0.9869471564415099	0.8763341965446176	-0.4654380709742469	0.1241200147207161	0.45521437794944586	0.8844491719541333	0.1026135095284551
453														9.56537605064106	1.3921799266552026	1.1301272978442398	-0.16203834601301242	-0.02607842332819582	0.986439805694236	0.8753539319398034	-0.46525872586054196	0.13149072913384607	0.4555206562373354	0.8847905028012788	0.0982176048056908
454														9.635734521127029	1.6567984027523028	0.8469520507657581	-0.165583164788503	-0.01898092887352104	0.9860131540084658	0.8744362337635807	-0.46513124793006994	0.1378919696007755	0.45600821113219964	0.8850382175579286	0.09361551603178286
455														9.554252413956476	1.7188683833922176	0.8160102767604676	-0.1679822233399152	-0.012143781785689922	0.9857152231784396	0.8736711135426001	-0.4649775312773631	0.14315963386528624	0.45659693166184634	0.8852391902594186	0.08871763086239842
456														9.495685093876459	1.7906030102982802	0.8750145808897324	-0.16922622383768743	-0.005327092984909854	0.9855628377967423	0.8730245859769052	-0.464870108733326	0.14739014311045157	0.4573735425726882	0.8853628657712025	0.08331889622356742
