// Start Time: 1747398475.5038033
// Update Rate: 100Hz 
// Filter Profile: 46.1 human
// Option Flags: AHS Disabled ICC Disabled 
// Firmware Version: 4.0.2 
PacketCounter	SampleTimeFine	Year	Month	Day	Second	UTC_Nano	UTC_Year	UTC_Month	UTC_Day	UTC_Hour	UTC_Minute	UTC_Second	UTC_Valid	Acc_X	Acc_Y	Acc_Z	Mat[1][1]	Mat[2][1]	Mat[3][1]	Mat[1][2]	Mat[2][2]	Mat[3][2]	Mat[1][3]	Mat[2][3]	Mat[3][3]
0														9.767686607478751	-0.09456729351861354	0.10193964236296581	0.0005386336084345911	-0.014557088395058815	0.9998938948965006	0.8622283304307456	-0.5064591539929554	-0.007837827463570812	0.5065195120392152	0.8621410653217942	0.012278738101164366
1														9.7886246650381	-0.08426285644964501	0.12813865104105512	0.0005469167669360786	-0.014579471504316877	0.9998935642820713	0.8622141472633111	-0.5064830079152682	-0.00785665018335191	0.5065436458401696	0.8621266738152562	0.012293622541447224
2														9.814179575083774	-0.10485547791499057	0.13931516549774678	0.0005589733740663516	-0.01457183544983287	0.9998936689270469	0.8622420238685399	-0.5064354582378506	-0.007862500524863203	0.5064961794760671	0.8621547356774433	0.012281364952905216
3														9.763046431070721	-0.06325712341166852	0.11902997189763195	0.0005407508437941244	-0.014594393588377719	0.9998933499450392	0.8622393960055632	-0.5064399978481661	-0.007858279424368342	0.5065006728174078	0.8621516874978192	0.012310003256542745
4														9.814580999356826	-0.0660318084868534	0.10205452986133298	0.0005552649188179659	-0.014594901024455098	0.9998933345837233	0.8622260829805688	-0.5064624599271729	-0.007871372974483037	0.506523319807545	0.8621384839737781	0.012302883505109219
5														9.788592617949451	-0.08360759108462609	0.13098435980744288	0.0005501027042519868	-0.014601838016977342	0.9998932361575116	0.862223754555049	-0.5064664376089486	-0.007870492786104577	0.5065272889667544	0.8621360298132932	0.012311443041461312
6														9.788584422302804	-0.08338032207214618	0.1317395206988688	0.0005438135628387797	-0.014611254019589515	0.9998931020478059	0.862222337549333	-0.5064688595601862	-0.007869874634869933	0.5065297078136415	0.8621344474916772	0.01232272496031328
7														9.8127356161797	-0.08073335545314973	0.1350975734710407	0.0005293068820070301	-0.014611534502063261	0.9998931057336677	0.8622148395403937	-0.5064818132392206	-0.00785769267944375	0.506542486185076	0.8621268328485121	0.012330197566776502
8														9.788571316144845	-0.08284792720671816	0.13304263587229487	0.0005502217090437855	-0.014588674147099467	0.9998934282425808	0.8622072144320201	-0.5064946906996614	-0.00786432924231617	0.5065554428070514	0.8621196546185945	0.012299775724288642
9														9.795030771256066	-0.09791524180428889	0.08767359970169324	0.0005316191465281062	-0.014580168929485271	0.9998935623630503	0.8622167429794896	-0.5064787889722584	-0.007843752101880153	0.5065392437974814	0.8621291405556262	0.012302011944943514
10														9.81271411954885	-0.08005745566279865	0.13704725289484573	0.0005443944957045921	-0.014633414104352704	0.9998927776648278	0.8622058543631866	-0.5064967312349633	-0.007882001658565507	0.506557764066924	0.8621176975564002	0.012341281277517047
11														9.788543945188747	-0.0823940847136506	0.13531894489908722	0.000541868456154837	-0.014639272678154291	0.9998926932796497	0.862214625726675	-0.506481790541613	-0.007882577799946777	0.5065428368475728	0.8621263756232127	0.012347748507194167
12														9.817769836017954	-0.07201947514784483	0.08476356488459777	0.000530337213389076	-0.01461964755108075	0.9998929865980271	0.8622005987950809	-0.5065059724046973	-0.007863037312394072	0.506566724311659	0.8621125018371176	0.012336449906744873
13														9.791770337480354	-0.08942904768367796	0.11374224944046889	0.0005147614103865883	-0.014641113169782505	0.999892680654199	0.8622090718102575	-0.5064915917817835	-0.007860276232376617	0.5065523186293637	0.8621205862636067	0.012362978270252567
14														9.791762089893304	-0.08924812588689934	0.11459107926079178	0.0005185988028018063	-0.014658052517469433	0.999892430490239	0.8622262747578279	-0.5064621276581351	-0.007871744738878528	0.5065230322231369	0.8621376077775464	0.012375907364274241
15														9.814510719486076	-0.0637191897147403	0.1099760049568167	0.0005332286276704679	-0.01465706721079435	0.9998924372391308	0.8622183182185763	-0.5064754815797399	-0.007884052695184496	0.5065365607688753	0.8621297796383958	0.012367524614516234
16														9.787104251653158	-0.05826995891159039	0.13078592983757586	0.0005506517764095054	-0.014635486979938883	0.9998927438998053	0.8621993217493575	-0.5065077486891514	-0.00788860525035373	0.5065688762227398	0.8621111894870105	0.012339797555993903
17														9.788496754527953	-0.08120855595928565	0.13938816144200109	0.000548527375174801	-0.014672371891406022	0.9998922045004645	0.8621959361466615	-0.5065132477179399	-0.007905540993922933	0.5065746409068465	0.8621073317106779	0.012372623036140784
18														9.791738670848616	-0.08870199345641226	0.1169909661838814	0.000570235426726573	-0.014619135629805713	0.9998929721250145	0.8622181938519196	-0.5064754955430116	-0.007896746494215512	0.5065367321550247	0.8621304154754648	0.01231607444807975
19														9.78848427261022	-0.08084009806015245	0.14047463293492735	0.0005707481194145991	-0.014654953571825835	0.9998924475074266	0.8622259050819778	-0.5064620806247631	-0.007915143384682355	0.5065236054244148	0.8621376880899266	0.012346818327330589
20														9.812630567187998	-0.07817699178472738	0.14394173182563497	0.0005396021202188073	-0.014641836888250437	0.9998926569597812	0.862206191533623	-0.5064961552981943	-0.007882128471053018	0.5065571953004306	0.8621178929129627	0.012350976021193283
21														9.812624220326022	-0.0778062864094253	0.14457374537879789	0.000547519269593566	-0.014633126807579888	0.9998927801631949	0.8622041651545514	-0.5064995664483176	-0.007884591163146215	0.5065606358697774	0.8621160367302654	0.012339424610058825
22														9.814470982778001	-0.062121006618832346	0.11434971330660651	0.0005270847781044252	-0.014625033313109492	0.9998929095569321	0.8621783510537675	-0.5065438345144746	-0.007863503645265446	0.5066045925135728	0.8620901647252236	0.012342395561387998
23														9.815865705702262	-0.08489701425720868	0.12300828938338748	0.0005313025964532869	-0.014638579941849084	0.9998927090917494	0.8621811935758483	-0.5065388342676534	-0.007873933127274857	0.5065997504556009	0.8620928728136277	0.012351982928668126
24														9.788902458626302	-0.04092428606677496	0.10508082734784605	0.0005357115694684667	-0.01460277986175379	0.9998932302168184	0.8621895576060006	-0.5065248233525859	-0.007859394556868737	0.506585510815581	0.8621017121824668	0.012319013100730414
25														9.814452904397804	-0.06140508550328352	0.11627195912539456	0.0005388684099095209	-0.014637527439545439	0.9998927204511958	0.862208366275131	-0.5064924978590428	-0.00787925997013561	0.5065534944564161	0.8621201148349132	0.012347665813005393
26														9.791691516177575	-0.08660212194347397	0.12238668674918156	0.0005162669698189903	-0.01463228009825046	0.9998928091788356	0.862207741247807	-0.5064939055947368	-0.007857132285109092	0.5065545818574458	0.8621193768698842	0.012354579098944551
27														9.812574919360237	-0.07620404743362401	0.1487141430920749	0.0005085060484719128	-0.014640213338772412	0.9998926970305334	0.862194319198321	-0.5065167897038283	-0.007854787729252521	0.5065774347162953	0.8621057973946835	0.012365141921324097
28														9.814430980143564	-0.06062541002031747	0.11850996739132001	0.0005172597804152246	-0.014633432999392071	0.9998927917936862	0.8622078586315989	-0.5064936834768613	-0.007858569332524379	0.506554381045345	0.8621194877954526	0.012355072119337895
29														9.791675715523807	-0.08577869639325483	0.12421688950656898	0.0005221686624705679	-0.01459473741684092	0.9998933548032118	0.8622068984936524	-0.5064955557899926	-0.00784322350462524	0.5065560102593245	0.8621190437548172	0.012319207175589597
30														9.788402641183435	-0.077796006802634	0.1476959284829829	0.0005172618515338345	-0.014601699174681793	0.9998932557135232	0.8621910623395334	-0.5065225176243472	-0.007842905158149893	0.5065829689813937	0.8621030852054208	0.012327449748071262
31														9.819087312200047	-0.09060745266168502	0.10523038402769562	0.0005188566856876298	-0.014616283594671653	0.9998930418007822	0.8621828061899408	-0.506536431917121	-0.007851869275008472	0.5065970188405965	0.8620946626644623	0.01233908859147742
32														9.766101471019088	-0.06441931617920466	0.11561128956937476	0.0005181638075868467	-0.014602496157750888	0.9998932436076525	0.8621909514913519	-0.5065226879733238	-0.007844089157895473	0.5065831567203026	0.8621029716189608	0.01232767833177073
33														9.794926846343756	-0.09242936484535781	0.10376286761969168	0.0005100287020591288	-0.014579392908928679	0.9998935849244814	0.8621896946004945	-0.50652511644913	-0.00782540292266154	0.506585304164491	0.8621019357991276	0.012311859971906924
34														9.790245767900737	-0.06139593597523037	0.11931863261790655	0.000516574814361348	-0.014573373114988353	0.9998936693201497	0.8621921867543516	-0.5065208352219674	-0.007827936240804023	0.5065810559527575	0.8621045529876826	0.012303392527973911
35														9.814390601393756	-0.05890748427723776	0.12264817350027568	0.0005275266249369914	-0.01459461145384322	0.9998933538293826	0.8621890955527275	-0.5065257832364978	-0.007848211683046835	0.5065863058015183	0.8621012865279598	0.012316109012458276
36														9.791632638120602	-0.08411161664147533	0.1286728122332844	0.0005057809243360634	-0.014588282459091939	0.9998934574246149	0.8621871762427393	-0.5065293891427726	-0.007826305464336769	0.50658959455187	0.8620992749965304	0.012321637156991971
37														9.791625798043894	-0.0839007018134892	0.12932923792126164	0.0005297843784722311	-0.014593918864632904	0.9998933627445903	0.8621843831020456	-0.5065337780080895	-0.007849921770088975	0.5065943237576369	0.8620966008917006	0.012314295250587637
38														9.814369133244835	-0.05832893377088059	0.12462653018981912	0.0005289625594489533	-0.014580240604683103	0.9998935627268137	0.8621934190416334	-0.5065185190928696	-0.007842064604750787	0.5065789458316536	0.862105797683716	0.012303058165133718
39														9.791614388077765	-0.08351869549843169	0.13043561738677723	0.0005369014562218721	-0.01457150205398755	0.999893685881013	0.8621913957970986	-0.5065219248421198	-0.007844531068581517	0.5065823810105108	0.8621039444186098	0.012291471335731774
40														9.793490938645094	-0.06800895583811184	0.10014639982937444	0.000548173269972807	-0.014572564319938586	0.9998936642839613	0.8621749387304929	-0.5065497715754731	-0.007855185669778997	0.5066103774412214	0.8620875647438473	0.012286422705000688
41														9.790198349104	-0.06016005111762549	0.12375649072795127	0.000543063762829088	-0.014579417979613929	0.9998935671625883	0.8621726176563405	-0.5065537357368498	-0.00785430930482034	0.5066143330437499	0.86208511956907	0.012294883985585314
42														9.843183641822689	-0.08591582978127883	0.11472596691594686	0.0005501186809624969	-0.01457128039929545	0.9998936819267146	0.8621627416678944	-0.5065705105517305	-0.00785650807028565	0.506631132333117	0.8620754001981985	0.012284141157588968
43														9.792989534005837	-0.10573356239402269	0.14089792319081268	0.0005289472503267612	-0.01456375463114501	0.9998938029940229	0.8621611928124066	-0.5065734877623342	-0.007834481769197876	0.5066337906447754	0.8620737779026499	0.012288353411174902
44														9.815728862689122	-0.08012633740288558	0.13639928095156095	0.0005492695982050599	-0.014593591480978385	0.999893357008934	0.8621714605048858	-0.5065555103673076	-0.007866867698736124	0.5066162956259711	0.8620838369927856	0.012303942539518775
45														9.788276862077993	-0.07466951281673757	0.15733115068410058	0.0005411504224425712	-0.014570469905012984	0.9998936986314935	0.8621702116597303	-0.506557925728041	-0.00784818505903534	0.5066184296715199	0.8620828088350052	0.012288101086487424
46														9.794860568029451	-0.08980122532366391	0.11200013419156268	0.0005583361856250635	-0.014570256033170303	0.9998936922992524	0.8621782288658622	-0.5065440549981192	-0.007862697742355429	0.5066047669835224	0.8620909627093829	0.01227933566528222
47														9.79485497126621	-0.08959042220600263	0.11265661738989881	0.0005438847781217282	-0.01457042954218507	0.9998936977360667	0.8621707466073785	-0.5065569792287128	-0.00785050884703925	0.5066175163610357	0.8620833656773792	0.012286689486522062
48														9.814300298251444	-0.05616057116423741	0.13088602801648686	0.0005557000683576452	-0.014540665648254736	0.9998941245151608	0.8621640010992536	-0.5065685333312108	-0.007845778941091563	0.5066289829904725	0.8620770789675201	0.012254938305345853
49														9.81569663786609	-0.07895878398075834	0.13936685483651895	0.0005506077803434928	-0.014547500638710409	0.9998940279130779	0.8621616811790318	-0.5065724952319333	-0.007844907968780013	0.5066329364911226	0.8620746355737767	0.012263374850440933
50														9.78963739818424	-0.0964649934241671	0.1684083303205114	0.0005317916103899645	-0.01457127506968614	0.9998936919195591	0.862155500986741	-0.5065830758014682	-0.00784088195453675	0.5066434735748446	0.8620680166056311	0.012293308328044095
51														9.794836028897944	-0.08850092056422981	0.11513719324418147	0.0005524224836673253	-0.014515926531628531	0.9998944857865393	0.8621659509655388	-0.5065654530806531	-0.007830372971990962	0.5066256683440817	0.8620793058774354	0.012235299456556492
52														9.820883728237659	-0.07052391516987483	0.08739675100492907	0.0005526484612840554	-0.014532923419187438	0.9998942387655659	0.862159417400032	-0.5065764343004493	-0.007839336698987565	0.506636786631326	0.8620725667531328	0.012249738101267005
53														9.8156664013235	-0.0780714512200088	0.14197197260037156	0.0005569172874312356	-0.014546417427083125	0.9998940401778441	0.8621622598606995	-0.5065714348017862	-0.007849784376106839	0.5066319448228928	0.8620752769815968	0.01225925373245107
54														9.790106025227587	-0.057290841570901654	0.13213777240297522	0.0005566205308498717	-0.014562850483601897	0.9998938011405899	0.862149311500169	-0.506593341726206	-0.007858167627425139	0.506653979411363	0.8620621262440824	0.01227337126312067
55														9.818958591498776	-0.08542459250522086	0.1204723347935015	0.000557873344093851	-0.014546379157752198	0.999894040201626	0.8621532295879804	-0.5065867877570449	-0.007850807666330673	0.5066473107481643	0.8620662557619325	0.012258596504307606
56														9.817552060004589	-0.06214097787947932	0.11307632763821027	0.0005676361063521318	-0.014538451575378863	0.9998941500054105	0.8621643447803184	-0.5065678064478838	-0.00785493858060149	0.5066283848924934	0.8620775434358391	0.012246988399351455
57														9.796710131583415	-0.07210725365654964	0.08822280420524313	0.0005655721640985267	-0.014575226364315186	0.9998936157934786	0.8621609508699729	-0.5065733198842615	-0.007871872485128606	0.5066341628069624	0.8620736826732776	0.012279687252601534
58														9.820852874520352	-0.06962332627170294	0.0914897715030306	0.0005993836686274956	-0.01453658827322013	0.9998941585690921	0.8621601511444711	-0.5065745318302639	-0.007881464298712226	0.506635484858454	0.8620736229013877	0.01222923464144271
59														9.79287013814062	-0.10263359437805297	0.15111801516624923	0.0005946717810155211	-0.014574393892004045	0.9998936110447725	0.8621456573639636	-0.5065989581065518	-0.007896906597925635	0.5066601541999656	0.8620586306557334	0.012263990298025385
60														9.791460980208129	-0.07936810506936981	0.14385310323989595	0.0005977452358788549	-0.014537614472729943	0.9998941446303581	0.862140860303443	-0.506607368919745	-0.007881037460435725	0.5066683132936897	0.8620543089165877	0.012230649307046315
61														9.817520614415034	-0.06132500687261848	0.11620868694913074	0.0005953207062045496	-0.01454338734292382	0.9998940621275086	0.862149643121346	-0.5065924123973387	-0.007881660179188787	0.5066533711118403	0.8620630009378886	0.012236991254771012
62														9.791448393085664	-0.07883176529194928	0.14500022270467525	0.000597976197863892	-0.01452839693411917	0.9998942784649739	0.8621752338774502	-0.5065489501057403	-0.007875737116961434	0.5066098188081535	0.8620887928916001	0.012223119809322391
63														9.743151721353392	-0.083349450069148	0.14003915657186547	0.0006096282689284638	-0.014497365783387672	0.9998947218276113	0.862168354060616	-0.5065607454003054	-0.00787022718191871	0.5066215131730805	0.8620823844649821	0.012190356245352585
64														9.897997788510276	-0.09173061541980193	0.0876642295808102	0.0006247524849741781	-0.014445873838443146	0.9998954577421462	0.8621621558802877	-0.5065714948316017	-0.007857327276559967	0.5066320426623123	0.8620769323866172	0.012138203931913671
65														9.863875127332618	-0.07075387342848188	0.15430364565444368	0.0006092943936362727	-0.014467219932973785	0.9998951586580229	0.862170639632678	-0.5065570976929444	-0.007854612166098895	0.5066176239687294	0.8620850342769626	0.012164569863637675
66														9.700095299723518	-0.07962476688501771	0.08256159149912265	0.000589930669961658	-0.01449216745657017	0.9998948089995349	0.862172497847614	-0.5065539985017402	-0.00785051317469515	0.5066144845313957	0.8620864363184881	0.012195916475549129
67														9.763945621799325	-0.07211014038240755	0.16790985320723212	0.0006105813526114945	-0.014436815798558766	0.9998955973200458	0.8621829561511123	-0.5065363601503201	-0.007840023481790415	0.506596661371689	0.8620977289120211	0.012137894866682986
68														9.922654732103481	-0.049911023150539496	0.054046225895998515	0.0006207322468672616	-0.014459643672545486	0.999895261213064	0.8621772383969433	-0.5065457753337144	-0.007860475926260047	0.5066063800246685	0.8620918142497526	0.012152346352535093
69														9.697280239077362	-0.033010622115152564	0.06843059324378842	0.0006250257144763127	-0.014473107748196046	0.999895063741674	0.8621800802254715	-0.5065407759746205	-0.00787092989611854	0.5066015382973651	0.8620945258074311	0.012161824189036663
70														9.796127810413767	-0.10778499821362451	0.13468044910596008	0.0006289884141184032	-0.014487329682162431	0.9998948552984237	0.8621828667487805	-0.5065358689145653	-0.007881483859110583	0.5065967910068421	0.8620971701505852	0.012172122244018868
71														9.813592497151507	-0.08982553541986375	0.18400494174502796	0.0006239279126204478	-0.014494114949363701	0.9998947601351827	0.862180552038404	-0.5065398223292534	-0.007880614278187037	0.5066007366760464	0.8620947332088762	0.01218049969434537
72														9.799984231651806	-0.0765782922222581	0.07444325868411453	0.000600517982366211	-0.014488300530467402	0.9998948587356031	0.8621739085874949	-0.506551486751635	-0.007857647273216029	0.5066120712429925	0.8620879771911026	0.01218724142035471
73														9.813571519950349	-0.0892949117704098	0.18537680951913027	0.0006298743839251997	-0.01449182679388733	0.9998947895726015	0.8621933034960634	-0.5065180605018083	-0.007884274984572837	0.5065790270676495	0.8621075578729507	0.012175713265808852
74														9.818841313838186	-0.08156144621151737	0.13214291140643297	0.0006368600988846951	-0.014484897238866035	0.999894885556074	0.8621952696205694	-0.5065146753839173	-0.007886739797850317	0.5065756719909954	0.862109663194135	0.012166230894038843
75														9.793288090056425	-0.06069174549533315	0.12224660756555555	0.0006187641768357621	-0.014507248031278452	0.9998945728852882	0.8621926586026027	-0.5065191854812238	-0.007882524418857395	0.5065801383618092	0.8621066375420138	0.012194626822239485
76														9.842970775487126	-0.07855882971311108	0.1362446516870298	0.0006128299632970902	-0.014463911431229215	0.9998952043617102	0.8621869192852387	-0.5065293731550975	-0.007855593200635835	0.5065899136904188	0.8621013799995998	0.012160178860546489
77														9.79273867924823	-0.09833051568824432	0.1620989385072969	0.0006141138140245417	-0.014447409620198859	0.9998954421435722	0.8621908455195074	-0.5065228039603148	-0.007848246335158848	0.5065832298513051	0.8621055164093585	0.012145361664975485
78														9.774423905597958	-0.05440678875771674	0.06722241282695722	0.0006244686984572811	-0.014418830773352764	0.9998958482551938	0.8621849466790386	-0.5065329284744463	-0.007842836933436848	0.5065932567246703	0.8621000462186685	0.012115384882927016
79														9.798565123126542	-0.051720022696324246	0.07037792017223918	0.0006257544012802096	-0.014402328964166877	0.9998960852767836	0.8621888734562646	-0.5065263582028032	-0.007835491945135109	0.5065865719890789	0.8621041824316902	0.01210056668675169
80														9.770528223913901	-0.08447116631933928	0.12992252530033999	0.0006137495608647958	-0.01438078206054405	0.9998964028432168	0.862169666927965	-0.506559370771109	-0.007814685745478	0.5066192739531324	0.8620851448617508	0.012087773487940212
81														9.718889416207551	-0.08130322213622816	0.1478553767123904	0.0006347724302571689	-0.014356408445408142	0.9998967399689382	0.8621679488316569	-0.5065622052199314	-0.007820501910583921	0.5066221719105621	0.8620838855814836	0.01205608349988313
82														9.846302749253175	-0.08430034113431122	0.1158282633138401	0.0006365094164390572	-0.014288494052893619	0.9998977116652803	0.8621673014737683	-0.5065638137762394	-0.007787608227963927	0.5066232714011503	0.8620840687022191	0.011996639722211377
83														9.920131502964713	-0.099856570621723	0.1322666174582711	0.0006632155137582529	-0.014293044907714547	0.9998976292663405	0.8621755944762649	-0.5065493118955013	-0.007812740088669501	0.5066091239157476	0.862092514458547	0.011987163128052147
84														9.777220992171216	-0.0988815729634162	0.08594684833152055	0.0006380262765968703	-0.014340251345431099	0.9998969697492943	0.8621664966816314	-0.50656475927138	-0.007815156047860705	0.5066246390792635	0.862082653726242	0.01204048263681129
85														9.739644685522311	-0.07029554163018097	0.17588329818347329	0.0006329799966007799	-0.014347010894289636	0.9998968759900808	0.8621641830206994	-0.5065687105033487	-0.007814285330373538	0.5066285827433881	0.8620802194792394	0.012048831065811894
86														9.818775465915538	-0.07824577551763416	0.13886941134545622	0.0006400583378356473	-0.014339871243639835	0.9998969739018316	0.8621644638916046	-0.5065681942343583	-0.00781676356579375	0.5066280958729256	0.8620806416356056	0.01203909420664534
87														9.79994427149822	-0.07279524112411226	0.08300660372068226	0.0006350152832245715	-0.014346625975911353	0.9998968802225044	0.8621621506514017	-0.506572144711443	-0.007815893205439906	0.5066320388010809	0.8620782078938989	0.012047436852035354
88														9.793216279448806	-0.057143214320355414	0.12949456423704778	0.0006352394898971325	-0.014331603025272366	0.9998970955180926	0.8621658577676922	-0.5065659510718926	-0.0078083874346404625	0.5066257298741261	0.8620820972328307	0.012034428119111817
89														9.794616769795194	-0.07984917886539852	0.13787049375185595	0.0006375494071761412	-0.014293858628618927	0.999897634328764	0.8621538327620402	-0.5065866762297059	-0.007791541584525663	0.5066461903384625	0.8620705452989589	0.012000530966508993
90														9.773838471709608	-0.08955956835504571	0.11265172700877234	0.000625893566297997	-0.014273133077835287	0.9998979377563424	0.8621424770571289	-0.5066063133658246	-0.007771261910790861	0.5066655282442667	0.8620593488443997	0.011988392674909365
91														9.796569897621326	-0.06391715474570077	0.10791149724446054	0.0006629819923339442	-0.01426313165198212	0.9998980565689463	0.8621399677935313	-0.5066101692696925	-0.00779822579193834	0.5066697508119528	0.8620572483704383	0.01196094244371576
92														9.792641278853315	-0.09443212202779667	0.17010337933901357	0.0006539723010039467	-0.01424121669658257	0.9998983748697823	0.8621376753875598	-0.5066143597089237	-0.007779409621086419	0.5066736632168332	0.8620551480524428	0.011946577698941752
93														9.794598394224598	-0.07878746088520473	0.13977364058260475	0.000661971568142794	-0.0142323956149073	0.9998984952027402	0.8621356598109676	-0.5066177517340873	-0.007781883461394468	0.5066770824459609	0.8620533002912059	0.011934889236584423
94														9.818731441833556	-0.07617686595896836	0.1430689452261874	0.0006685293527630698	-0.014225138470501164	0.9998985941104225	0.8621281072488804	-0.5066305709829291	-0.007784037318388004	0.506689924667905	0.8620458862386655	0.011925194297217223
95														9.811983629132234	-0.06054890707052693	0.18936883083623013	0.0006802041398800696	-0.01419406866057521	0.999899027770898	0.8621212368597457	-0.5066423468092504	-0.0077785201058702125	0.506701598850596	0.862039477538282	0.011892387807989069
96														9.763698731996046	-0.06510061125536538	0.18432769269609742	0.0006800247651125302	-0.014179108486187253	0.9998992401481543	0.8621212041774766	-0.5066425211055243	-0.007770786023088394	0.5067016546982033	0.8620396212996104	0.011879580620864028
97														9.795984605241115	-0.10077333209217838	0.1496891521856179	0.0006719723245731668	-0.014155897791193361	0.9998995744628159	0.8621199829485309	-0.5066448852527278	-0.007752112491132668	0.506703743280055	0.862038613291177	0.011863631021088339
98														9.825463142949928	-0.09040866264428772	0.09918027153300372	0.0006785604280996616	-0.0141494781468397	0.9998996608779891	0.8621166829150564	-0.5066504623211248	-0.0077546160014907994	0.5067093492282193	0.8620354408595754	0.011854708210323028
99														9.750232036477628	-0.051292730864648355	0.0755857412897946	0.0006731792380750279	-0.014125250154797375	0.9999000070695961	0.8621265626181013	-0.506633912785137	-0.007737470149855541	0.5066925466769875	0.8620455647609859	0.011836697930684592
100														9.826022817176204	-0.05149745122044066	0.061351235086172975	0.0006977655304029606	-0.014111679078829542	0.999900181836588	0.8621085060494855	-0.5066644126566514	-0.0077522090023278145	0.5067232350311064	0.8620278611859755	0.011812265605865846
101														9.796530742045235	-0.06132291323032807	0.1128582971680219	0.0006897193702904425	-0.014088463310910404	0.9999005147957112	0.8621072865490017	-0.5066667730112262	-0.007733537709806393	0.5067253208260947	0.8620268536002393	0.011796308988985704
102														9.769007329873949	-0.05574153150960818	0.13357815621151126	0.0006937866689344929	-0.014082889866410042	0.9999005904954097	0.8620971301730785	-0.5066840399491339	-0.00773445590634203	0.5067425942304442	0.8620167955868584	0.011789288306097045
103														9.79116289512061	-0.06846256367877383	0.1677593099452417	0.0007017951103739373	-0.014074057891732272	0.9999007092597161	0.8620951146885951	-0.5066874313965101	-0.007736930584218593	0.5067460120353007	0.8620149463665159	0.01177758579046484
104														9.797923528911298	-0.08360744806982674	0.12247017074000187	0.0006996053721243789	-0.014061031434754567	0.9999008940626637	0.862091917454576	-0.5066929996513554	-0.0077285162744336056	0.506751454276962	0.8620118859385307	0.01176741640640272
105														9.802710517600095	-0.11420033323863946	0.10806914617270438	0.0007236685592720282	-0.01406658440367936	0.9999007988330796	0.8620891044557708	-0.506697424837255	-0.007752137894911193	0.5067562059634433	0.8620091941890811	0.011759968155900635
106														9.801299614502112	-0.09083654301771064	0.10076773147108246	0.0006827475243382786	-0.014047651513723614	0.9999010937801633	0.8620784878749019	-0.5067161680210793	-0.007707516419424798	0.5067743231450665	0.861998485238218	0.011764218965885864
107														9.797908055355727	-0.08272850501182126	0.12429139810320664	0.0006961070781026923	-0.014036797987457661	0.9999012369915322	0.8620986754286193	-0.5066817368613992	-0.007713063939645548	0.5067399621691159	0.8620189010882396	0.011748400208871801
108														9.798477546342255	-0.04410127800669892	0.08601942221821532	0.0006901617569723961	-0.014024211162861677	0.9999014177297727	0.8620766396595806	-0.5067193951776232	-0.007702071414246392	0.5067774571051831	0.8619969698624723	0.011740226485088379
109														9.777154683975937	-0.09230469448541333	0.09970354431077845	0.0006914886133612685	-0.014007676160031513	0.9999016485895474	0.8620805750681658	-0.506712811161146	-0.007694744655333985	0.5067707607327395	0.8620011090559954	0.01172535938024638
110														9.796484676428534	-0.0588247573738041	0.11806662135701651	0.0006751457441440123	-0.014009599767837222	0.9999016328082324	0.8620671825029187	-0.5067357897512816	-0.007681942242973139	0.5067935645109394	0.861987569805673	0.011735095687996966
111														9.796479290463097	-0.058454862169250596	0.11869547322210677	0.0006671120057741842	-0.013986373237322436	0.999901963357027	0.8620659672263019	-0.5067381398440929	-0.007663274595667513	0.5067956423567115	0.8619865654353404	0.011719125275946762
112														9.824007548099388	-0.06337816158144749	0.09905945648116225	0.0006672185583456169	-0.013970701637906202	0.999902182373426	0.8620685657198086	-0.506733838810906	-0.007655364247033947	0.5067912221193134	0.8619893480198624	0.011705600501692781
113														9.799867521954145	-0.06554857962727219	0.09693762760694365	0.0006622026171473894	-0.013977409777217897	0.9999020919588149	0.8620662517846198	-0.5067377884670385	-0.00765449368357396	0.5067951647576274	0.8619869173922857	0.011713890166573537
114														9.79645974686816	-0.0576064457079642	0.12070644256212072	0.0006429524537066023	-0.014000946361406197	0.9999017752325116	0.8620630659142903	-0.5067432775867784	-0.007649902421861754	0.5068006087196394	0.861983308493613	0.011743886912291612
115														9.799854754116923	-0.06509356103566236	0.09852191216503858	0.0006563239754969197	-0.01399008900133586	0.999901918514298	0.862083255348248	-0.506708846184299	-0.007655458623997524	0.5067662479753426	0.862003725402803	0.011728056304536216
116														9.802666262944417	-0.11100257471143476	0.11518146584842291	0.0006415491724065525	-0.01402157564632256	0.9999014870631278	0.8620632856152084	-0.5067427642603854	-0.007659142514375161	0.5068002367885907	0.861983274945714	0.01176238517013678
117														9.795845073249449	-0.09535239007732374	0.16187566856912836	0.0006298560545302534	-0.01402057503335552	0.9999015085282575	0.862066924571375	-0.5067367348429224	-0.007648471794117928	0.5067940615688015	0.8619868357675007	0.011767502799233276
118														9.801245268160525	-0.08745240646802736	0.10873256104826234	0.0006360443165789875	-0.01401300415100476	0.9999016107409233	0.8620609791392573	-0.5067468244675091	-0.007650107029460285	0.5068041670044694	0.8619810274053374	0.011757750641450626
119														9.797830793554281	-0.07956550002481703	0.13219566041880684	0.0006467460631987554	-0.014003143664842232	0.9999017420162006	0.8620700676640648	-0.506731302395688	-0.0076541237281478325	0.50678869379378	0.8619903126717103	0.01174396453173615
120														9.823960856880943	-0.061605613841127935	0.10465038044238219	0.0006537013780223977	-0.013996735564070939	0.9999018272150808	0.8620670017219925	-0.5067364756685454	-0.007656942540948453	0.5067939001374839	0.8619873755575371	0.011734869529175407
121														9.775093644562899	-0.10452141265218468	0.13865067267978648	0.0006196181484146579	-0.014004582933021037	0.9999017390375027	0.8620651937751553	-0.5067399339198526	-0.0076315825558811445	0.5067970182970238	0.8619852150865324	0.011758878240311854
122														9.799818231550647	-0.06341070812908776	0.10314373712751065	0.0006531500490644659	-0.013965302869190843	0.9999022670795308	0.8620638381627876	-0.5067421040328227	-0.007640610736783682	0.5067992820901157	0.8619845766115306	0.011708003962408453
123														9.796396286130173	-0.05561155220668461	0.12664629923410384	0.0006484833875605167	-0.014002920629781368	0.9999017440144464	0.8620493211594737	-0.5067665672891103	-0.007655988930343638	0.50682398064593	0.8619695844354642	0.011742578522894953
124														9.803224188817419	-0.07089819810563905	0.08150367131691033	0.0006688735532399126	-0.013979325029347234	0.999902060743898	0.8620473777459905	-0.5067697876064201	-0.007661650644982143	0.5068272596550345	0.8619680741425798	0.01171187557569675
125														9.799800527543141	-0.0631068340955948	0.10499579387815042	0.0006799210397254174	-0.014000391390547207	0.9999017585484538	0.8620442613303921	-0.5067747819116618	-0.0076819220072442684	0.506832545536213	0.8619647959512606	0.011724390217976666
126														9.799793060400301	-0.06299103744705668	0.10575947802872056	0.0006774578610916904	-0.014007061245762675	0.9999016668083437	0.8620551388465487	-0.5067562631214371	-0.007682927531507289	0.5068140473971731	0.8619755750730147	0.011731553112939053
127														9.775655088682743	-0.06516075249033376	0.1037005228655993	0.0006657831003956116	-0.014006037631044632	0.999901688988843	0.8620587823291919	-0.5067502266575579	-0.007672261180683093	0.506807865509183	0.8619791405204603	0.01173664200844493
128														9.794337956904036	-0.07013153227897524	0.16101992554652517	0.0006673313349445653	-0.014021683496281578	0.9999014686761991	0.862053325164172	-0.5067593677505801	-0.007681651542945089	0.5068171457658908	0.8619735121156352	0.011749262476992484
129														9.796349441111488	-0.054672085531341855	0.13061635694109439	0.0007041127559201388	-0.013980724159597058	0.9999020169882653	0.8620630129205388	-0.5067427248058602	-0.007692373541124564	0.5068006175801198	0.861983961688561	0.01169546117532766
130														9.804607720349482	-0.09295299106212994	0.0931862696329594	0.0007009485211686428	-0.01398741676219295	0.9999019256124531	0.862072374540145	-0.5067267918216181	-0.007692821646623715	0.5067846976043051	0.8619932195919475	0.0117029761865024
131														9.796336426330646	-0.05417058471699725	0.13179633582524397	0.0006745483620856918	-0.013981677751975341	0.9999020240362287	0.8620486684053326	-0.5067675005423137	-0.0076677046558211726	0.5068250568836351	0.8619693805938444	0.011711047500713723
132														9.801167758643725	-0.08462123160555263	0.11759819167807926	0.000678303628681709	-0.013996365996922111	0.9999018160014852	0.8620520710929132	-0.5067615517427397	-0.007678307086185998	0.506819264263511	0.8619726395972038	0.011721858095997684
133														9.801161148331307	-0.08446600216517369	0.11825877879212283	0.0006863503708338659	-0.01398748275206746	0.9999019348163242	0.8620500603696297	-0.5067649345820678	-0.007680787378256337	0.5068226734666533	0.8619707949833872	0.011710092050062904
134														9.797720924824901	-0.07662408367622782	0.14173231919176246	0.0007029234327645684	-0.013985650539824757	0.9999019489318067	0.8620526273925901	-0.5067603661147219	-0.007694084793217426	0.506818284500648	0.8619735105641303	0.011700153057512153
135														9.801149389473295	-0.08411632569893403	0.1194764212911367	0.0006885800050753788	-0.013985601814455462	0.9999019595937714	0.8620451719107751	-0.5067732337802932	-0.007681868860268282	0.5068309850856582	0.8619659462332325	0.01170726660452942
136														9.779044358116378	-0.07090956769036554	0.08644280279459969	0.0006893990115434678	-0.01396985165594089	0.999902179202403	0.8620499835664396	-0.5067651607703836	-0.007674481250810161	0.5068227999627726	0.8619709479292668	0.01169334698950969
137														9.804577213676788	-0.09134242940988642	0.09787092425747176	0.0006977811471643447	-0.01399187939601737	0.999901865391018	0.8620357620093142	-0.5067890682614729	-0.007693198794301692	0.5068469770241223	0.8619565346359612	0.011707872559666377
138														9.7721531965981	-0.055019383079318064	0.13357404348877178	0.0006729146568640876	-0.01395518619683811	0.9999023952186916	0.86203559079682	-0.5067899655305772	-0.007653171701604344	0.5068473018429145	0.8619566019329097	0.01168884078211374
139														9.801128138141525	-0.08289135248364075	0.12204822371681097	0.0006652559782792666	-0.01396281636988117	0.9999022938235036	0.86202217851701	-0.5068128153588385	-0.007650747207682829	0.5068701225948036	0.8619430433312103	0.011699097130111913
140														9.824620822852374	-0.11863933447406164	0.16444863424353703	0.0006683131722006741	-0.013977458479993099	0.9999020872125146	0.8620242424776086	-0.5068091536231423	-0.0076607561440402705	0.5068666084271167	0.861944959065388	0.01171020082482005
141														9.79766434564943	-0.07489251716563881	0.14648933195896016	0.0006727117979514197	-0.013990796073362066	0.9999018977300077	0.8620270800513303	-0.5068041685922049	-0.007671242125073641	0.5068617767370257	0.8619476737730648	0.011719511943250993
142														9.797654296755404	-0.07472057547780916	0.1472472824442268	0.0006673056566040003	-0.013998268075537279	0.9999017967750866	0.8620260545965183	-0.5068059256391325	-0.007670393329100855	0.5068635278848951	0.8619465193548541	0.011728677339360394
143														9.797645793429714	-0.07438957730273742	0.14797887998978182	0.0006463006624521928	-0.013990504062027398	0.9999019192358538	0.8620245586397379	-0.506808802671963	-0.007648387815473667	0.5068660992781213	0.8619449537704256	0.011732607224313185
144														9.803136248358262	-0.06645458952537724	0.0947490606005418	0.0006639857367952695	-0.013968872024637424	0.9999022100872169	0.8620125417375015	-0.506829172731128	-0.007652944265638617	0.5068865129495891	0.8619333270520637	0.011704815537478375
145														9.801085667686092	-0.08157701659244346	0.12627142494619034	0.0006486934928521815	-0.013990044404849855	0.9999019241177123	0.8620210387467012	-0.5068147607232887	-0.007650298755889073	0.5068720824377795	0.8619414579717967	0.011730945172618468
146														9.801079091064864	-0.08126119855340834	0.12698335328944857	0.0006411515592147921	-0.0139676953917513	0.9999022414266918	0.8620275204398158	-0.5068040071759066	-0.007632320409122317	0.5068610686658248	0.8619481433333955	0.011715599645392871
147														9.775537719753556	-0.06035955956945394	0.11683813920505884	0.000633498589612036	-0.01397530216251719	0.9999021400162134	0.8620141096597911	-0.506826853598914	-0.0076298898067106435	0.5068838855467537	0.8619345864974275	0.011725833553916376
148														9.799656698935317	-0.05768294584915761	0.12040857676719725	0.0006296947105661754	-0.013983064361365705	0.9999020338991403	0.8620223558641955	-0.5068128211450635	-0.007630354731215372	0.5068698664104169	0.8619427116891516	0.011734576730262958
149														9.80105871239894	-0.08051605415929179	0.12901465398885678	0.0006377603501643292	-0.013974152832001652	0.9999021533702004	0.8620203478185048	-0.5068161991859762	-0.007632836271337373	0.5068732713495552	0.8619408699529851	0.011722776808049229
150														9.796179886394519	-0.04955622951505638	0.14462332912217782	0.0006294890788955398	-0.013983748801171092	0.9999020244568793	0.8620092856326844	-0.5068350441339144	-0.007630827006431862	0.5068920942631958	0.8619296333270128	0.011735074189480554
151														9.802452920722766	-0.1030509615797344	0.13838860822279261	0.0006178630133432117	-0.01398267657062563	0.9999020467031847	0.8620129384711468	-0.5068289916653679	-0.00762017820035471	0.5068858965818988	0.8619332096881913	0.01174009723029662
152														9.804503895120153	-0.08750918319578559	0.10817570783211686	0.0006317176858582352	-0.013982715133545542	0.9999020375068046	0.8620046833572814	-0.5068428488218866	-0.007632330458441139	0.5068999179353633	0.8619250607074886	0.011732984339615449
153														9.82515598099391	-0.07709189496406534	0.13454828262633198	0.0006134240012771186	-0.013973949920636553	0.9999021714320908	0.862014296363006	-0.506826806596468	-0.00761189733366352	0.5068835927279423	0.8619346360593952	0.011734844880592454
154														9.776898580281898	-0.0816829154379829	0.1296022307397177	0.000610069572911931	-0.01398180832825563	0.9999020636297277	0.8620236183983465	-0.5068109381272662	-0.007612773343664059	0.5068677432413092	0.8619438392554541	0.01174345907430463
155														9.8044885662769	-0.08673219885063849	0.11017236113316654	0.0006181438620013191	-0.013972888384312598	0.9999021833601354	0.8620216117776498	-0.5068143137996892	-0.007615258105487521	0.5068711460780038	0.8619419990451505	0.011731647608984652
156														9.805893642780868	-0.10951748712000664	0.1186882781604098	0.00061672163580756	-0.013959272438486159	0.9999023744183292	0.8620171378985868	-0.5068220436760407	-0.007607234265553153	0.5068787563348393	0.8619376745200493	0.011720563954731256
157														9.799595523945111	-0.05541818421483302	0.12630662486525415	0.0006024101979148488	-0.013959168339976069	0.9999023845962214	0.8620096892519857	-0.5068348955335513	-0.007595018445626045	0.5068914407816025	0.8619301191446732	0.0117276158532304
158														9.804474075250575	-0.0858770956872973	0.11211478239622934	0.0005963778686340904	-0.013967064228750714	0.9999022779503345	0.8620065863211442	-0.5068401897291223	-0.007593893225168513	0.5068967246613513	0.86192687810056	0.011737433084664795
159														9.775456355200639	-0.05738168062631547	0.12486994122401736	0.000604459543555036	-0.013958138500048456	0.9999023977360362	0.8620045801642031	-0.5068435643981384	-0.007596380988778295	0.5069001266567179	0.8619250382706167	0.011725612888018155
160														9.803054292463276	-0.06242910946129118	0.10537107200725791	0.0006091291585764158	-0.013951981492677568	0.9999024808320545	0.8619925277405616	-0.5068640440483176	-0.007597563453053957	0.5069206161531667	0.861913094843914	0.011717758125198874
161														9.77544197236013	-0.05695354894673604	0.12618517230060233	0.0005938726783583093	-0.013973123100870621	0.9999021947900956	0.8620010283417423	-0.5068496267303148	-0.007594933911487356	0.5069061791426704	0.8619212305739713	0.01174384233674497
162														9.828573261432824	-0.08257421756521754	0.1176543010975791	0.0006061377611528695	-0.013964620767398073	0.9999023062098801	0.8620213069924922	-0.5068150503412456	-0.007600726186060502	0.5068716789168334	0.8619416999510019	0.011730600905634603
163														9.800957368870572	-0.0772181278223548	0.13838910119061903	0.0006118380564704151	-0.013987559151988849	0.9999019821178287	0.8619959773688808	-0.5068578728932722	-0.007617853108052908	0.5069147469289693	0.8619161472411789	0.01174710478636587
164														9.803026032058108	-0.06180012026998407	0.10832958325748769	0.0006129536141954994	-0.014003224661957914	0.9999017621681308	0.8619879241504778	-0.5068714317934554	-0.007626942401918413	0.5069284396308975	0.8619079192876224	0.011759921881723645
165														9.804427332325114	-0.08472764872749265	0.1169717011395495	0.0006304145048499077	-0.014001002872020663	0.9999017824247192	0.8619910619982227	-0.5068658869163898	-0.007640792867128987	0.5069230825408613	0.8619112161928513	0.011749203727567492
166														9.804420775185442	-0.08457252937265267	0.11763180954881285	0.0006241228093458173	-0.01400961614097318	0.9999016657283366	0.8619883336067864	-0.5068705418432758	-0.007639799558910643	0.5069277297569301	0.861908338784982	0.011759776205278405
167														9.782377772283933	-0.07149574923995132	0.08456726807713094	0.0006322149147899303	-0.01400068125955689	0.9999017857912702	0.8619863301500786	-0.5068739113611805	-0.007642291267608403	0.5069311264251806	0.861906502415249	0.011747942611845974
168														9.803000682618407	-0.06110888121346418	0.11098316072356838	0.0006239404957042449	-0.014009484460212107	0.9999016676870864	0.8619740656527781	-0.5068948036510099	-0.007639906650210027	0.5069519906660567	0.8618940725963735	0.01175954008280855
169														9.797409460767867	-0.0683966195463827	0.1654823515568811	0.0006056859942988879	-0.01400069507319801	0.9999018020195501	0.8619836901797002	-0.5068787440495461	-0.0076194944019414845	0.506935647798281	0.8619036601431866	0.011761361448197338
170														9.807892532720098	-0.09141270332394935	0.09753638744445678	0.0006342090742724182	-0.014036936228833563	0.999901276226887	0.861989876756585	-0.5068675778091302	-0.007662306119710971	0.5069250932317485	0.8619096373676376	0.011778236912631301
171														9.778856542403416	-0.06299291758287977	0.11047967659752543	0.0005975271645317637	-0.014045600472350928	0.9999011771513513	0.8619769964652908	-0.5068898879493594	-0.0076353820704077036	0.5069470391726958	0.8618963757912295	0.011804104031232332
172														9.776757146209924	-0.0779414570059983	0.14198410959726376	0.0006090304884411313	-0.014015851088151288	0.9999015876575752	0.8619717064217532	-0.5068989596218787	-0.007630338303649453	0.5069560201933057	0.8618915248756842	0.011772550158438144
173														9.799464994520418	-0.052217992232569954	0.13731731585248422	0.0006198393237299427	-0.014005937586129724	0.9999017199262867	0.8619808087347747	-0.5068834195780447	-0.007634417450718356	0.5069405302125258	0.8619008253095024	0.011758663131579694
174														9.806468612860902	-0.06740145391278081	0.09205089843460539	0.0006205390990393078	-0.013991370673820114	0.9999019234294401	0.861986001012399	-0.5068746936482935	-0.007627515821058639	0.5069317005178099	0.8619061935533447	0.011745830090086007
175														9.804367447067193	-0.08242759939547335	0.1234549596764094	0.0006192710556964243	-0.013975709628981536	0.9999021432338899	0.8619788590779587	-0.5068869722990625	-0.0076186492339907486	0.5069438460086291	0.8618992266233079	0.011732865810339888
176														9.800852784613742	-0.07449981943707067	0.14701698735065408	0.0006197843652057666	-0.013991760226850614	0.999901918446552	0.8619706033131602	-0.5069008793586489	-0.007627419575127137	0.506957882758802	0.8618907872527602	0.011746316764415898
177														9.780236646884978	-0.08443335862087621	0.12179394205769241	0.000627581231402774	-0.013951933920946125	0.9999024700847899	0.8619808296718676	-0.5068836953846338	-0.007613713378962661	0.5069404850867577	0.8619015389782547	0.011708188882976756
178														9.806452452422633	-0.06643248645046484	0.09444605579922374	0.0006215292953905549	-0.01399023986010789	0.9999019386369804	0.8619637805361176	-0.5069124677084773	-0.0076283107950437246	0.5069694810787123	0.8618839964115581	0.011744019091546154
179														9.804341729088277	-0.08152856561714159	0.12606675142936144	0.0006163123549476346	-0.013965922734144487	0.99990228180621	0.8619737097256128	-0.5068958399017155	-0.007611256939551225	0.506952605182128	0.8618941701232923	0.011725852060088804
180														9.806443121770837	-0.06597148840406054	0.09572898455820399	0.0006326505855374642	-0.013965664812425116	0.9999022752047239	0.8619769581496172	-0.5068901073901597	-0.0076251327283731185	0.5069470617060222	0.8618975456725348	0.011717396950307823
181														9.807846405797557	-0.08879344027242815	0.10435594928541764	0.0006183702551122994	-0.013965503846011806	0.999902286386302	0.861969520069279	-0.5069029394218316	-0.0076129151475243795	0.5069597262995987	0.8618900015128576	0.011724384947705058
182														9.77316819708534	-0.06785591356717771	0.17090574987570845	0.0006147858745577661	-0.013972735613470788	0.9999021875652665	0.861977685337272	-0.5068890486066794	-0.007613303042381114	0.5069458472252517	0.861898053752352	0.011732558074877775
183														9.830545149313288	-0.0628690792020752	0.1006451617106633	0.0006322682418496983	-0.013970495682873396	0.9999022079619815	0.8619808237352315	-0.5068835032833592	-0.007627162770062701	0.5069404893570868	0.8619013512865403	0.011721813035269146
184														9.802899675702118	-0.057520798729276464	0.12133937717398788	0.0006330227713665093	-0.013985890792847677	0.9999019922676929	0.8619720544384097	-0.5068982852747852	-0.007635820369114699	0.5069553990731314	0.861892408160214	0.011734568862516614
185														9.783707825478608	-0.09049321999083632	0.10408098303001573	0.0006408295246410622	-0.013946058784365278	0.9999025436420809	0.8619822855852143	-0.5068810931799652	-0.007622120044550873	0.5069379929289287	0.8619031644106352	0.01169643125586095
186														9.804295391155526	-0.08009953547847028	0.1305085186114799	0.0006354970434372387	-0.013984822673166974	0.9999020056377066	0.8619682104521598	-0.5069047965426574	-0.007637500373084638	0.5069619318187606	0.8618885960359655	0.01173233607357349
187														9.80781057223512	-0.08778303265737383	0.1084964025153105	0.0006520600788394448	-0.014003841027097397	0.9999017287984561	0.8619872926496682	-0.5068719924893323	-0.0076609751591463215	0.5069294646478427	0.8619075795387703	0.01174062202225995
188														9.783688805169866	-0.09011660077685812	0.10617462294596708	0.0006605909829820455	-0.013974843397919878	0.9999021288964023	0.8619699148554972	-0.506901648953188	-0.007654029823969344	0.5069590017975423	0.8618906090917472	0.011711039915266619
189														9.807802613845778	-0.08741080806384928	0.1095115002230444	0.0006714241637194585	-0.013964914582875021	0.9999022603986283	0.8619790204516129	-0.5068861030356668	-0.00765812317699649	0.5069435052260469	0.8618999128147125	0.011697127815005315
190														9.80426616469181	-0.07949492581312335	0.13304894138602835	0.000665623985268371	-0.013973166879680476	0.9999021489886213	0.8619763627911645	-0.5068906338568187	-0.007657368839721956	0.506948031788294	0.8618971144606447	0.011707140999817955
191														9.80779190021227	-0.08687708823794409	0.11088721741123997	0.0006446975818139578	-0.013965301075935133	0.9999022725901208	0.861974897630591	-0.5068934570906889	-0.007635379059598768	0.5069505500734384	0.8618955815668798	0.011710945979285903
192														9.778729017899275	-0.058356567023041594	0.12354102051820974	0.0006648783796904811	-0.013963621856061592	0.9999022828263775	0.8619907967316862	-0.5068661756973243	-0.007651554341568667	0.5069234895786672	0.8619116527803938	0.01169950916734902
193														9.807779675749138	-0.08657496657933961	0.1121969962075342	0.0006733023650862813	-0.013985510677653412	0.9999019712726898	0.8619765654744346	-0.5068900945939498	-0.007670239594348871	0.5069476770208374	0.8618972313992093	0.01171389216080082
194														9.809904966114058	-0.07104762415506734	0.08198126762120664	0.0006672857458488446	-0.013963004985548588	0.9999022898371154	0.8619869068600166	-0.5068727629038667	-0.007653406307098376	0.5069301008340642	0.8619077889878788	0.011697698508319199
195														9.780115783860516	-0.08070079795302995	0.13347025019944572	0.0006409294399756238	-0.013957045807647728	0.9999023902770593	0.8619632358146296	-0.5069133953936135	-0.007628215682048356	0.5069703830732389	0.8618839889700016	0.011705564648147315
196														9.806357708662302	-0.06263319031256089	0.10615342431789793	0.0006578639414135945	-0.013955318967225072	0.9999024033812292	0.8619657864690815	-0.5069088524344536	-0.0076418767540152865	0.5069660246720413	0.8618866888379869	0.011695530433411039
197														9.800670572043806	-0.07011253522766944	0.16068641339578593	0.0006466242506055209	-0.013985019710689106	0.9999019957479685	0.8619572245787288	-0.5069233271283616	-0.007647444648188173	0.5069805961509903	0.8618776941288153	0.011726699858985556
198														9.780088589448559	-0.08005201869703088	0.13583276780152306	0.0006237062378163238	-0.013999687432650287	0.9999018050500343	0.8619708813694982	-0.5069002952422562	-0.00763481200841909	0.5069574051748522	0.8618910020618045	0.01175116603912546
199														9.805600504305279	-0.10032722546812387	0.1475274026634015	0.0006215476244863516	-0.014005247458296233	0.9999017285324507	0.8619796914187589	-0.5068853023271788	-0.007635565879886896	0.5069424279542718	0.8618997292773195	0.011757185526796998
200														9.828298738211226	-0.07454974590276854	0.1431770470844623	0.0006096226418143003	-0.014006222621739395	0.999901722214791	0.8619849191552671	-0.5068765613484923	-0.0076256609166739375	0.5069335533471053	0.8619048539620824	0.011764149245867661
201														9.802768620127198	-0.05382039998198567	0.1330589575135758	0.0006180539173604171	-0.014028088812158612	0.9999014105068728	0.8619706873905653	-0.5069004814554522	-0.007644342984674701	0.5069577419162191	0.8618904307535322	0.01177850952791687
202														9.783609088743594	-0.08684398513299016	0.11581023732512107	0.0006226220802769689	-0.013990502306745256	0.999901934285033	0.8619703198498664	-0.5069013340714207	-0.007629234203607171	0.5069583612484014	0.8618905402438406	0.011743789785090775
203														9.804163646707842	-0.07635735448736514	0.14213103841583563	0.0006204728715992758	-0.013996057180135968	0.9999018578824757	0.861979130778118	-0.5068863396259463	-0.007629993683503922	0.5069433825551095	0.8618992685250525	0.011749799979732356
204														9.80771108627871	-0.08384588597071342	0.11999447304077714	0.0006121129924592239	-0.01400352313622566	0.999901758503033	0.8619642280778895	-0.5069117276433323	-0.007626918889047929	0.5069687316114992	0.8618842159579356	0.011760248755967206
205														9.783592043408184	-0.0860455869534966	0.11782872042469711	0.0006005918931593079	-0.014002344923007393	0.9999017819896288	0.8619679050404407	-0.5069056347634603	-0.007616306535779049	0.5069624936517212	0.861887818559765	0.011765128504102551
206														9.804137906249075	-0.07564357558551502	0.14427207912356624	0.0006168693422578531	-0.014001333410437689	0.9999017862445013	0.8619697452108117	-0.5069023030083355	-0.0076297802100808165	0.5069593453260558	0.8618897945025079	0.011756033302160906
207														9.80984618176348	-0.06789245397832057	0.09117379467822638	0.0006120020341177645	-0.01400782636922232	0.9999016982953477	0.8619674525685115	-0.5069062143429469	-0.007628930007135382	0.506963249324901	0.8618873886192515	0.0117640627772157
208														9.780007325768945	-0.0778484455719475	0.14278650959560074	0.0006228723809392767	-0.014029745593356235	0.999901384271761	0.8619648120814051	-0.5069103947512291	-0.007649472310057026	0.506967725563932	0.8618845734387754	0.011777406539425717
209														9.806269496721434	-0.059721536948822276	0.11556347192758486	0.0005859528564177707	-0.014007426811562695	0.9999017194971558	0.8619641949094927	-0.50691209307291	-0.007606351981849446	0.5069688189161936	0.8618839375986539	0.011776873785493469
210														9.804100706349873	-0.07467837530630417	0.14727187761936048	0.0005804117236145045	-0.014046446054111317	0.9999011753545852	0.8619495134235191	-0.506936826443066	-0.007621699599990206	0.5069937863832168	0.8618687552922908	0.01181309526447144
211														9.809066423253878	-0.1052923460704026	0.1331525668464617	0.0005885612505447391	-0.014037437063269154	0.9999012971070442	0.8619475196974526	-0.5069401787457531	-0.007624202294906013	0.5069971665434276	0.8618669302937194	0.011801168714039967
212														9.807654873187742	-0.08201351331900697	0.12571876609652358	0.0005874179980842054	-0.014023497028684995	0.9999014933838143	0.8619422802836324	-0.5069492064005546	-0.007616271351519488	0.5070060753083218	0.8618618472011244	0.01178965391850123
213														9.806241928863644	-0.058718404624453574	0.11838235426013242	0.0005825643738656128	-0.014029976589972626	0.9999014053273625	0.8619399888364422	-0.5069531151109479	-0.007615426707629769	0.5070099764929519	0.8618594426217017	0.011797665041252736
214														9.811216543258046	-0.08918056200127986	0.10422803457058803	0.0005676879682139369	-0.014031218495573317	0.9999013964576209	0.8619327639288996	-0.5069655794259363	-0.007603403396661046	0.5070222758383092	0.8618520906657094	0.01180616867944112
215														9.809042935798182	-0.10417003460520534	0.13574045514129116	0.0005664672978792917	-0.014015474184992438	0.9999016179595723	0.8619256374967084	-0.506977828382403	-0.0075945345187046764	0.5070343918716891	0.8618451415492419	0.01179311016118978
216														9.811971778647395	-0.05029052335962229	0.0666905193228886	0.0005643996324954936	-0.01403203196878905	0.9999013869036698	0.8619052992451404	-0.5070122981593072	-0.007601621429906835	0.5070689663016271	0.8618245944471795	0.011808125158324634
217														9.779932084937	-0.07552587174739692	0.14904996093563483	0.0005752909021594643	-0.014022072748396008	0.9999015204089936	0.8619144125381559	-0.5069967436685734	-0.007605745753625104	0.5070534631568784	0.8618339070756627	0.01179415598144401
218														9.807616967401076	-0.08046976410281159	0.12961317110991083	0.0005693798285694718	-0.013998743495072463	0.9999018506769403	0.8619237166707985	-0.506981182781351	-0.007588606329196668	0.5070376538749445	0.8618434402408489	0.011777184163054066
219														9.80978975104168	-0.06476528443580308	0.09916968799463241	0.0005690592368334801	-0.01396171323466261	0.9999023686016238	0.8619006500596453	-0.5070206733275975	-0.007570088849554957	0.5070768635999333	0.8618208093229023	0.011745084915479487
220														9.807608107479886	-0.07981006933621858	0.13068718876432908	0.0005631717102506095	-0.013991283554441736	0.9999019586050046	0.8619155702433619	-0.506995166135894	-0.00757966271663052	0.5070515088328655	0.861835335490102	0.01177377980846167
221														9.806192211882111	-0.05656276627067686	0.12344204519391366	0.0005619582977167692	-0.013975527328226489	0.9999021796349732	0.8619084452005804	-0.5070074113694488	-0.007570793113605645	0.5070636215454527	0.8618283874718614	0.011760708008506982
222														9.783487339239302	-0.08178597515799858	0.12902417417541923	0.0005615792355886939	-0.013960558494170494	0.9999023889536884	0.8619105581251958	-0.5070039382821923	-0.007562827425039165	0.507060030391941	0.8618306732606342	0.01174802987934892
223														9.809770810011749	-0.06367584740182719	0.10171626229413808	0.0005500928345922862	-0.013959344426755449	0.9999024122888436	0.8619142414385081	-0.506997834580243	-0.007552227249344512	0.5070537819633678	0.861834283626568	0.011752861886609456
224														9.762959430185365	-0.09142671485354197	0.10446739852387554	0.0005552339221197022	-0.013953307043092444	0.9999024937151884	0.8619026187524912	-0.5070175686276321	-0.007553865932201809	0.5070735326388955	0.8618227719928762	0.01174487852748618
225														9.835277745314722	-0.08377138906302302	0.11374366851417995	0.0005818763224245127	-0.013926919703775353	0.9999028464443482	0.861923137070066	-0.5069825512056423	-0.007562972716757821	0.5070386249618875	0.8618437988873522	0.011708933178372016
226														9.78705696385431	-0.08866359281317814	0.10852034155103307	0.0005767640461357693	-0.013966281877117959	0.9999023003842746	0.8619093362311223	-0.5070057763338749	-0.007578844351953662	0.5070620903408787	0.8618294992251159	0.011745246039350898
227														9.78345321936889	-0.08069424513325267	0.13225834971773198	0.0005559062276891402	-0.01395832829015664	0.999902423259195	0.8619078907188058	-0.5070085617060207	-0.0075568692890337075	0.5070645707253912	0.861827989466655	0.011748944077585421
228														9.809743167379839	-0.0626226865624739	0.10498344289802802	0.0005697876303851213	-0.013959211586759335	0.99990240311439	0.8618998730621714	-0.507022003466177	-0.007569466068142294	0.507078183476147	0.8618200673069871	0.011742547828767769
229														9.787038780274276	-0.08798415120485012	0.1106913719673808	0.0005649562164146138	-0.013965662694052583	0.9999023157738913	0.8618975841955192	-0.5070259068829085	-0.0075686265262017716	0.5070820793346995	0.8618176663396273	0.011750523499716725
230														9.785624510144334	-0.06473079950682034	0.10345140243980822	0.0005598135504672475	-0.013973706302932154	0.9999022062886695	0.8618959335337977	-0.5070287175479372	-0.007568311542126227	0.5070848906905956	0.8618158823750318	0.011760039092333419
231														9.807529431969888	-0.07728213751670295	0.13791100671837644	0.0005613472729153468	-0.013957002760632886	0.9999024387224883	0.8618999193199834	-0.5070220500941682	-0.007561070989847485	0.5070781142639128	0.8618200756493475	0.011744924108209986
232														9.807523669281474	-0.07692733892261482	0.13851793667361198	0.0005440084521959876	-0.013949089655345082	0.9999025587288952	0.8619117485191687	-0.5070022272028193	-0.0075418416855935755	0.5070580260871862	0.8618318655684347	0.011747070758208633
233														9.782004019562876	-0.0562068151456899	0.12812605465588656	0.0005784768315068023	-0.013939914360821204	0.9999026673392608	0.8618981040788134	-0.5070250442664216	-0.0075672103169092675	0.5070811804335698	0.8618185906989049	0.011721483517510956
234														9.811117796102561	-0.084345647908282	0.11679090883697889	0.0005713859649932873	-0.013948954486419363	0.9999025453447028	0.86188698947539	-0.5070439565923437	-0.007565940538444338	0.507100079758551	0.8618073176481609	0.01173270458819764
235														9.811110774115182	-0.08411844271259716	0.11754221882524657	0.0005693100346633173	-0.013954460677974234	0.9999024697005561	0.8618958085148521	-0.5070289535299364	-0.007566739513620302	0.5070850926132751	0.861816055379293	0.011738634497321876
236														9.784799247267811	-0.10163651790941963	0.14597618500762186	0.0005736611645782985	-0.013916479234813428	0.9999029965544541	0.8618939981498885	-0.5070322615486411	-0.007551271553302763	0.5070881647860355	0.8618147233336053	0.011703665210224423
237														9.806081674354676	-0.052784787464519034	0.1334876858281354	0.0005688470963083336	-0.013922912146906885	0.9999029097519074	0.8618917103124015	-0.5070361629967436	-0.007550437623313866	0.5070920588095862	0.861812324076936	0.01171161651378283
238														9.790607678909256	-0.09354254240037022	0.09341399239755109	0.000575870094087827	-0.013915444008395672	0.9999030096922821	0.8618888687879445	-0.5070409584494727	-0.007552768636583218	0.5070968805199578	0.8618096233349273	0.011701576570629424
239														9.809682408771089	-0.060083179682809955	0.11191606885023019	0.0005710578025288071	-0.01392187294150432	0.9999029229614177	0.8618865814196548	-0.507044859018784	-0.007551934279532435	0.5071007736749443	0.8618072246137312	0.011709523553537105
240														9.780548207456015	-0.03153607564904575	0.12437810664960669	0.000572592571841668	-0.01388477159899687	0.9999034379655821	0.8618735922675513	-0.5070671933901109	-0.007534742152396023	0.5071228481241737	0.8617946823374579	0.011676575067482098
241														9.785571458329295	-0.06188102866521059	0.11000589804848998	0.0005545040839760595	-0.013875857990777785	0.9999035718959312	0.8618832608111031	-0.5070510609025417	-0.007514410903583846	0.5071064358286551	0.8618043178138687	0.01167820784758844
242														9.790596383707982	-0.09244102682904347	0.09566711167427054	0.000590589870198388	-0.013866896840580123	0.9999036755486093	0.861880018027394	-0.5070561776029527	-0.007541039701684571	0.5071119065144347	0.8618014515691512	0.011652139056829436
243														9.785560620981895	-0.061613046016120575	0.11111473871367307	0.0005885241226949445	-0.013872388469712671	0.9999036005923285	0.8618888376047569	-0.5070411741057437	-0.0075418415384030935	0.5070969189924925	0.8618101905870079	0.011658050810801512
244														9.7797147222565	-0.06892145510853769	0.1655942233850939	0.0005743682078466761	-0.013872930182927679	0.9999036013082965	0.861882269606067	-0.5070525134716293	-0.007530067781720995	0.5071080983773144	0.8618035103144115	0.011665597708701347
245														9.814685199909706	-0.08931136427712479	0.1005874923279174	0.0005825646583810795	-0.013863872057059523	0.9999037222002944	0.8618802807340206	-0.5070558567496393	-0.007532583735659015	0.5071114693045939	0.8618016890140529	0.011653605118631505
246														9.811053478224752	-0.08145166630205383	0.12402403012489263	0.0005991464446805095	-0.01386312505568732	0.9999037227589602	0.8618830488542057	-0.5070509456367869	-0.007546431383011976	0.5071067452926614	0.8618045905496965	0.011644594718292767
247														9.808826940232281	-0.09655145335245184	0.15553802254164606	0.0005877066115920759	-0.01386186713336851	0.9999037469879368	0.8618867418390745	-0.5070448256401813	-0.007535849888558821	0.5071004819983544	0.8618082115129185	0.011649365902982822
248														9.789159190136875	-0.06822001623037544	0.09165684665429974	0.0005781713983031289	-0.013892781289826295	0.9999033234997612	0.8618893535938141	-0.5070402760736716	-0.007543248688258231	0.5070960538985414	0.8618103904381571	0.011680884100095101
249														9.789154085165455	-0.06806583249861972	0.09231398798099258	0.0005993699080182324	-0.013868249258161824	0.9999036515676034	0.8618876642018332	-0.5070430604376224	-0.007549116422318147	0.5070989006618152	0.8618091473897009	0.011648966607190114
250														9.78915110645202	-0.0677687795921785	0.09284710561973664	0.0005777380212280137	-0.013861069310500684	0.9999037638574767	0.8618853099515239	-0.5070473927128948	-0.007526887326200549	0.5071029271346642	0.8618067140029865	0.011653711461605654
251														9.811021059382462	-0.08036551125639768	0.1272549796369042	0.0006149567270838374	-0.01385094506961887	0.9999038819551118	0.8618827668838076	-0.5070513139184709	-0.007553886566823764	0.5071072056054182	0.8618045697106919	0.01162607624408779
252														9.786916076265285	-0.08257896543024762	0.12480515946682791	0.0005775575986173287	-0.013830381270029224	0.9999041889006897	0.8618829578751955	-0.507051623050967	-0.007511223980448345	0.5071069249690094	0.8618047180860094	0.011627318399770159
253														9.786911792162	-0.08216180501763058	0.12541477236002258	0.0005857602596791578	-0.013821313263573443	0.9999043095139599	0.8618809705444244	-0.5070549638086022	-0.007513740111210421	0.5071102932285243	0.8618028979858028	0.01161531424253509
254														9.814647040969897	-0.08711386411906101	0.10608759997939828	0.0005814366044546437	-0.013807354938895955	0.9999045048808745	0.8618625668783783	-0.5070863984071718	-0.007503356865844302	0.5071415756426289	0.8617846259362223	0.011605203775782724
255														9.792774983442548	-0.07405180766596518	0.07288598039862122	0.0005766441432962788	-0.013813750051243634	0.9999044193276946	0.861860281212396	-0.5070902955357103	-0.007502522375575027	0.5071454654731934	0.8617822303128722	0.011613111854719471
256														9.785484597107628	-0.05834081678405622	0.11927637119885554	0.0005753509724567007	-0.01379855796280166	0.9999046298369691	0.8618532873853837	-0.507102310223263	-0.0074938634386763625	0.5071573523022874	0.8617754038984737	0.011600570734096427
257														9.790533729769807	-0.08882098770874607	0.10504877064222098	0.0005705626092807337	-0.013804947572431392	0.9999045443845287	0.8618510017477949	-0.5071062071110698	-0.0074930298109636695	0.5071612418596596	0.8617730084726186	0.011608472053663998
258														9.810981574315544	-0.07839670973463198	0.13145788298098576	0.0005937379597646397	-0.013781392419128513	0.9999048558229052	0.8618604446449039	-0.5070900426540534	-0.007500839792883074	0.507145168005891	0.8617828971754429	0.011576558390833658
259														9.790526506391242	-0.08834636355918003	0.10611682151665959	0.000572934124050406	-0.01377336697359538	0.9999049785398113	0.8618590158869825	-0.5070927954272282	-0.007478874254959966	0.5071476200090184	0.8617814056870863	0.01158016973875281
260														9.810970238419044	-0.07783984886543237	0.13262966286774966	0.0005871966325458611	-0.013773623710861438	0.9999049667293318	0.861851394925296	-0.5071055619415314	-0.0074914693675587896	0.5071605547215163	0.8617738893339919	0.011573046130064657
261														9.786864880475953	-0.0801466889049078	0.1302850619018979	0.0005757800959003134	-0.013772342931964499	0.999904991010369	0.8618550926381	-0.5070994335167018	-0.007480897059359393	0.507154283991621	0.8617775160081661	0.011577786133010637
262														9.789100740261517	-0.06457319806978817	0.10014774209707454	0.0005692156492400624	-0.01378026049933545	0.9999048856836907	0.8618511489393716	-0.5071061589671284	-0.0074793455255123265	0.5071609932412282	0.8617734319170993	0.011587880582526078
263														9.810947939808125	-0.07714289730706224	0.13467064955245367	0.0005774281978999651	-0.013771179643137343	0.9999050060820338	0.8618491630206665	-0.5071094969834247	-0.007481862722218069	0.5071643587410815	0.8617716128304842	0.011575860326263954
264														9.796403764175952	-0.07959343596306598	0.05579916089976381	0.0005625554527577958	-0.01379288985976107	0.9999047153207546	0.8618578563543713	-0.507094751669126	-0.007479857610662666	0.5071496021605567	0.8617799423396579	0.011602241569849292
265														9.785423610347504	-0.05609007094691151	0.1252118017952771	0.0005445146209141494	-0.013783935399573843	0.9999048487874875	0.8618675383250183	-0.507078595019884	-0.007459547857193327	0.5071331678025022	0.861789592416595	0.011603814762320863
266														9.813177143362989	-0.061021303266669734	0.1057738642532109	0.0005767548286554902	-0.013745600477750863	0.9999053584321739	0.861864077850031	-0.5070843526833101	-0.007467969969434829	0.5071390131567316	0.8617868168701903	0.011554375931305871
267														9.810923189303779	-0.07603623869524394	0.13708165739726605	0.000555958043992999	-0.01373755784045566	0.9999054807406714	0.8618626532010416	-0.5070870971317913	-0.007446001592416485	0.5071414575125114	0.861785330245899	0.011557968898222415
268														9.810913769119145	-0.0758489250711311	0.13785744186303883	0.0005700176945678259	-0.013768607088110396	0.999905045761187	0.8618420886155924	-0.5071216310021621	-0.007474333443227399	0.50717638881413	0.8617645135584087	0.011577296787175118
269														9.814568906221275	-0.08349029974829757	0.11578650177920193	0.0005652386121939856	-0.01377497586943871	0.9999049607563248	0.8618398057199312	-0.5071255230368786	-0.007473497253854766	0.507180273455053	0.8617621214258426	0.011585175600264286
270														9.794134565045448	-0.09352775561444389	0.09056006680354058	0.0005736956504197588	-0.013767723754428862	0.9999050558207625	0.8618392330286686	-0.5071264428991301	-0.007477120102782231	0.5071812371192932	0.8617616960013348	0.011574628246563523
271														9.810887818242692	-0.07533563940499452	0.13996954271116044	0.0005661638014511361	-0.013775000931234516	0.9999049598876357	0.8618258423480081	-0.5071492358513494	-0.007474626180531907	0.5072039993135862	0.8617481661858857	0.011584522241633144
272														9.790457311289918	-0.08521482823600907	0.11471348407839536	0.0005513559435383897	-0.013746243573960037	0.9999053639191204	0.8618318693274203	-0.5071393980740813	-0.0074471425837501215	0.5071937746248742	0.861754414963256	0.011567336474245404
273														9.786780769680867	-0.07724806744193402	0.1381186375465479	0.0005755920741292164	-0.013751569133634789	0.9999052770338439	0.8618290240750892	-0.5071438854029473	-0.0074707938120803785	0.5071985823674439	0.8617516892033146	0.011559593405060575
274														9.810868192317594	-0.0746321021620206	0.14171115114800736	0.0005818692487903343	-0.013744406718168845	0.9999053718788307	0.861825347667236	-0.5071501055494514	-0.0074726541086879705	0.5072048220851466	0.8617481428614429	0.011550183047425777
275														9.785353288876788	-0.05400490500422641	0.13146801222379445	0.0005773560721694659	-0.013781547604150346	0.9999048632773021	0.8618107967942663	-0.5071746063807159	-0.007487935055643435	0.5072295507842554	0.8617331301442461	0.011584266183146896
276														9.794110922161128	-0.09221104599367555	0.0943864839736838	0.0005767574946344278	-0.013735337988470653	0.9999054994553912	0.8618171255424272	-0.507164207396967	-0.007463836627039144	0.5072187984219249	0.8617399881784233	0.011544838745950914
277														9.790429285078984	-0.08412432673154359	0.11786715446924555	0.0005589970957416424	-0.013757147617425136	0.9999052097132402	0.861814545988628	-0.5071686523241669	-0.007459652947871764	0.5072232012089561	0.8617370242650133	0.011572604124309382
278														9.790421145805674	-0.08388126539860015	0.1187132968159185	0.0005542304093277828	-0.013764108244241235	0.999905116575015	0.8618122160162077	-0.5071726192511596	-0.00745912911485247	0.507227165236531	0.8617345783976407	0.011580986139089033
279														9.810825289567262	-0.07329652203621266	0.14533228896090186	0.0005334567178966187	-0.013756042726939921	0.999905238866376	0.8618107989010468	-0.5071753497661315	-0.007437169296256707	0.5072295952736484	0.8617331001406968	0.011584550074736744
280														9.786724372697979	-0.0754394797401846	0.1430273355536792	0.0005185639465108416	-0.013757158304971817	0.9999052313528546	0.8618030569321504	-0.507188682118846	-0.007425078649375361	0.5072427645160004	0.8617252354004266	0.011592951317299038
281														9.810811090012297	-0.0726594606070411	0.14660501720071936	0.0005397904135998055	-0.013732606291263383	0.9999055576156975	0.8618013731896882	-0.5071914570292291	-0.007430954510411147	0.5072456030313891	0.8617239937712173	0.01156100187292003
282														9.813079514508104	-0.05726569920534362	0.11639807967354843	0.0005408088316575799	-0.013769390864515896	0.9999050511928762	0.8618094959332734	-0.5071773710192503	-0.007450305043385286	0.5072318012950738	0.8617316973404323	0.011592305798792557
283														9.790386898944421	-0.08278887458995465	0.12225178162541309	0.0005520644845515843	-0.013790150246572264	0.9999047589550629	0.8618063509010221	-0.5071824164873598	-0.00747060591298726	0.5072371326820126	0.8617283958198312	0.011604441663043585
284														9.81447099329168	-0.08009475437987533	0.1260313796291359	0.0005428781559937979	-0.013788421144408924	0.9999047878301479	0.8618204046287014	-0.5071586697616028	-0.00746149122254347	0.5072132642675371	0.8617423995185493	0.01160781732642896
285														9.794065617662135	-0.09014331435395208	0.10086290358581651	0.0005475132919942616	-0.01380151343898739	0.9999046046778608	0.8618232469093936	-0.5071536841953284	-0.007472060870740149	0.5072084298547748	0.8617451240557727	0.011616791741070942
286														9.814456565934844	-0.07967278468120793	0.12741468928935412	0.0005461052790545762	-0.01378742800234073	0.99990479976751	0.8618168062436617	-0.5071647497688471	-0.007463850740556499	0.5072193748714641	0.8617388371316352	0.011605271820092466
287														9.790356828662285	-0.0820262150091019	0.12514001526165383	0.0005443753800234985	-0.013823623039039556	0.9999043009716082	0.8618133628369244	-0.5071703513637644	-0.007480797635799008	0.5072252273804585	0.8617349604975015	0.011637292005104383
288														9.814439472643592	-0.07931387937380313	0.12894606095980923	0.0005430326738014579	-0.013808984256290235	0.9999045039749169	0.8618062574079055	-0.5071825492403907	-0.007472378376217614	0.507237301278301	0.8617280160815407	0.011625252344698744
289														9.818134428029659	-0.08677516719308946	0.10673201989935548	0.0005382871912610887	-0.013815311768237581	0.9999044191359722	0.8618039797166374	-0.5071864316721465	-0.00747155085911666	0.5072411761592951	0.8617256295877599	0.011633078703142674
290														9.788039194738136	-0.09662947326061624	0.15826566464624015	0.0005200368046298087	-0.01383864844427285	0.9999041060876577	0.8618015679002173	-0.5071905862391721	-0.007467716859390239	0.5072452928578528	0.8617228098638221	0.011662411155088148
291														9.794033997674168	-0.08877728034258292	0.10505747228472508	0.0005410230139704097	-0.013783325061095864	0.9999048590962837	0.8618121626060655	-0.5071727340186707	-0.00745749638173876	0.5072272702431871	0.8617342036952504	0.011604245057643015
292														9.796326278332941	-0.07335770461555491	0.07473603375083786	0.0005482367963360324	-0.0138286001973274	0.9999042300405566	0.8618144018434282	-0.5071684998200562	-0.007486625777239797	0.5072234578680977	0.861735970356847	0.011639638373847738
293														9.788013317209346	-0.096196366061131	0.16011890005928325	0.00056587509494338	-0.013826238369295307	0.9999042528752103	0.8618175431956918	-0.5071629559741161	-0.0075005551620453415	0.5072181010428541	0.861739271021202	0.011628703897200499
294														9.792607523296155	-0.06547973068419037	0.09893528106099275	0.0005740272263959345	-0.013817949685916264	0.9999043628063742	0.8618153191881446	-0.507166692712858	-0.007503426906309785	0.5072218706891296	0.861737204760929	0.011617393229155282
295														9.788890704908608	-0.05759553071554794	0.1224503631643624	0.0005786795282837764	-0.013831025360642013	0.9999041793429395	0.861818162607249	-0.5071617043511802	-0.007514002919328466	0.5072170341483704	0.861739930824306	0.01162634476744523
296														9.791700476625698	-0.10343033980150254	0.13911755082559668	0.0005804107229406275	-0.013816253190158834	0.9999043825642422	0.8618237749235202	-0.5071522580151653	-0.007507873646575125	0.5072074960999358	0.8617457271944579	0.011612818870926245
297														9.793999382784175	-0.08787639980073947	0.10896935668897102	0.000565460403685214	-0.013837109248910018	0.9999041027329404	0.861832310645403	-0.5071377896655667	-0.0075053727908785395	0.507193009200776	0.861753907273276	0.011638501497372722
298														9.814364731084146	-0.07726801595754151	0.1357002000718102	0.0005433037493288162	-0.013831102614877133	0.9999041981217465	0.8618295655993795	-0.5071427808220389	-0.007483295990027672	0.507197697825829	0.8617510664110293	0.011644520584074336
299														9.792580351341638	-0.06432649524845208	0.10232321200364848	0.0005805536574218784	-0.013820951251497793	0.9999043175544122	0.8618270147131886	-0.5071467164659735	-0.007510305475485091	0.5072019909937306	0.8617489131320593	0.011616843276480993
300														9.818072715642105	-0.08455475654748325	0.11394717284742512	0.0005501547522922534	-0.01380797831512931	0.9999045139735081	0.8618214133614392	-0.5071567174954872	-0.007477658115598751	0.5072115424568331	0.8617432353282801	0.01162099670892175
301														9.790259544848958	-0.07900173893035096	0.13435725097112924	0.0005611848336392611	-0.0137979527382599	0.999904646239738	0.8618305453077654	-0.507141136972109	-0.007481869095114335	0.5071960136338834	0.861752565236025	0.011606897217962042
302														9.814342688585302	-0.0762349902679263	0.1378613123227601	0.000572373536186721	-0.0137676810718243	0.9999050571661489	0.8618221305568841	-0.5071555180430914	-0.00747634943246589	0.507210299255573	0.8617445859860959	0.011575009836888417
303														9.79397493455092	-0.08627526666831656	0.112392191359126	0.0005806303557039927	-0.013758545929864807	0.9999051781455508	0.8618201542884103	-0.5071588390946301	-0.007478876285076319	0.5072136478158789	0.8617427773657766	0.011562920358918372
304														9.797693765035172	-0.09390922158216292	0.09019891874398113	0.000594299468391235	-0.013781675989112063	0.9999048515809259	0.8618288395680793	-0.5071437354938642	-0.007502188885095962	0.507198874305612	0.861751296463348	0.011576050572597751
305														9.79396039299435	-0.0860618442663703	0.11381408799890996	0.0005895715603925766	-0.013787977430717802	0.9999047675072588	0.8618265669811146	-0.5071476096804901	-0.007501362603659634	0.5072027413677114	0.8617489156788857	0.011583845447139862
306														9.81431178584085	-0.0754551807951641	0.1404658368119192	0.0005686035984138194	-0.013781763033677397	0.9999048653235124	0.8618255417769252	-0.5071496649599649	-0.007480165232445879	0.5072045073053445	0.8617478055316874	0.01158910826870968
307														9.816625379866109	-0.05994408605356556	0.1103431235730554	0.0005798857984195549	-0.013802480604038714	0.9999045730776694	0.8618223941750589	-0.5071547139551276	-0.00750046741627608	0.5072098427976637	0.8617445025309233	0.011601195063503267
308														9.793942758203059	-0.08524718405983286	0.11592507348977898	0.0005654216710193061	-0.013772702712877505	0.9999049919658956	0.8618274325547961	-0.5071465606557293	-0.007472784693398016	0.5072012981000178	0.8617497772990999	0.011582941362602073
309														9.792529969181716	-0.06193338892362059	0.10843868727459686	0.0005802992974831556	-0.013771217725708162	0.9999050038954087	0.8618194661801222	-0.5071599175606563	-0.007485033926327378	0.5072148173759667	0.8617419402479028	0.011573998965147991
310														9.78878744224397	-0.05403730045597067	0.13195814380922194	0.0005749400831680518	-0.013779089137292866	0.9999048985510808	0.8618166643875945	-0.5071646869216823	-0.007484472157226252	0.5072195840341154	0.8617390074971532	0.011583459331322488
311														9.814271832298465	-0.07432822461392122	0.14381820760487185	0.0005768340447185327	-0.013793033655171316	0.9999047052019868	0.8618084003584303	-0.5071785982648966	-0.007493365979198918	0.50723362303196	0.8617305969295984	0.011594394388221296
312														9.812853100642979	-0.05118822290111644	0.13656937259688193	0.0005805621449748721	-0.013806574803169103	0.9999045161613189	0.8618100126203563	-0.5071757101676926	-0.007503410104668373	0.5072308794768887	0.8617320798880022	0.01160419738718893
313														9.792500839933059	-0.06129797591604078	0.11139017267621132	0.000575844927899527	-0.013812858540549311	0.9999044321041677	0.8618077420680665	-0.5071795805614594	-0.007502584424251779	0.5072347426134767	0.8617297012407319	0.011611971641335872
314														9.793899610916098	-0.08404637518856546	0.12036259330970461	0.0005412663166524667	-0.013852693901851842	0.9999039003336454	0.8617931619757228	-0.5072044913081563	-0.007493328280582967	0.5072595519087448	0.8617143998265879	0.011663624172758735
315														9.815636516153402	-0.09654474251653712	0.15515629292913422	0.0005550997267222413	-0.013841774260251294	0.9999040439710309	0.86181340720401	-0.507170003541778	-0.0074992446851608885	0.5072251403742802	0.8617348738404178	0.01164749670660814
316														9.816558910331988	-0.058131807262760335	0.11702406832211713	0.0005506792115615444	-0.013879047929902855	0.9999035297372268	0.8617984923823458	-0.5071951183121244	-0.007514684814795558	0.5072504857365062	0.8617194926360373	0.011681640773832658
317														9.790121716229596	-0.075925546449085	0.14569563136754038	0.0005647574707736136	-0.013898856583733576	0.9999032467367349	0.8618064528014273	-0.5071812657785881	-0.007536680506026794	0.507236945577528	0.8617273266114367	0.011691689881538347
318														9.793862425296261	-0.0836569069746244	0.12361546032150793	0.0005783090576920169	-0.013921229633375776	0.9999029277505536	0.8618150130390512	-0.5071663801218422	-0.007559508886631816	0.5072223859996066	0.8617357264495896	0.011704225786626055
319														9.790099169794066	-0.07585381230868572	0.14723984331556206	0.0005802109746774198	-0.013935150625379644	0.9999027327356763	0.8618067515981802	-0.5071802857246744	-0.007568399568646078	0.5072364204737451	0.8617273172815668	0.011715135325572335
320														9.821681942739305	-0.08864443513787994	0.10549283453738123	0.0005746891288957445	-0.013964964852987427	0.999902319973836	0.8618209356762936	-0.5071560333313843	-0.007578435565025465	0.5072123269030856	0.8617411082292816	0.011743842017278738
321														9.79478212848015	-0.04496828513234965	0.08721124161539114	0.0005644122262674078	-0.013972994205248612	0.9999022136548048	0.8617964534586655	-0.5071976971592205	-0.007574219593458997	0.5072539346766125	0.8617164565153226	0.011755608268870399
322														9.793822783068226	-0.08308999613426436	0.12709004346182973	0.0005483116911970676	-0.014027403041156739	0.9999014608041188	0.8617918240187208	-0.507205356357881	-0.007588052211316143	0.5072618174165842	0.8617110643631056	0.01181059462635542
323														9.792405995140511	-0.05978243787434974	0.12020344713361339	0.000501645538739437	-0.014050091606769066	0.999901166754792	0.8617898480435326	-0.5072091416324176	-0.00755939505587333	0.5072652226999778	0.8617084666929687	0.011853787107687419
324														9.7975656633317	-0.09032979094912524	0.10632735524751592	0.0005208571122694017	-0.01408007788208826	0.9999007351305947	0.861791218517957	-0.5072063391316481	-0.007591128375085632	0.5072628750393667	0.8617096268184004	0.011869905445707762
325														9.774880087306965	-0.11588530047990488	0.11202536720401222	0.0005255548944971822	-0.014093109913055013	0.9999005490772724	0.8617940687664403	-0.507201337624068	-0.007601720288170244	0.5072580278625823	0.8617123576724046	0.011878796388060497
326														9.784837888562784	-0.043978750597091096	0.16838255412820213	0.0005297331110156733	-0.014109159333683785	0.9999003205348662	0.8617980265522847	-0.5071944381036352	-0.007613368986583491	0.507251299469424	0.861716156039583	0.011890567982493938
327														9.821621258773817	-0.08756781671651617	0.1118503099507286	0.0005280604704458458	-0.014145260147855498	0.999899811364863	0.8617945852493665	-0.5072000306031701	-0.007630320505393584	0.5072571477929229	0.8617122724967379	0.011922476315595065
328														9.816435963171614	-0.05672393087959968	0.127554394284168	0.0005300953413434062	-0.014159692695484338	0.9998996060113732	0.8617867590943384	-0.5072131885927723	-0.007639578995604579	0.5072704415285858	0.8617042905894823	0.01193376432947224
329														9.792347489175146	-0.05909758877062098	0.12520398833537255	0.0005254040197563148	-0.014165945400772095	0.9998995199226363	0.8617844988304195	-0.5072170412145273	-0.0076387614953813965	0.507274286285259	0.8617019200933018	0.011941498285320429
330														9.792336075124224	-0.058941537050598514	0.12616681423753792	0.000509820595336552	-0.014219628380519711	0.9998987660016796	0.8617807899765639	-0.5072231332786635	-0.007652652765258061	0.507280602931288	0.8616974499415071	0.01199560977916081
331														9.76964562164153	-0.08445693123734951	0.13205749555829424	0.00052113512354518	-0.014240298907933824	0.9998984659980212	0.8617776457306507	-0.5072281685463937	-0.007672962401080452	0.5072859329186254	0.8616941446476727	0.012007636853098913
332														9.814013192988238	-0.07145689228311428	0.16179894331393346	0.0005219392990164495	-0.014225004430175658	0.9998986832816268	0.8617805484965411	-0.5072233446047124	-0.007665828136029229	0.5072810008391504	0.8616972368163727	0.011994092323274752
333														9.845649963205183	-0.08416684796068992	0.11988496939760745	0.0005238561971497857	-0.014238897429867892	0.9998984845346388	0.8617722926605935	-0.5072372366376212	-0.007674722844195958	0.5072950238048763	0.8616888298963916	0.012004967913258557
334														9.789915026578491	-0.07356575824261591	0.16008429346437322	0.0005104350086154175	-0.014238045591224324	0.9998985036061633	0.8617652430004359	-0.5072493923398208	-0.00766289287948424	0.5073070129739011	0.8616816883447305	0.012010934970823561
335														9.793693406968305	-0.08109311602780622	0.13789053697733772	0.0005281313940058707	-0.014235643005033216	0.9998985286245119	0.8617683920015737	-0.5072438314572624	-0.007676848023637106	0.507301645595845	0.8616850015619335	0.011999935789747451
336														9.813970853555647	-0.0706113309905483	0.16471232064669977	0.0004969018369874179	-0.014274426267124996	0.9998979917188101	0.8617657793297668	-0.507248378668999	-0.0076696749495900884	0.507306115343315	0.8616816831594003	0.012049159425404743
337														9.771986493786924	-0.0679275628682923	0.10568073557460461	0.0004922251033890324	-0.014280658559665316	0.999897905041085	0.8617635223405677	-0.507252225370141	-0.007668860425012414	0.5073099538523036	0.8616793154347753	0.012056868342643023
338														9.796056727422794	-0.06513561557151049	0.10956867574269888	0.0004853554596745968	-0.014289301957044198	0.9998977849158672	0.8617513787502431	-0.5072728742067717	-0.0076676147566042685	0.5073305881298038	0.8616670162792475	0.012067618003820335
339														9.820124544144008	-0.06255843125376516	0.11349258978504664	0.0005154860593711841	-0.014323505537702286	0.9998972804559644	0.8617584547478276	-0.5072601993441558	-0.007710760790162363	0.5073185389326497	0.8616739101019819	0.012081916437506557
340														9.80123767328264	-0.09577851170613791	0.09619749932306851	0.0005104442528917619	-0.014300236968312174	0.9998976160934254	0.8617691986956801	-0.5072421956593146	-0.007694356511326661	0.5073002933431741	0.8616848949386128	0.01206458488974227
341														9.79983450497142	-0.07244396149362892	0.08888447843093739	0.0004928009714918469	-0.014321869972741041	0.9998973153217715	0.861766647713976	-0.5072465927763756	-0.00769018885161965	0.5073046442080126	0.8616819472155847	0.01209213826169836
342														9.796025655557072	-0.0644927572034546	0.11268281619591272	0.0004814248106433383	-0.014352626075613883	0.999896879860561	0.861758218489407	-0.5072608219846272	-0.007696190320129359	0.5073189737198038	0.8616730589987213	0.012124285532394863
343														9.773338612458197	-0.090029078148052	0.11845799135611546	0.0005021634006530662	-0.01438004415889882	0.9998964757223154	0.8617601834040521	-0.5072570014428051	-0.007727922532501874	0.5073156158954042	0.8616748509833869	0.012137423590881435
344														9.817673244321988	-0.07720685761315735	0.14837948102505694	0.0005137023309729205	-0.014400566722760133	0.9998961745041226	0.8617570147157865	-0.5072620729202659	-0.007748352390734847	0.5073209868495994	0.861671522713092	0.012149207679947926
345														9.769509128797516	-0.08216146141863116	0.14313875491870037	0.0004729263283307916	-0.014452131485249597	0.9998954506528278	0.861764985831103	-0.5072486709805952	-0.0077391849660986	0.5073074861819088	0.8616785489287485	0.012214449633097868
346														9.811420108694367	-0.08429730900188377	0.20418319035378227	0.00046492984659413095	-0.014462121523942106	0.9998953099606301	0.8617524325022007	-0.5072700204174879	-0.007737665163446317	0.5073288173529845	0.8616658130775924	0.012226923429625003
347														9.787330955172257	-0.08672660504200053	0.2018112868098892	0.0004762757109945115	-0.014482751646711867	0.9998950060212259	0.8617492888287037	-0.5072750505369357	-0.0077579833702768886	0.5073341466574779	0.8616625052812091	0.012238898146472388
348														9.813812198029972	-0.06875438949679612	0.17465078883926172	0.0004909657232615716	-0.014451453978106654	0.9998954517501205	0.8617527657664585	-0.5072691944559196	-0.007754679226249672	0.5073282267393745	0.8616664783046637	0.012204528648035728
349														9.791131157029012	-0.09406315982833968	0.17986808032381713	0.0005028585218406767	-0.014420066946306598	0.9998958989827746	0.8617459961055771	-0.507280778884159	-0.007749165805931046	0.5073397139287579	0.8616601842048552	0.01217134449192625
350														9.795964522290536	-0.06324720002577565	0.11855038113929123	0.0005063315788308986	-0.014405235264266014	0.999896111016196	0.8617617490406448	-0.5072540925268222	-0.007744256271492778	0.5073129522481569	0.8616761426497608	0.012157041971138316
351														9.795960058446823	-0.06295840213601415	0.11907183183654356	0.0005052508589414861	-0.014389252018886411	0.9998963417014322	0.8617546851983581	-0.5072662282729559	-0.007735385731106492	0.5073249523335601	0.8616692654841922	0.01214370864622838
352														9.775701442338372	-0.07289442970253159	0.09370086618356073	0.00048337640809453797	-0.014383909750940449	0.9998964293803257	0.8617536972945514	-0.5072682344720583	-0.007713850839336955	0.5073266517209781	0.8616681736236274	0.012150185912304545
353														9.775695980523675	-0.07267719012515565	0.0944365113778045	0.0004975342629555679	-0.01440367152938421	0.9998961379594041	0.8617616613546448	-0.5072543692336858	-0.0077358847340867065	0.5073131099024947	0.8616760058976982	0.012160155478041057
354														9.825231827722574	-0.0901950412899301	0.10971206425277093	0.0004306325864129601	-0.014413855088071026	0.9998960222628531	0.861748389469217	-0.5072777086016589	-0.007683723255144326	0.5073357150869499	0.8616620956833084	0.012202666096503056
355														9.79592807585598	-0.061748120826831954	0.12229332188344963	0.000460791648587755	-0.014448037188878937	0.9998955154877159	0.8617554593381043	-0.5072650427606431	-0.007726881260631924	0.5073236796878592	0.8616689797215817	0.012216931428911726
356														9.798712123588395	-0.10775926533919127	0.13914456076629345	0.0004556921839256045	-0.014456068148604062	0.9998954017487612	0.8617537330161495	-0.5072679797080131	-0.007726603114041608	0.5073266166656	0.8616671160353249	0.012226412638286721
357														9.818945305993456	-0.09722284579957365	0.16589377344513437	0.00045104913823884596	-0.01446225722540212	0.9998953143557688	0.8617514838792788	-0.5072718128385804	-0.00772579648462951	0.5073304412180847	0.8616647555838681	0.012234067110200364
358														9.797297944173987	-0.08440635035951145	0.13261395530567188	0.0004636844231669657	-0.014484244509541166	0.9998949903153549	0.861759117611248	-0.5072585110856854	-0.007747654162189699	0.5073174629466632	0.8616722170246186	0.012246721897698487
359														9.797288639204854	-0.08429137999931138	0.13337235397130867	0.0004590422607009814	-0.01449042991293742	0.9998949028378639	0.8617568697282754	-0.5072623422321151	-0.0077468464108149115	0.5073212855344502	0.8616698576567053	0.012254372670443159
360														9.797279274535853	-0.08417639993613503	0.13413072159318173	0.00047301736206534217	-0.014512279111175641	0.9998945794480409	0.8617653683981046	-0.5072475535161519	-0.007769767149507889	0.5073068362285829	0.8616781958520698	0.012266242654860093
361														9.826574827739066	-0.11228033847588424	0.12307376607183008	0.0004943176363945145	-0.014487665602883004	0.9998949260774623	0.8617637110008367	-0.5072502787472072	-0.007775674436824698	0.5073096313417884	0.86167700576043	0.012234201714828807
362														9.799711003087827	-0.06853865450580729	0.10426682148451148	0.0004838304662082571	-0.014466424464246452	0.9998952387481905	0.8617517133461734	-0.5072709598054502	-0.007756151300274794	0.507330021241613	0.8616651878202335	0.012221032923080799
363														9.81993878047144	-0.05794403238967248	0.13070951492843438	0.0005079478157751227	-0.014440953746991614	0.9998955949717424	0.8617611650606614	-0.5072547861419966	-0.007763783184131845	0.5073139426255789	0.861675136458582	0.012186994164932297
364														9.776682873243413	-0.032358707853791184	0.06316515300488483	0.0004991675584067323	-0.014449993059410915	0.9998954688027801	0.8617463780674897	-0.5072799466775906	-0.007761158827399306	0.5073390687886277	0.8616601728055926	0.01219901148963598
365														9.794459338486266	-0.03714736726585237	0.12071123015337622	0.0005169074379340888	-0.01444755888972099	0.9998954949637628	0.8617495311202523	-0.5072743763584341	-0.007775133708587234	0.507333695333481	0.8616634929787204	0.01218796320083626
366														9.775622135116164	-0.07037480672043947	0.1033991774175719	0.0005215425231614446	-0.014461312755481348	0.9998952937316912	0.8617527768953563	-0.507268695361049	-0.007786027218139369	0.507328177323652	0.8616666067221634	0.01219751422928883
367														9.822698467149024	-0.1032884574152466	0.14941118088763106	0.0005103213374738069	-0.014459842794975863	0.9998953207803691	0.861756536100909	-0.5072624702665816	-0.007775522259527989	0.5073218032565676	0.8616702961141172	0.012201997177285373
368														9.773154637857653	-0.08528271218206464	0.13586934695208436	0.0005149583675468916	-0.014505991739560076	0.9998946499614506	0.8617475713290392	-0.5072772754802167	-0.007803146152099594	0.5073370261733144	0.8616608044845839	0.012239276473610006
369														9.818825366431236	-0.09521479545220668	0.1739612517407111	0.0004971534759898866	-0.01449688030832641	0.999894791115419	0.8617573375792299	-0.5072609948275257	-0.0077829464180458885	0.5073204549067369	0.8616705423698289	0.012240606410895527
370														9.801058163801839	-0.08994653136760608	0.11771109820560821	0.0004988470637186104	-0.014492018801742335	0.9998948607441966	0.8617334218948548	-0.5073016282562545	-0.007782516170022902	0.5073610753112527	0.8616467021695159	0.012235191024514702
371														9.801053029105056	-0.08985576017616217	0.11820682932767367	0.0005361518718385305	-0.014481828371064764	0.9998949890804538	0.8617308641434789	-0.5073055575292744	-0.007809550719760083	0.5073653814793662	0.8616445600982707	0.012207445652311799
372														9.798587662340548	-0.1049820926763919	0.14963667081697313	0.0005245021177882059	-0.014481934753078407	0.9998949937185084	0.8617355334740988	-0.5072977812469155	-0.007799454472391609	0.5073574629840767	0.8616491366604879	0.012213519009567797
373														9.797187096626837	-0.0817229183629528	0.1421415612769953	0.0005429937937497797	-0.014458167024871849	0.999895327803876	0.861722768556392	-0.5073193998100314	-0.007803635556341615	0.5073791238405918	0.861636807467433	0.012183460431377635
374														9.776974027870807	-0.09170676717002446	0.11654786321868581	0.0005273250561304565	-0.014428717242355782	0.99989576159069	0.8617255758111924	-0.5073150691770818	-0.007775125640304914	0.5073743725506394	0.8616398509264724	0.01216607472655623
375														9.798246078748084	-0.042815942266409994	0.10418716866484824	0.000542255959627258	-0.014427126402699664	0.9998957765598548	0.8617176191900802	-0.5073283961921771	-0.007787374040977235	0.5073878701110768	0.8616320307653578	0.012157007169165346
376														9.80317037670284	-0.01208633531080872	0.04300660514712132	0.0005401986727672226	-0.014413462945909561	0.9998959747250218	0.8617115141745109	-0.5073388969675352	-0.007778815002094985	0.5073982405610666	0.8616260765028366	0.012146183180832881
377														9.826161828520414	-0.047259974994551736	0.0860885520765802	0.00045736827773334987	-0.014450622640715116	0.9998954796975302	0.861732121165276	-0.5073047045756879	-0.00772580528931327	0.5073633236313527	0.861645586201583	0.012220540621324605
378														9.818744605100408	-0.09277189061155117	0.17974341181466746	0.0004927170452014851	-0.01447447657502371	0.999895117878767	0.8617088958478889	-0.5073434956915778	-0.007768925026200857	0.5074027355528605	0.86162234587279	0.012222808439340427
379														9.76920537040717	-0.07478950326414834	0.16607443505880712	0.00046196706702805734	-0.014480744144232893	0.9998950418096185	0.8617183743344066	-0.5073277563802977	-0.007745381888673186	0.5073866670704869	0.8616315080445718	0.012243954587483896
380														9.776932874929821	-0.08999957225878549	0.12123663904716923	0.0004678788216033736	-0.01449509708884894	0.9998948310946477	0.861723103541433	-0.5073195361759939	-0.007757643785079094	0.5073786297355555	0.861636106703149	0.012253395982774862
381														9.822581839988079	-0.0999157304856332	0.1590603321826573	0.0004826163056252941	-0.014462839240315717	0.9998952911993393	0.8617274587629598	-0.50731219609665	-0.00775387035786701	0.507371219025512	0.8616409704585223	0.012218188567175658
382														9.80098835093149	-0.08704866051965102	0.12544833555849252	0.0004933804976386957	-0.014464488154827704	0.999895262094037	0.8617081650480877	-0.5073448054974184	-0.0077644461646538265	0.507403976004467	0.861621742365642	0.012213853513645678
383														9.799585371790995	-0.06391674910132089	0.11809345994368141	0.000495356833078664	-0.014478273157758847	0.9998950616079552	0.8616999150220672	-0.5073586814092761	-0.007773342241408909	0.5074179845773792	0.8616133401967551	0.012224603160049252
384														9.802367395865653	-0.10976244543092131	0.1349359676849356	0.0004922022454671438	-0.014487364339764108	0.9998949314860222	0.8617094102611362	-0.5073425287847766	-0.007775008274798545	0.5074018624368211	0.8616226986104507	0.012234183049567526
385														9.821152068164169	-0.07621540561493047	0.15357727930119647	0.000497734425676799	-0.014478973290138974	0.9998950502892314	0.8616963538992348	-0.5073646914362153	-0.007775831826781654	0.5074240297199235	0.8616097894153114	0.012223945619016519
386														9.79708111036248	-0.07857890369081531	0.15094686781688568	0.000499572062194864	-0.01447328578992274	0.9998951317144201	0.8616719254290817	-0.5074061888440791	-0.0077751173666663065	0.5074655095226605	0.8615854476029465	0.012217738077756835
387														9.777982571064223	-0.05045169655704465	0.08645645720938817	0.0005237240800538556	-0.014447829048667649	0.9998954875130044	0.8616813858047703	-0.5073900055000877	-0.0077827807493198176	0.5074494211945255	0.86159540536983	0.012183692992667305
388														9.798161391745133	-0.0398896435344045	0.11294491639358613	0.000520029427804769	-0.014435424080010917	0.9998956686079928	0.8616641723533198	-0.5074193762831967	-0.007773715652146462	0.5074786533954537	0.8615783162916778	0.012174614734566158
389														9.798156985999379	-0.03963925647738274	0.11341421053577008	0.0005385309209812728	-0.014411651209103982	0.9998960017391179	0.861651409202741	-0.507440985073642	-0.00777789730084083	0.5075003044367341	0.861565987592894	0.012144546912227439
390														9.803431519890369	-0.07014323918349218	0.0991809234938969	0.000527630317599892	-0.014411744220049427	0.9998960062100382	0.8616559283559803	-0.5074334561238252	-0.007768444839513555	0.5074926430355837	0.861570420357365	0.01215022756954015
391														9.800933699616683	-0.08516268790804915	0.13089458037812443	0.0005166517136772075	-0.014440902577603554	0.9998955912512825	0.8616473831679389	-0.5074478812447215	-0.007773988685796818	0.5075071626596522	0.8615614360874029	0.012180792099128257
392														9.794542756227218	-0.09244378461088752	0.1854223696962919	0.0005091642903432558	-0.014439838282187145	0.9998956104624677	0.8616652516764185	-0.5074176528885175	-0.007766568774142946	0.5074768317915026	0.8615792572987662	0.01218394793844696
393														9.799815648475128	-0.12302627723444567	0.17139744466853798	0.0005177347137388377	-0.014461245204533846	0.9998952966875587	0.8616509898360916	-0.5074415858150103	-0.007785158959944916	0.5075010380927809	0.8615648027703328	0.012197826120577904
394														9.802306404076175	-0.10758739247318481	0.14098279462017763	0.0005387912198536737	-0.01440788717832997	0.9998960558433454	0.8616632462462162	-0.5074209150299647	-0.007775928149518441	0.5074802062863679	0.8615778709885777	0.012141352903840774
395														9.800907796300349	-0.08441892359495645	0.13329374732291785	0.0005603259895524682	-0.014413914302103259	0.9998959571421807	0.8616492776658621	-0.5074442978814797	-0.007797874420049422	0.507503899820173	0.8615639985642763	0.012135404618391743
396														9.824964798094985	-0.08170953489408127	0.13690319886426214	0.0005841354496786688	-0.014368901177209348	0.9998965913856975	0.8616424399041788	-0.507455941653095	-0.0077957063146841254	0.5075154820709912	0.8615578924018574	0.012084432064403017
397														9.779338853722026	-0.07140748208805879	0.09993141288345704	0.0005925121216709406	-0.014359660356457749	0.999896719208456	0.8616404958880793	-0.5074592029712753	-0.0077982796502575336	0.5075187728302584	0.8615561255508581	0.012072189141308698
398														9.802001159838307	-0.04557876084098342	0.09556064588889952	0.0006040314604048858	-0.014329707349498011	0.9998971420267552	0.8616331144782103	-0.5074718144055993	-0.007793177687484554	0.5075312908388748	0.8615491959668741	0.012040421431939508
399														9.774039862779016	-0.04023575820468389	0.11561788331150412	0.0006189886993965832	-0.014328098062178218	0.9998971559410056	0.8616251565546442	-0.5074851374811608	-0.0078054357926503615	0.5075447826991978	0.8615413750027615	0.012031322170742098
400														9.82605415934875	-0.042617458365696095	0.09972081472299445	0.0006299379357621593	-0.014299237173875823	0.9998975622504751	0.8616176723199667	-0.507497921709178	-0.007800397860888375	0.5075574745032527	0.8615343239111898	0.012000783256501002
401														9.799483558073302	-0.060305439546132905	0.12802403291718178	0.0006283806485421484	-0.014335175487087404	0.9998970486412667	0.8616142247550607	-0.5075035135780075	-0.00781737844253133	0.5075633288935452	0.8615304326892534	0.012032485727035025
402														9.811180708295488	-0.0833274263757227	0.06029630135808332	0.0006226227952453867	-0.014312110612948514	0.9998973826501687	0.8616231586741623	-0.5074886054288682	-0.0078004997418217314	0.5075481699082507	0.8615395979580193	0.012015671979555331
403														9.774294262971285	-0.1007189292077332	0.1651883765233836	0.0006182344732316714	-0.01434887569508514	0.9998968584571228	0.8616085978157151	-0.5075130920676114	-0.007815724535196245	0.5075728932440877	0.8615245621259209	0.012049352578741679
404														9.776788325903478	-0.08526193002583668	0.1354814629092937	0.0005754819436202263	-0.01440218948655242	0.9998961174834747	0.8616073675887794	-0.5075153305628832	-0.007805982345724438	0.5075750318300408	0.8615223538490695	0.012116966662173823
405														9.806139591964973	-0.1130916387910012	0.12498113604580649	0.000561499123082343	-0.014401509451908046	0.9998961352281754	0.8616000332857123	-0.5075279695282057	-0.0077937660111341844	0.5075874972463312	0.8615149195876317	0.012123364513298651
406														9.82097565870063	-0.07161994688040248	0.1665245685638669	0.0005436195044816183	-0.014392946457182254	0.9998962684049362	0.8616101166004968	-0.5075111578952063	-0.00777377537277002	0.5075704004859953	0.8615249663846943	0.012125215311023674
407														9.798306675259367	-0.09675478326321897	0.17192251231068048	0.0005266146734502208	-0.01436245632068428	0.9998967159289114	0.8616039933542863	-0.5075220116033772	-0.007743795839803003	0.5075808125933572	0.8615190813827038	0.012107481181868718
408														9.82627329854758	-0.10144906372317984	0.15293154973008014	0.0005124794717588643	-0.014355578094897237	0.9998968220483317	0.8616275455383502	-0.5074822730957793	-0.007727565146936011	0.5075408457792834	0.8615426047916048	0.012109087271447272
409														9.776756670758713	-0.08333812394829683	0.13891872366840052	0.0005281618630221807	-0.014332609739808932	0.9998971433818047	0.8616036716204412	-0.5075227683073311	-0.007729987052933207	0.5075813571194492	0.8615191326649165	0.012080975004886918
410														9.79941319313511	-0.05744615475107689	0.13455803603188726	0.0005209115887846449	-0.014310770738437506	0.9998974599887677	0.8616125807693968	-0.5075079101501171	-0.007712444162578325	0.5075662413035532	0.8615282485072288	0.012065973356947202
411														9.781791312056026	-0.05224562860814079	0.07814156819579372	0.0005293056811143115	-0.014301515882301497	0.9998975879953731	0.8616106392442926	-0.5075111671061818	-0.0077150245342033075	0.5075695284160959	0.8615264835778353	0.012053709697533943
412														9.798005977723925	-0.03387088533954948	0.12745981604846734	0.0005342873251872882	-0.014262974967643838	0.9998981358529111	0.8616103763541627	-0.5075118452271757	-0.007699760577137782	0.5075699694582927	0.8615267230325356	0.012017970083514296
413														9.783185528261438	-0.07464462190197071	0.08704335602095435	0.0005361098799128161	-0.014246085757392335	0.9998983756496407	0.8616144507033598	-0.5075050357285564	-0.007692662042777798	0.5075630511821605	0.8615310138066707	0.012002554890768957
414														9.832693325952976	-0.09227301658876368	0.102054913827322	0.0005630862715177432	-0.014229470226641783	0.9998985974142178	0.861605590000878	-0.5075198508156401	-0.007707678464329959	0.5075780631716564	0.861522561054056	0.011974413629508629
415														9.803576943977571	-0.12543944461590129	0.16116103028591913	0.0005876536356743678	-0.014265267596467623	0.9998980732072673	0.8615903990697611	-0.5075450349041009	-0.00774737213543486	0.507603820803207	0.8615071326951369	0.011992556916247565
416														9.800770953105445	-0.07951216909799481	0.14578734175865823	0.0006093535924860394	-0.014271662058462808	0.999897968969979	0.8615768737231608	-0.5075676540995133	-0.007769631737850224	0.5076267520074413	0.8614937006003041	0.011986845805708635
417														9.806583090962594	-0.061404684153775924	0.27158371884810917	0.0006903871535104411	-0.014263729056255281	0.9998980295005029	0.8615174690308112	-0.5076674452377938	-0.007836810606188849	0.5077274602779762	0.8614350300975353	0.011937964673038703
418														9.778279690738424	-0.1071847180008132	0.5160492390769632	0.000900866253214283	-0.014019463067121485	0.999901316678453	0.8613876225872528	-0.5078867982797622	-0.007897074560435202	0.5079473910686763	0.8613097322034867	0.011618653884314267
419														9.809426946285772	0.5836494732198996	1.7486280382599213	0.0009114501633931682	-0.013981223557898714	0.999901842505765	0.8606832309835641	-0.5090794846200439	-0.007902799673735805	0.509140005462439	0.8606059514823345	0.01156940408547874
420														9.842007713883376	0.38044085153732576	0.5717689121498456	0.0007675444915120622	-0.014160694299838572	0.9998994377498175	0.8588766092213462	-0.5121214407952057	-0.007912016828005908	0.512181980362349	0.8587963114818264	0.011769213113597798
421														9.90894047761454	0.02109312133051382	-0.17880127675948368	0.00050216375310147	-0.014510038882946108	0.9998945977467726	0.8568877217051503	-0.5154423932862129	-0.007910220877923924	0.515502842109063	0.8568013760347237	0.0121746376735406
422														9.953519977832004	-0.3063889801455306	-0.23463658482609678	-0.0004971956049891202	-0.015747588641127075	0.9998758754208046	0.8553109183833885	-0.5180573523721299	-0.0077338572099200364	0.5181148383232186	0.8552009080357486	0.01372666034169795
423														10.019021576353962	-0.008611748055367288	-0.1952165470774959	-0.002008010720681963	-0.01762419951156735	0.9998426653651675	0.8537824077196617	-0.5205765323863114	-0.00746151439462811	0.5206261308860354	0.8536330953754196	0.016092554751084787
424														10.110725234918545	-0.259016425660678	-0.09615645853810413	-0.0037635534128839243	-0.01995280609600708	0.9997938393461944	0.8522277885332923	-0.5231209203264414	-0.007231816401946922	0.5231573684058773	0.8520248753679158	0.018973129339279304
425														10.185665732499569	-0.19234266266591088	-0.2754295718658443	-0.006269786912142417	-0.023180992438815717	0.9997116241004846	0.8505433774830218	-0.5258601660319547	-0.006859212827977967	0.5258675239942574	0.8502550954686465	0.023013470788922907
426														10.253488611982837	0.03953881571647337	-0.48910866107656265	-0.010094478576735622	-0.02823420671961263	0.9995503644505253	0.8486547418252097	-0.5289088382496155	-0.006369458299452457	0.5288508586358258	0.8482088601237056	0.02930015235102934
427														10.813869792539725	0.22346025922950508	-0.43678027916551765	-0.015004426186638609	-0.03523538407185889	0.9992663983663811	0.8467622861948095	-0.5319371408108784	-0.0060422598494146995	0.5317598122018529	0.8460504393564587	0.03781740593686783
428														10.977748360260284	0.2965368099297901	-0.3039833911732457	-0.01943080751751025	-0.04302496211727891	0.998885026594164	0.845208163256004	-0.5343967705320236	-0.006576656472346676	0.5340838927402969	0.8441379888855554	0.046748809991491336
429														10.562413296099074	0.23427982336575562	-0.06500048820666642	-0.02347609244113913	-0.05171953352442493	0.9983856784508229	0.8441972493073876	-0.5359742180442286	-0.007914660682364294	0.5355183258727327	0.8426486381902556	0.056244068225654364
430														10.060228309429451	0.10036470791152294	0.3825091347627084	-0.027598049425444637	-0.06120517838264322	0.9977435912132232	0.843740671020418	-0.5366654929221217	-0.009582733048079273	0.5360410690739333	0.8415723824162749	0.06645221907709109
431														9.468363236037373	-0.08346694550733405	1.0028031633121455	-0.031774590574631445	-0.07077558149622615	0.9969860542944851	0.8437502402170629	-0.5366190588306745	-0.011203474163396065	0.5357946505215065	0.840851236999478	0.07676776477783187
432														9.039866241035906	-0.2864484537087523	1.031639702119813	-0.03623030367555857	-0.08009719289246503	0.9961284077800031	0.8441702589203715	-0.5359319547565026	-0.012390069619953259	0.5348494545663199	0.8404530799286902	0.08703264553309098
433														8.625224963360019	-0.5128629947300543	1.1168122324514378	-0.041211721799882806	-0.0889258354986257	0.9951853042359301	0.8449755424734415	-0.5346521547091801	-0.012783039018347375	0.5332147096695691	0.8403804312605705	0.09717409194993792
434														8.489111430794631	-0.7106905957780341	1.3928145881548775	-0.046912676332766634	-0.09705536256089436	0.9941727502790804	0.845982246685921	-0.5330732788269321	-0.012120960892004429	0.5311433319656179	0.8404838701598487	0.10711500786343658
435														8.338372557810128	-0.9224000656069716	1.8253615571656772	-0.053142100951579285	-0.10365874167856415	0.9931922182438147	0.8469792749504916	-0.53152888285274	-0.010156500266232715	0.5289631602586251	0.8406734871321536	0.11604336742043103
436														8.407156832551232	-0.9965440495805928	1.8146478280723175	-0.059568382853344315	-0.10728921349466741	0.9924417526645749	0.8479631503012184	-0.5300165229876936	-0.006401647543343825	0.526697354745086	0.8411726992881613	0.1225495266282075
437														8.7476725452674	-0.802125431904958	1.4360525998233522	-0.06626562749943943	-0.10794667191467039	0.9919457558932605	0.8489305204946189	-0.5285038585733103	-0.0008017766882147948	0.5243337086101187	0.842039896617535	0.12666086419841838
438														9.028429679653723	-0.48126772746435736	1.1458287865892876	-0.07326570904052032	-0.10616130479084013	0.9916460624859542	0.8498439175546488	-0.5269959443336283	0.0063710635906099045	0.521917092720825	0.8432111550620133	0.1288312706792425
439														9.329844897261866	-0.19532066231060324	1.0772368827036773	-0.08063057227078319	-0.10282671863422216	0.9914259310458877	0.8505739183349752	-0.5256511994249142	0.0146569434547823	0.5196371043945704	0.844462836647101	0.12984528200269269
440														9.679137477476754	-0.019743776699819065	1.1621476814452396	-0.08836485286479184	-0.09859583562571372	0.9911965062365038	0.8510253476442484	-0.5245901166904461	0.023686855800019446	0.517636465528821	0.8456264368312831	0.1302628837653234
441														13.965778798137015	1.1087289708301076	2.0222962210365854	-0.09438272758519978	-0.09457301897261339	0.9910337253676005	0.8512938944202348	-0.5237671181134442	0.03109198137732966	0.5161304157443241	0.8465955055783982	0.12994400285526114
442														9.200456250126921	-0.24685823784503502	0.6658988004093404	-0.09834169548215205	-0.08871325223733884	0.9911906324250498	0.8520021551271166	-0.5221721326401783	0.037796713517935454	0.5142190570062962	0.848213547858959	0.12693517495191448
443														9.864421715114792	-0.29181402279909124	1.3159234912044127	-0.10393904708344098	-0.08358285695740164	0.9910653765086462	0.8523911052870242	-0.520924717843041	0.04546253367019076	0.5124705631730971	0.8495006441215842	0.12538970259978294
444														9.964081903792867	0.27659473957949265	1.205820036509317	-0.1101676303404665	-0.0790723484983133	0.9907626642784473	0.8525131262118859	-0.519981692802153	0.05329548561598979	0.5109642481246639	0.8505096136161945	0.12469536593165043
445														9.975450506279069	0.5246034911274482	1.2330415391417986	-0.11693401115071361	-0.07479944462944782	0.9903188779980568	0.8523813584221485	-0.5193006437375863	0.06142362109270938	0.509678778105011	0.8513118608928539	0.12448155948785472
446														9.786926246519288	0.7581663866279026	1.3400717052337656	-0.12402911817297768	-0.07046507363991122	0.9897734342980496	0.8520162519957759	-0.5188373675800079	0.06982902217357972	0.5086109359621597	0.851963883858682	0.12438832911542097
447														9.889486713088013	0.8863142893725604	1.2809166588056136	-0.13149366159409165	-0.0659161360157649	0.989123086361515	0.8514062627522698	-0.5185799621790963	0.07862695830654676	0.5077566274375855	0.8524845370087821	0.12431138907650768
448														9.696235157449014	0.8620948172369542	1.3881394239666878	-0.13872144992612806	-0.0609869844404039	0.988451792987022	0.8507656754764636	-0.5182227075086703	0.08742420061664674	0.506906426040812	0.8530684692046995	0.12377423838295931
449														9.590503492031358	0.8877115266893063	1.3158485996535458	-0.14591737115245418	-0.055731627261956684	0.9877257243378299	0.8499910675116856	-0.5179116158167272	0.0963469945169606	0.5061850510893238	0.8536167429970201	0.12294368681985068
450														9.45320003406363	0.7485929521845045	1.306469716905035	-0.1527347544888613	-0.04992037858515408	0.9870055980454936	0.8490833674265997	-0.5176760411940682	0.10520908484129926	0.5056970732866995	0.854119120600606	0.1214536862088349
451														9.641658183525298	0.8951385608341548	1.3860524103789218	-0.15891477113392066	-0.04336387142844789	0.9863395308767622	0.8480718870911181	-0.5174978382718787	0.11388617874721568	0.5054900294181517	0.8545850232941541	0.11901373080517469
452														9.712520784687756	1.114174889278684	1.340501628207224	-0.16416489692213065	-0.03613399949709911	0.9857708763698033	0.8470258477541999	-0.5173392073610537	0.12209569101043638	0.5055661181831962	0.8550172387778977	0.11553536920698426
453														9.812537599611932	1.3654114157721342	1.2297588835312963	-0.16822809149494317	-0.028597526989666333	0.9853331876487487	0.8460668654110891	-0.5171223747947024	0.1294422988830976	0.5058361083250412	0.8554335923593148	0.11118993019970147
454														9.786516604172958	1.5985393815165283	0.9954293636381353	-0.17136469655093428	-0.021319316521289433	0.9849769680145174	0.8451653217374275	-0.5169526065389134	0.13585132139620354	0.5062901536752195	0.8557484965430491	0.10660577355769302
455														9.751296926859427	1.6574485443691154	0.9658023022577416	-0.17336570923992584	-0.014356674402531633	0.9847528709071313	0.8443976984780904	-0.5167950756044433	0.14112185031348468	0.50688939391611	0.8559887474325216	0.10171728763716248
456														9.754448233902316	1.7733301577585308	1.0302430408025116	-0.17422538386911285	-0.007505450480967346	0.9846771977804389	0.843758459218892	-0.5166662436593923	0.14535355227669616	0.5076585251054304	0.8561539936693461	0.09634916196733495
457														9.548978827109732	1.7699247044528348	0.8971010856668117	-0.17392755656808495	-0.0007332573774714857	0.9847581771175472	0.8432819089373136	-0.5165335377132723	0.14855546599318592	0.5085516956271964	0.8562666446563422	0.09045775878095469
458														9.582078513295954	1.8661067630050168	0.7226113267660772	-0.17262428325348678	0.005651963292134743	0.9849715285946923	0.8429997452336317	-0.5163712305446708	0.1507056130401741	0.5094627428647283	0.8563461961010437	0.0843736099501553
459														9.48440186887926	1.8628976449775998	0.6666298265946918	-0.17036033413594381	0.011412749465326943	0.9853157390921611	0.8429370593836931	-0.5161759039188125	0.15172195006382333	0.5103278068757983	0.8564065537834462	0.07831566999074618
460														9.529483236711512	1.8481112587773099	0.6798879102903035	-0.16709415278695378	0.016530694905266208	0.9858023535325726	0.8430837735524492	-0.5159850986189589	0.1515556952930034	0.5111646455663503	0.856438038698149	0.07228133226425165
461														9.592788333602737	1.7707665725629222	0.6858632044366482	-0.1629075775257644	0.021177745650591218	0.9864140227479774	0.8433863662283048	-0.5158400508408247	0.15036116256783966	0.5120161701010078	0.856423110989945	0.0661732311240864
462														9.725718613471395	1.735204507862739	0.7975273003846921	-0.15758926602700746	0.02560442328768109	0.9871727491889025	0.8438455000198012	-0.5157473469747492	0.14808594188794794	0.5129233815389996	0.8563580370362704	0.05967006849321521
463														9.87200187819248	1.8331532067337555	0.7832398739446957	-0.15107112107683168	0.03002681801492829	0.9880667520853479	0.8444695134184652	-0.5156628037625208	0.14478644177738886	0.5138567478231366	0.8562652994345122	0.05254502546345502
464														9.90833896682562	1.768018248367179	0.6181860233236217	-0.1432502080871072	0.03449130919600585	0.9890852983807547	0.8453014258493239	-0.5155119491517561	0.14040274120848772	0.5147279644045978	0.8561879349019719	0.04469164114458568
