// Start Time: 1747398475.5038033
// Update Rate: 100Hz 
// Filter Profile: 46.1 human
// Option Flags: AHS Disabled ICC Disabled 
// Firmware Version: 4.0.2 
PacketCounter	SampleTimeFine	Year	Month	Day	Second	UTC_Nano	UTC_Year	UTC_Month	UTC_Day	UTC_Hour	UTC_Minute	UTC_Second	UTC_Valid	Acc_X	Acc_Y	Acc_Z	Mat[1][1]	Mat[2][1]	Mat[3][1]	Mat[1][2]	Mat[2][2]	Mat[3][2]	Mat[1][3]	Mat[2][3]	Mat[3][3]
0														9.724914708558883	-0.059057364695512586	0.014709617606470413	0.006322410492985153	-0.0031032132793433753	0.9999751982888885	0.9647384246174547	-0.2631196282962863	-0.006916160195979459	0.26313456479943964	0.964758224257543	0.0013302387915148928
1														9.783709850429373	-0.06768133836045699	0.009819942684056197	0.006327041953190837	-0.0031273988907848937	0.9999750936479873	0.9647352401840916	-0.2631310185058072	-0.006927008520285216	0.26314612839079754	0.9647550396221183	0.0013522709267808075
2														9.79759167301863	-0.04952573364785318	0.02023098614601879	0.006336340495330217	-0.0030986344790232545	0.9999751243173468	0.9647361914340427	-0.2631274940741345	-0.006928405271422133	0.26314241719355314	0.9647560936975896	0.0013220994298023814
3														9.733592715507884	-0.07817444876932698	0.039815097087835365	0.006355556256458783	-0.0030714661406607835	0.99997508618986	0.9647233632594089	-0.2631742213122069	-0.006939857215255585	0.263188980176081	0.9647434349776423	0.0012904965765562215
4														9.788252517527988	-0.07060056666666115	-0.044485284821325785	0.006369394895460567	-0.003081956045454637	0.999974965864446	0.9647293289997756	-0.26315192699665835	-0.006955938871829326	0.26316677711350434	0.9647494829565236	0.001297134847195125
5														9.770545918750917	-0.0361949994215161	0.038701422022623506	0.006377219544519641	-0.0030716742272241526	0.9999749476303509	0.9647274887849067	-0.2631585449412267	-0.0069607907010859615	0.26317333347748006	0.9647477105657511	0.0012851087474887168
6														9.774544298673428	-0.06870705304485882	0.03163644973297325	0.006364607841480796	-0.003080322426104287	0.9999750013779221	0.9647247853072227	-0.26316871664327546	-0.00695091319641461	0.2631835488417862	0.9647449083535411	0.0012966977136202873
7														9.801612595642803	-0.07834106407344232	0.013124787514941894	0.0063879134351774725	-0.0030869948252688073	0.9999748321957378	0.9647232418941181	-0.26317373290556945	-0.006975160059212615	0.26318864168358086	0.9647435186470534	0.0012969646313303884
8														9.761358728082605	-0.03912862470654626	0.06078128041419648	0.006400830359798104	-0.0030684672595456264	0.9999748066223381	0.9647302726638061	-0.2631477584036499	-0.006982711017442966	0.2631625550429314	0.9647506629983789	0.0012758790948585452
9														9.801627095161049	-0.07650772394308943	0.013112842256537747	0.006401063512652627	-0.003073492695735036	0.9999747896964986	0.9647170236112661	-0.26319628338684686	-0.006984322871306237	0.26321111439399175	0.9647374098965998	0.0012803145992671405
10														9.774569767187954	-0.06488567103492845	0.03183533160690439	0.006393341284215426	-0.003063598103694498	0.9999748694611694	0.9647173004303233	-0.26319553537722884	-0.00697426755462216	0.26321028748446196	0.9647376454374283	0.00127280721005113
11														9.76589925202671	-0.04184273437403959	0.006725879420076672	0.0064169803699072325	-0.003055592068549051	0.9999747425410518	0.9647145286300114	-0.26320514532782535	-0.006994978422628473	0.26321987123526014	0.9647350490316338	0.0012587918112686447
12														9.769918550757277	-0.07436459907504696	-0.0003901688550708389	0.006392969921707126	-0.0030517570085222268	0.9999749080425668	0.9647190849165653	-0.26318908671556074	-0.006970784143338182	0.2632037559255644	0.9647394422397112	0.0012615283135551936
13														9.760732890887878	-0.07905204272898995	0.021563806220298375	0.006403011007786674	-0.0030510695195660187	0.9999748458960462	0.964722271674332	-0.2631771538348865	-0.006980274699854905	0.2631918311527756	0.964742699725764	0.0012583085049492904
14														9.774595259062508	-0.060825187341697735	0.032024764735201834	0.006391902131816396	-0.0030536629912767954	0.9999749090499591	0.9647206365275645	-0.26318341341624196	-0.006970248232845033	0.2631980946834328	0.9647409839148082	0.0012636890834111236
15														9.801672571979537	-0.07037316487932697	0.01347170392999678	0.006401947370956673	-0.003052977111297317	0.9999748468839693	0.9647238226793249	-0.26317148238296756	-0.0069797432146535	0.2631861717964123	0.9647442408177982	0.0012604697696108058
16														9.760756050576878	-0.07608839198913485	0.021741280005865494	0.006407429995513636	-0.0030357350876381584	0.9999748642607624	0.9647172201873899	-0.2631956635910184	-0.006980525825371564	0.2632102390006281	0.9647376985374632	0.0012422181253893827
17														9.760764113140771	-0.07504305339486543	0.021755159354798492	0.006399142242336342	-0.0030378831137468643	0.9999749108076409	0.9647175318301359	-0.2631947182854726	-0.006973094449471473	0.2632092983884363	0.9647379496696591	0.0012464786597419786
18														9.783310913358699	-0.07882240348804695	0.057358660114340834	0.00639450133489905	-0.0030454971536209574	0.9999749173353125	0.9647251985447933	-0.263166681478474	-0.006970584790116918	0.26318130945298296	0.9647455740798683	0.0012552481501795776
19														9.756124290719175	-0.08454216316868679	-0.010259331911979705	0.006418154872319781	-0.003037491760366884	0.9999747901481522	0.9647224260358374	-0.2631762950719114	-0.006991310016792707	0.2631908964830729	0.9647429768368507	0.0012412301996301833
20														9.787863387740899	-0.08259092400911257	0.0033507515968691625	0.00639757048462547	-0.0030358653470094477	0.9999749269924167	0.964730297355872	-0.2631479787272325	-0.0069709866893435946	0.263162543792891	0.964750706044503	0.0012452835371585813
21														9.769983535038149	-0.06527144777038367	0.00016000589063116036	0.006421226325784624	-0.003027861484941996	0.9999747996361213	0.9647275246884948	-0.2631575935323963	-0.006991714714420505	0.26317213180897936	0.9647481085864155	0.0012312668480473632
22														9.77463994779576	-0.052932393506785136	0.03240048284517878	0.006432255724770464	-0.003030149098401158	0.9999747218218735	0.9647335898163578	-0.26313505975162066	-0.007002928641316297	0.26314962809461745	0.9647542477366728	0.0012307346229041283
23														9.774644674393036	-0.05201302987343197	0.032463405491295894	0.006442312108744408	-0.0030294760366499918	0.9999746591237386	0.9647367725015876	-0.26312313750762356	-0.007012438332337612	0.2631377137506407	0.9647575015427909	0.0012275255591124301
24														9.801732473664805	-0.061395455015435946	0.013794142258246732	0.006411144392702017	-0.003002788145473112	0.9999749399314608	0.964722288452093	-0.26317722120542386	-0.006975414134474833	0.26319157165709545	0.9647428328326384	0.0012095894854195488
25														9.779197783303012	-0.0554843960550847	-0.021467648718878685	0.006420206459722966	-0.003046183134991165	0.9999747505398932	0.9647291411081632	-0.26315156592774336	-0.0069955447594295395	0.2631662312032438	0.9647496950598552	0.001249254256022736
26														9.78791137837628	-0.07666386658172356	0.003954144632400489	0.006425236354437813	-0.0030576868163263993	0.9999746831240892	0.9647238290980593	-0.2631708290443604	-0.007003449898596026	0.2631855807375618	0.964744404125485	0.0012588885554256635
27														9.76083310615574	-0.06517704218406475	0.022579456452022285	0.006435964519188486	-0.0030276497412478065	0.9999747055289707	0.9647245656856116	-0.2631680638943755	-0.007005891006403697	0.2631826185815003	0.9647452531539763	0.0012271077598656754
28														9.787925733272475	-0.07481141613286439	0.0038991999218674703	0.006456898361377472	-0.003041104321042154	0.9999745297496629	0.9647167717004477	-0.2631959996435962	-0.007029663681476894	0.26321067391619474	0.9647375899466741	0.0012343745241802373
29														9.769558286695904	-0.08549392676527491	0.047750577550508405	0.006466963632099532	-0.0030404473445319047	0.9999744667046889	0.9647199535445368	-0.2631840821448784	-0.007039185932026848	0.2631987644621624	0.9647408432244919	0.0012311783331930282
30														9.770036952751674	-0.056710305128413636	0.000759404358638394	0.006472995639866863	-0.003022755615408601	0.9999744813123665	0.9647135811938903	-0.26320740744853294	-0.007040378134881009	0.26322197208346115	0.9647345353063257	0.001212352994019783
31														9.787946169960971	-0.07208895845062836	0.0038818049674850573	0.0064991968900223185	-0.003009678838438501	0.999974350807597	0.9647146098432211	-0.26320305236331154	-0.007062207988893898	0.26321755639551714	0.964735764372777	0.0011928726870135686
32														9.77876920927695	-0.07679875837150761	0.025671353247379066	0.006471645070592724	-0.0029869102785229917	0.999974597765898	0.9647105823694495	-0.2632186851915302	-0.0070296536501454066	0.26323299579361076	0.964731569988788	0.0011780460477714971
33														9.760869475967308	-0.059453599614930214	0.022652529535671536	0.0064807116037755574	-0.0030303265908301347	0.9999744084214666	0.9647174283600808	-0.26319305420921957	-0.007049796758457072	0.26320768187008037	0.9647384274179069	0.001217730595349964
34														9.760874402220969	-0.058608164208264965	0.02273278950073218	0.006504764756149528	-0.002994961597126533	0.9999743587915144	0.9647109486124524	-0.26321643082970747	-0.00706372200284211	0.2632308372184587	0.9647321601078214	0.0011771112809212947
35														9.787974269672716	-0.06815982829133925	0.004010373184127155	0.006501235073776257	-0.0030016594653053397	0.9999743616628233	0.9647200842291539	-0.2631829908876394	-0.007062038822604699	0.26319744114905597	0.9647412623848386	0.0011847466810164797
36														9.774165631935835	-0.08440155544783423	-0.006313961091195361	0.006506405760634049	-0.002983638752618367	0.9999743819637934	0.964714161480722	-0.2632046929863705	-0.007062310422012719	0.26321902158207416	0.9647353976556179	0.0011658420267211533
37														9.760892112779372	-0.05559388932795904	0.02270024833673846	0.006498153344114133	-0.002985813025597528	0.9999744291349115	0.9647144653077865	-0.2632037775696413	-0.0070549201967216035	0.26321811189397226	0.9647356406776142	0.0011701185091007038
38														9.792625695937886	-0.05349762573474	0.03634840399622322	0.006489873323581086	-0.002975731590720121	0.999974512958077	0.9647133982772631	-0.2632079733848356	-0.007044283567662124	0.26322222688932984	0.9647345270944474	0.0011625417302205676
39														9.756275619941508	-0.06489323218237088	-0.009420454252208825	0.006484154688038701	-0.0029728322600300894	0.9999745586795372	0.9647175060836295	-0.2631930854259289	-0.007037985490320475	0.26320731219661025	0.9647385977830125	0.0011613586451773017
40														9.783382373301661	-0.07436830909764035	-0.02803487075591019	0.006490547433291083	-0.002965606107895924	0.9999745386630746	0.9647177176135848	-0.263192196009418	-0.007042249795038091	0.26320637932324475	0.9647388626670705	0.0011527113234791053
41														9.778836799318611	-0.067467201611568	0.026141234672726842	0.00645070708758233	-0.0029632658456155148	0.999974803399365	0.9647198776018922	-0.2631853208127003	-0.007003189880788407	0.26319944175066284	0.9647407454670112	0.0011609900495699321
42														9.774220092916897	-0.07786280467450345	-0.006018043949078648	0.006474176752155614	-0.0029569739668891537	0.9999746703493755	0.9647177265812703	-0.2631926458846448	-0.0070241848001293405	0.26320674963847007	0.96473876643224	0.0011486894935726077
43														9.774227707116335	-0.07689960669150686	-0.0060404848269163414	0.00646627078046319	-0.002944470221857287	0.999974758400084	0.9647168074421155	-0.263196305960339	-0.0070132708149637235	0.263210312831557	0.964737806154576	0.0011386813292814102
44														9.778857840469495	-0.06429951362783706	0.026252210194134998	0.0064581929019978945	-0.0029475184986942904	0.9999748016220912	0.9647156206379943	-0.2632008420597116	-0.007006285471522711	0.26321486098146185	0.9647365593123124	0.001143715327819983
45														9.765066989984907	-0.08045740939905426	0.01589698434446999	0.006450629725815615	-0.002920326449374122	0.9999749302205381	0.964713481074163	-0.2632090682160622	-0.006991841145454092	0.2632228880813965	0.9647343976982794	0.0011194140553099086
46														9.788049717614637	-0.056272592089400435	0.0042757496010417916	0.006445054806566097	-0.00290375160085915	0.9999750144354513	0.9647157601166072	-0.2632009737687773	-0.006982090647114969	0.26321467180075175	0.9647366561055967	0.0011049502317312387
47														9.783437639451328	-0.06673327409303642	-0.027962269726702065	0.00645042472546653	-0.0028985857005202065	0.9999749947982692	0.9647101049789117	-0.26322159877999685	-0.006985934961068085	0.2632352662020023	0.964731044455728	0.0010984038063919233
48														9.788060954288515	-0.054277799203211255	0.004336735065296548	0.00645821344646047	-0.002903637168033435	0.9999749298708824	0.9647082038206327	-0.2632283313856945	-0.0069947864207148824	0.26324204253927297	0.9647291922851196	0.0011011778476758827
49														9.774275499714523	-0.07058840349338986	-0.005747734843402859	0.006449305855641907	-0.002935216917929029	0.9999748951626863	0.9647109395009938	-0.2632183129188976	-0.006994494351956704	0.2632322352241279	0.964731830223184	0.001134060463714448
50														9.77428267080758	-0.06961178628782295	-0.005454327045591317	0.006454076854226776	-0.002945692774107944	0.9999748335763458	0.9647069518179789	-0.2632327314482342	-0.007001871775847379	0.26324673218489025	0.964727864212692	0.0011428060177869348
51														9.769679894164659	-0.08002436087402245	-0.037488967040381134	0.006427527115777543	-0.0029507001474802785	0.9999749898191532	0.9647043709711685	-0.26324283444241164	-0.006977588684293434	0.26325683946347533	0.9647250921808579	0.0011545528732867516
52														9.778907126696536	-0.05596451235641127	0.02697430978041483	0.006450787673927205	-0.002928889835771664	0.9999749041564574	0.9647006881819395	-0.2632558868406272	-0.006994302327444524	0.2632697657530744	0.9647215969636449	0.001127294210257701
53														9.765129389339332	-0.07235561413908252	0.01649442443021677	0.006461226767578876	-0.002913593191127717	0.9999748814462166	0.9647026448303577	-0.26324855618014037	-0.007000337590748973	0.2632623398930634	0.9647236436637119	0.0011098424397230078
54														9.78308003794572	-0.08756982102756498	0.019785337411858426	0.006449679295484068	-0.0029215916232496753	0.9999749326555005	0.9647008733066358	-0.26325528791016684	-0.006991310946435791	0.26326911455467	0.964721782530965	0.0011205498105334444
55														9.774317606621796	-0.06453373240158887	-0.005291582925940872	0.006462650006321458	-0.0029012319284899557	0.999974908189297	0.9647066364700636	-0.2632339784133292	-0.006998439776643828	0.2632476774931019	0.9647276587006242	0.0010976486230961924
56														9.75637734553623	-0.047343299127787807	-0.00857526115533565	0.006467595026746653	-0.0028966072279283384	0.9999748896253036	0.9647011411321951	-0.26325402195479775	-0.007002015628694902	0.2632676936367461	0.9647222033265281	0.0010917398950283097
57														9.751381720636079	-0.08569251551339074	0.006161191470212104	0.0064780397429284875	-0.0028813164834493032	0.9999748661923522	0.9647030969329544	-0.2632466939745234	-0.007008058179806598	0.2632602700163034	0.9647242487502878	0.0010742923890660339
58														9.796889387027786	-0.06629355110082201	0.030055318466455663	0.006470756781094267	-0.002869068599212876	0.9999749485622393	0.9647017518475391	-0.26325189569902885	-0.006997813455422497	0.2632653780673964	0.9647228658305145	0.0010643565146010725
59														9.774343310073311	-0.060530040145243685	-0.005126409836711311	0.00646152001148409	-0.0029153613746060736	0.9999748743979506	0.964705696788321	-0.26323735213660343	-0.007001073079939191	0.26325114879768713	0.9647266955506963	0.001111552307678343
60														9.774349480720998	-0.05954171482318349	-0.004929646013711838	0.006469517737017982	-0.0028912242331159965	0.9999748927661556	0.9647031748544794	-0.26324655779430733	-0.007002444939880503	0.2632601940399233	0.9647242562680189	0.0010860949220440341
61														9.787737804676462	-0.06899741205638159	0.05236449280860172	0.006463836276680512	-0.002888376838374007	0.9999749377358553	0.9647072749947967	-0.26323169792372825	-0.006996197560448947	0.26324530839637394	0.9647283195218386	0.0010849515506942686
62														9.765191463372728	-0.06329212105942372	0.01700527716129872	0.006470639180039817	-0.0028931415020782003	0.9999748799649176	0.9647058551907222	-0.2632366932217374	-0.007004020447079984	0.2632503443290054	0.9647269422349178	0.001087720886165433
63														9.692582874122962	-0.07020019169746017	0.011600203151718814	0.006465987735430445	-0.002846213094636285	0.99997504472543	0.9647063056171035	-0.2632354901013617	-0.006987177806252798	0.2632488079843963	0.9647274101123676	0.0010436822690001457
64														9.873742735545388	-0.08543554291995574	0.028267903265509948	0.006445675300009834	-0.0027823328107362544	0.9999753556433564	0.9647056537646056	-0.2632388428938546	-0.006950768771118665	0.26325169489393957	0.9647266816130022	0.0009873800855280113
65														9.855789052818677	-0.06820936702557762	0.02513195214089682	0.006467683708787253	-0.002847847505377421	0.9999750291042422	0.9647089526903585	-0.26322573432699115	-0.006989233655315896	0.2632390656162482	0.9647300671963133	0.0010448831906942901
66														9.66125466603177	-0.04023608102852462	-0.04892291875671628	0.006428243397954891	-0.0028317435392489765	0.9999753291533473	0.9647090175650731	-0.2632266159975041	-0.006946946029359746	0.26323979394356195	0.9647298740367851	0.0010397237712931884
67														9.706370795089697	-0.04845913373777053	0.021993564896022524	0.006443419594481026	-0.0028210536577851775	0.9999752616941029	0.964719801602492	-0.26318677866462736	-0.0069587306446692865	0.26319989882212735	0.9647407740903235	0.0010257034783924812
68														9.905863888222509	-0.052485324162326596	-0.004561487685506095	0.006463602934885515	-0.00284798155031718	0.9999750551079709	0.9647156311926532	-0.26320136100996017	-0.006985305652976781	0.26321468950205085	0.9647367167075138	0.0010462632294493956
69														9.665854710675246	-0.02582783974492201	-0.01644309895228392	0.006455752765087086	-0.0028355083673984316	0.9999751412652887	0.9647147053317884	-0.2632050423539066	-0.006974453102481182	0.2632182755297142	0.9647357490897579	0.0010362699391595065
70														9.796962729176693	-0.05391134748699969	0.03089713039452446	0.006465291297422293	-0.002849563296272284	0.9999750396872215	0.9647190013912377	-0.26318895393120745	-0.006987337353385192	0.2632022955126584	0.9647400968746025	0.0010474346041518534
71														9.79660650297456	-0.08086146752288363	0.07804071621335865	0.006488680048221951	-0.0028562999629755947	0.9999748689750925	0.964717435299383	-0.2631940469902534	-0.007011680131980613	0.26320746011580426	0.9647386875104647	0.0010477404132110957
72														9.760667645270816	-0.06476095865703169	-0.01475435731993011	0.006477492047977207	-0.002835598930669758	0.9999750004252471	0.964712469066559	-0.2632126813002734	-0.006995457828067764	0.2632259374079081	0.9647336646875267	0.0010305795956396802
73														9.77829492225682	-0.09046591103946994	0.12165986309552392	0.006501570111469568	-0.002812946964115548	0.999974908142931	0.9647084733000473	-0.26322686609742696	-0.007012738952794806	0.2632399877092734	0.9647298607868966	0.0010022858460710937
74														9.792050701233787	-0.0895009999367479	0.04549089297601599	0.0065114937209740376	-0.0027837967379973905	0.999974925148247	0.9647091507547736	-0.26322433269869133	-0.007014636507404526	0.2632372597097988	0.9647306365774071	0.000971570597412319
75														9.751523328807194	-0.06764249044851318	0.0066256949060720695	0.0065172601397421315	-0.0027639409489564892	0.9999749426614153	0.964702273539056	-0.26324952656611333	-0.0070149975974941325	0.26326231927271054	0.9647238192317774	0.0009507144710907411
76														9.815317657705682	-0.036471224600339684	-0.01329822342199948	0.0064979416912913646	-0.0027408584021408333	0.9999751319152869	0.9647095709303617	-0.26322344128264463	-0.006990258555958084	0.2632360547287046	0.9647310027435321	0.0009337217598744951
77														9.742377577035052	-0.07122123603146885	0.028416771816220668	0.006505547385335486	-0.002745351175759636	0.9999750701393211	0.9647089286439097	-0.26322556878599435	-0.00699878075173499	0.2632382207202029	0.9647304094845423	0.0009360383807491823
78														9.779021363718186	-0.029724194172050987	0.027238285070078135	0.006495180532250677	-0.0027248106260197025	0.9999751937107775	0.9647025474511567	-0.26324936302702706	-0.006983395099404988	0.26326186121636264	0.9647239751726491	0.0009187796143826366
79														9.77869763806297	-0.07366554592977179	-0.012081877748082693	0.006489528226393038	-0.0027220069498186117	0.9999752380442055	0.964706639816976	-0.2632345302450231	-0.006977189958909502	0.2632470040027797	0.9647280304649847	0.0009176702639315804
80														9.751559092230405	-0.06226796776265929	0.006678308511042486	0.006493675502503515	-0.0027327110090935025	0.9999751819265359	0.9647030325590269	-0.26324756868350335	-0.006984021308731769	0.26326012069792276	0.9647244424563756	0.0009268103097263003
81														9.68353972824521	-0.05763919950209179	0.03358282772447527	0.006459672810154027	-0.0026909607240060973	0.9999755153790353	0.9647103600758675	-0.26322187360764304	-0.006940202934471618	0.26323410453335144	0.9647315709485533	0.0008956705090248374
82														9.815017643348074	-0.0574890609281467	0.03333430359559189	0.006471014330340863	-0.0026025015543728047	0.9999756761837739	0.9647064842683549	-0.2632364029005084	-0.0069278711442539165	0.26324802978204165	0.9647278492785727	0.0008072435893853314
83														9.891887502121248	-0.08192216212021618	0.031114522724422763	0.006494762552592848	-0.002594557548222687	0.9999755428661818	0.9647036993854389	-0.2632460597649894	-0.0069486984577675215	0.2632576503189124	0.9647252356445006	0.0007932586139595132
84														9.783001988914027	-0.10191332969410406	-0.01981867623651661	0.006503610345956479	-0.0026248341171327683	0.999975406346739	0.9647092539949196	-0.26322526745349895	-0.006965187047019872	0.26323707624313486	0.9647308271325695	0.000820287190271829
85														9.692405179716484	-0.0756650279518523	0.058120900223303976	0.006511575775125511	-0.002614637435347844	0.9999753812229611	0.9647073954578329	-0.26323194631054536	-0.0069701930049782534	0.263243690389512	0.9647290324814756	0.00080830530548609
86														9.806196062702057	-0.03178273080207643	0.008144738647495936	0.006504707525573417	-0.0026132341290851513	0.9999754295918444	0.9647117959090157	-0.2632160042619378	-0.006963184212795737	0.2632277333679119	0.9647333860231885	0.0008088746660264157
87														9.76991084792785	-0.04345315038559597	-0.0375281094078136	0.006501244760370284	-0.0026201033003036	0.9999754341358904	0.9647209033067794	-0.26318266379297683	-0.006961623502126368	0.2631944386561354	0.9647424633224815	0.0008166535086214788
88														9.778763240324942	-0.06432248733451844	-0.012337220486353008	0.006487672245923115	-0.0026040855778315386	0.9999755641250107	0.9647112301111977	-0.2632185756903581	-0.006944343660808983	0.2632302273793222	0.964732709173812	0.000804514752986929
89														9.751313062525432	-0.08056575992610811	0.053154737851413246	0.006485258381104642	-0.0025668615482913326	0.9999756760269337	0.9647167030081533	-0.26319883649225795	-0.006932200675184852	0.26321022845020614	0.9647381943775806	0.0007693817496876032
90														9.755909511458944	-0.08526282071132162	-0.0011695269151112643	0.006495046037034713	-0.0025379586014658284	0.9999756862759791	0.9647175569263269	-0.263195658287475	-0.006934033221961455	0.26320685731013416	0.964739137914888	0.0007389453042614402
91														9.805645795227386	-0.09918815734158254	0.015550410574540117	0.006487237440325033	-0.002525514168402243	0.999975768470706	0.9647166225086161	-0.2631993677414929	-0.006923227285572153	0.26321047472690395	0.9647381585687718	0.0007289687059561234
92														9.774203667010138	-0.05423125154258897	0.04111942937135315	0.006495407943822029	-0.0024872931647721974	0.9999758112316294	0.964712336118142	-0.2632151353152248	-0.006921060790395339	0.263225983172482	0.9647339560281373	0.0006898327187374043
93														9.769647798885948	-0.06470711052532208	0.008779438699114852	0.006485079211623834	-0.002479888916128603	0.9999758966588057	0.9647075913164579	-0.26323283755300864	-0.006909159875788717	0.26324362671110735	0.9647291450893121	0.0006852818603790278
94														9.796815568802367	-0.0738521360571693	-0.00991650145938302	0.006463685879116388	-0.002447034789844982	0.9999761161075769	0.9647106286831281	-0.2632224731263909	-0.006879865335225499	0.26323302161898404	0.9647320569266704	0.0006592930879076309
95														9.787930607884741	-0.03343237832167976	0.0510949674335041	0.0064720192574588276	-0.002422148662294177	0.9999761227962338	0.9647075564381405	-0.26323369354511855	-0.006881361329441449	0.2632440759407186	0.9647290582222825	0.0006330115834957128
96														9.760275690050179	-0.11214214263196816	-0.009121717551589302	0.006466435440037666	-0.002376305220771535	0.9999762689115166	0.9647085266115978	-0.2632305937719083	-0.006863904527960429	0.2632406577555606	0.9647300180236886	0.0005902782678410823
97														9.787694895964576	-0.07635344485851515	0.011339506405903225	0.006476943826517478	-0.0023610887500279953	0.9999762369469501	0.9647104728999469	-0.2632233008918594	-0.006870032369250767	0.2632332666587357	0.9647320452475435	0.0005728845108911029
98														9.79684671104101	-0.06947911874190185	-0.010719979968984597	0.0064693609858160195	-0.002320706680544349	0.9999763805655302	0.9647074204384036	-0.2632349554401947	-0.0068520935107278524	0.2632446396786006	0.9647289632611336	0.0005358410045542827
99														9.737969364539104	-0.059202507643575444	-0.005805655363291576	0.006461567410084412	-0.002308275189709774	0.9999764597290545	0.964706480779389	-0.2632386797138707	-0.006841304316014096	0.2632482746170449	0.9647279768764594	0.0005258735610224607
100														9.787980718696375	-0.04525536514780147	-0.03599266566343748	0.00645376801788744	-0.002296922015441627	0.9999765362385389	0.9647053605229716	-0.2632430580970711	-0.006830793654096001	0.26325257122507667	0.9647268092641339	0.0005169433517219768
101														9.787985811492955	-0.0441376461128527	-0.035995719635245636	0.006445979559702886	-0.0022844935899002383	0.9999766149448464	0.9647044199364707	-0.2632467846298407	-0.006820010050425429	0.26325620885850637	0.9647258219157856	0.0005069776706118634
102														9.76056957022688	-0.06045763936339911	0.02971429781017639	0.006437176142119361	-0.002287620342364294	0.9999766645059698	0.9647042965325188	-0.26324743544184626	-0.006812340639565484	0.26325687648191426	0.964725636917803	0.0005123070622136128
103														9.774267627952812	-0.04214496908360593	0.04006565293859966	0.0064634765531761396	-0.002274666730601893	0.9999765244055043	0.9647053175133897	-0.26324312467943484	-0.006834301017519473	0.2632524906477374	0.9647268438269316	0.0004929173264321407
104														9.778612242132684	-0.0746056252913874	0.03287401064331255	0.006439842859373601	-0.002246353107660637	0.9999767408903382	0.9647037668644646	-0.26324959087316624	-0.006804050457156874	0.2632587522219528	0.9647251457295112	0.00047177930665032175
105														9.769726585347902	-0.051621745076799945	0.007732425431700428	0.006463270560014445	-0.0022531328898584557	0.9999765744885475	0.964702185398522	-0.2632547547647075	-0.006828439140119047	0.2632639732682477	0.9647237208060944	0.0004721155165851587
106														9.787766080945289	-0.06665582221013562	0.011047597241914271	0.0064232193732751686	-0.0022372686311866175	0.9999768681734371	0.9647029297511205	-0.2632531341569301	-0.0067856234908093005	0.2632622258936675	0.9647241999585301	0.00046736697175375763
107														9.78298799723376	-0.10482425021102504	0.025705907266184096	0.00644771480216616	-0.0021999407647058655	0.9999767933479573	0.9646977233540363	-0.2632718561195929	-0.006799436071110054	0.263280704817825	0.9647191767742453	0.0004247760035294701
108														9.774097343344247	-0.08191516686181978	0.0004313893105434213	0.006443211119868286	-0.0021937852615467324	0.9999768359000573	0.9647059769154138	-0.26324176537591637	-0.006793457547299542	0.2632505710043965	0.9647274020509609	0.0004202354839992206
109														9.787787932610009	-0.06341995640322547	0.010730430849486617	0.006433273041623444	-0.002171688298044705	0.9999769481182593	0.9647000145071856	-0.2632640117494497	-0.006778062217284053	0.2632726628569849	0.9647213814814729	0.0004013784630114703
110														9.78324923652277	-0.07400800538973479	-0.021545246799932503	0.006456168342997337	-0.0021654714569117606	0.9999768140430538	0.9646978157955741	-0.2632715411463737	-0.006798516136770183	0.2632801589363991	0.9647193407182125	0.00038930019508903735
111														9.778891917352334	-0.039535183856424794	-0.014488846143447203	0.00644839828484145	-0.002153060122694561	0.9999768909788209	0.9646968712980664	-0.2632752797038859	-0.006787754014643377	0.26328381011236285	0.9647183482389818	0.00037934650199639153
112														9.774353678250748	-0.05010637495795776	-0.04657136163176397	0.006454615636206418	-0.002172578743816933	0.999976808650376	0.964697618325798	-0.26327225508058283	-0.006798889712110012	0.26328092056493907	0.9647191299058946	0.00039656032556306675
113														9.79257421033052	-0.020172521270786555	-0.004030805579159329	0.00646082105744572	-0.0021380264561591256	0.9999768430489464	0.9646895240465836	-0.26330199282912586	-0.006795790387270906	0.26331042513740405	0.964711091164129	0.000361384664653297
114														9.774145940839869	-0.07589532736006459	0.0004077569833609928	0.006464972744464337	-0.002148145104263921	0.9999767945307652	0.9646851485106591	-0.26331785108362293	-0.006802465999197038	0.2633263533533638	0.9647067402964042	0.0003699409485427019
115														9.765021311306624	-0.08071722914435187	0.02251411721272068	0.00645649512838109	-0.002165147928508415	0.9999768126337254	0.9646866167270614	-0.2633125677456386	-0.006798762747319442	0.2633211825477643	0.9647081443636962	0.0003886129189751286
116														9.774161129305835	-0.07390957828674394	0.0008558133856029268	0.006460834979253871	-0.002174887550285942	0.999976763467789	0.964682169590807	-0.26332868541289656	-0.006805520721393898	0.2633373678097061	0.9647037230688287	0.00039675205886935405
117														9.765037056844616	-0.07869310025359909	0.02284840013878803	0.0064505561147374935	-0.0021674985871579233	0.9999768458697857	0.9646774112217202	-0.2633464227587484	-0.006793666074397076	0.2633550504630023	0.9646988978795639	0.00039220604826556427
118														9.787841797104587	-0.054362760802269	0.011290740808487625	0.006444144881202429	-0.002151174215227203	0.9999769224568364	0.964680492893069	-0.26333540424989577	-0.006783177730928347	0.26334391891276976	0.9647019422174083	0.0003782243049079148
119														9.751391094610883	-0.09396599870473718	0.012524927770258425	0.006454328423817379	-0.0021507097569423705	0.9999768577782879	0.9646836420553067	-0.26332361762883605	-0.006792874926794534	0.2633321332376776	0.9647051605782999	0.00037517741140685734
120														9.796983174263984	-0.04640779681575564	-0.010713398449729572	0.006433876101169023	-0.0021031888239969043	0.9999770906551237	0.964685235425687	-0.2633186101442135	-0.006760628920941203	0.26332679656655106	0.9647066321677749	0.00033475589302223163
121														9.774200339635119	-0.06853048604713095	0.0006479108282270545	0.006452997999988219	-0.0020906056403856565	0.9999769938277929	0.9646736101282652	-0.26336080721502364	-0.006775776350496976	0.26336891376719646	0.9646951407523046	0.00031728532823155353
122														9.774402328405424	-0.03974548329276152	-0.046355592585325185	0.0064308622350318645	-0.0020857896152070565	0.9999771464851561	0.9646785692565265	-0.2633432228309526	-0.006753147872557486	0.263351290158403	0.9646999515241454	0.0003185925552128821
123														9.765088291551868	-0.07213495723281813	0.022595993139464043	0.006423115229983012	-0.002073393567394277	0.9999772220555108	0.9646776207151455	-0.2633469726142137	-0.006742411014914129	0.2633549537831172	0.9646989546247279	0.00030864842283173655
124														9.765095646500507	-0.07111375513409997	0.02265370410288483	0.006430152444904469	-0.002078210506923861	0.9999771668296359	0.9646771144728659	-0.2633486206187268	-0.0067504689111315686	0.2633566364302248	0.9646984943801373	0.00031143033835279166
125														9.787880217314838	-0.04695669806158343	0.011212774528070667	0.0064378249408681976	-0.0020827690668344667	0.9999771079795006	0.9646764481584437	-0.26335084073656956	-0.006759071811444084	0.2633588896894142	0.9646978784865016	0.00031379165503564455
126														9.778652733379692	-0.09692113057613096	-0.006108221424650885	0.006443067975356043	-0.002077931882623618	0.9999770842745128	0.9646705137847138	-0.26337248057045803	-0.006762862744425668	0.26338049796710683	0.9646919812444046	0.0003075928216665358
127														9.765115733706061	-0.06821662083826031	0.02290338719175023	0.0064374884012080025	-0.0020752381951301135	0.9999771258031447	0.9646745830321717	-0.26335773192498024	-0.006756766019079374	0.26336572972729505	0.9646960134787353	0.0003065671959440741
128														9.778768896599317	-0.04973162171537972	0.033311671400384615	0.006431833854723956	-0.0020733357373273753	0.9999771661354007	0.964678588259248	-0.2633432132787688	-0.006750805445144115	0.2633511968216787	0.9646999809779899	0.00030632279749426283
129														9.760611088673784	-0.07762901304721809	-0.009247234257547754	0.0064244622444427635	-0.002046237261879802	0.9999772693406281	0.964676433923357	-0.26335146969721335	-0.006736560044561302	0.2633592681448405	0.9646977849675964	0.0002820652906630472
130														9.801460502470308	-0.06937635837323033	-0.017484819120262392	0.006415486583847774	-0.00206362595204429	0.9999772912320674	0.9646777908086845	-0.26334660363168394	-0.00673247919661385	0.2633545166735679	0.9646990762945651	0.000301237521972586
131														9.751503938744174	-0.08138506544717575	0.012734486660477074	0.0064349924670670244	-0.002036321770084004	0.9999772218733773	0.9646649595433656	-0.2633933041853051	-0.006744118885705863	0.26340103777537777	0.9646863846369951	0.0002694343296470447
132														9.76975764476576	-0.0687527836159149	-0.031098049683066734	0.006429091768559436	-0.0020345065269732343	0.999977263522638	0.9646692294810059	-0.2633778232916051	-0.006737944100299154	0.26338554339893855	0.96469061516186	0.00026934564800418226
133														9.801481061292785	-0.06641867200180533	-0.017444682775638792	0.006439297159300195	-0.002034070764733553	0.999977198744161	0.9646723741977528	-0.2633660558880137	-0.0067476711289076174	0.2633737760517673	0.9646938287156795	0.0002663195783659811
134														9.774284823965827	-0.0551702701543588	0.0012575567124118768	0.006433327923737464	-0.002031216575776873	0.9999772429665832	0.9646763382984818	-0.2633517023481228	-0.00674115697634764	0.26335940199442215	0.9646977532002285	0.0002652387081316654
135														9.760658034551115	-0.07150828782953757	-0.009049126577849073	0.006428126560798608	-0.002013828147872876	0.999977311585173	0.9646792006485212	-0.2633414626947067	-0.006731557170776781	0.2633490440936693	0.9647005849080865	0.0002499058770260576
136														9.77429691183464	-0.05298350593263279	0.0013393613634487312	0.0064169630970974945	-0.0020210209086681807	0.9999773687734625	0.9646755669684252	-0.263354999937787	-0.0067226856178057015	0.26336262657931964	0.9646968744026567	0.0002596901748875835
137														9.756164064145405	-0.081047758320469	-0.0411821310669431	0.006441155873873505	-0.0019984138632404003	0.9999772586679359	0.964671568283673	-0.26336920235514777	-0.006740073881804587	0.26337668244574625	0.9646930442336799	0.00023141095078471619
138														9.774307605348746	-0.05097244595989969	0.0013575825629323802	0.006414277452879813	-0.0020037796970111543	0.9999774207009293	0.9646687190362156	-0.26338026456163155	-0.006715560473382842	0.2633877741235993	0.9646900129608322	0.00024358950103531285
139														9.783432056571108	-0.04411690877506383	-0.02044258302681333	0.006438109703132633	-0.0019958853847690805	0.9999772833344672	0.9646659227930887	-0.2633899719356366	-0.006736474263529357	0.26339743382426695	0.9646873789602906	0.00022962908246082492
140														9.760694556903543	-0.06636338928968884	-0.008847634181484326	0.006416291013776276	-0.001991102474266815	0.9999774331056499	0.9646708182716479	-0.26337261133742673	-0.006714162078402919	0.26338003642025876	0.9646921286650175	0.00023088313371461
141														9.801391334831036	-0.08581139252212441	0.029986667597057415	0.006423990550510572	-0.001995676435749494	0.9999773745545305	0.964670145558847	-0.26337485509230424	-0.00672279499773798	0.2633823126424416	0.9646915066386106	0.0002332518974077491
142														9.760567126140355	-0.09202575181475758	0.03848967042238989	0.006415257184477496	-0.0020126083693864927	0.9999773966859493	0.9646713698300333	-0.26337047210138753	-0.006718828420151146	0.26337804142620574	0.964692668072399	0.0002519163592998308
143														9.769694721174455	-0.08509751110906838	0.01667340813495944	0.006407918917224087	-0.001985519269634417	0.9999774978910176	0.9646692141209553	-0.263378730053526	-0.0067046165177740424	0.2633861156219303	0.9646904696681842	0.00022765976675587218
144														9.778820653427573	-0.07822812524799799	-0.005222864474880902	0.0064156579425225235	-0.0019908287476192443	0.9999774377125029	0.9646686219749062	-0.2633806730709386	-0.006713481193485249	0.2633880959918281	0.9646899282430585	0.00023072971745935478
145														9.774343259835202	-0.04358137982759256	0.0019294534048497952	0.0063810886896100705	-0.0019786926553831408	0.9999776829922314	0.964678340397735	-0.26334600471965697	-0.006676927861438031	0.26335333921294357	0.9646994177325758	0.00022836773478163153
146														9.760606575679228	-0.08764487567521918	0.03870953080023301	0.006398860698603792	-0.001982129516395814	0.9999775626204516	0.9646682011303198	-0.2633826852454033	-0.006694986251885748	0.26339004595798976	0.964689396788158	0.00022674820167928322
147														9.769858464778892	-0.0530234497682082	-0.03020946872777072	0.006373243033494513	-0.001957799789434389	0.9999777741496159	0.9646631494464388	-0.2634019759761877	-0.006663869140139667	0.26340916816487825	0.9646841794451819	0.00020989250246239433
148														9.751635197567788	-0.0635762218986967	0.013557295690402475	0.006382921716234169	-0.001958201199969256	0.9999777116308269	0.9646663147446363	-0.263390144351077	-0.006673309203210631	0.2633973414963925	0.9646874091159165	0.0002078120628823399
149														9.783354447337649	-0.06116117853133635	0.027169290831929396	0.006375228823887358	-0.0019458362532623896	0.9999777848426029	0.9646653587098248	-0.26339391610699103	-0.006662631842517364	0.26340102916026853	0.9646864043196107	0.00019788434124207166
150														9.783478941008985	-0.03238861310203455	-0.019945561085977268	0.006383701092645633	-0.0019219013273705232	0.9999777770808951	0.9646620993460902	-0.263405805726999	-0.00666450256999479	0.2634127605974221	0.9646832059306305	0.0001724814393687102
151														9.769765546199663	-0.0765114447519806	0.01678378542252003	0.00637312861221212	-0.001929242971322298	0.9999778303808791	0.9646585267034458	-0.2634190982619934	-0.00665623986768471	0.2634260998648958	0.9646795616640773	0.00018225689023215752
152														9.783373212792343	-0.05805366578828753	0.02722902830912796	0.006382996620337367	-0.001928868877377976	0.999977768162372	0.9646616625161447	-0.26340737625750243	-0.006665658611584413	0.26341437740892665	0.9646827631910878	0.00017937746560348078
153														9.783379664428647	-0.056898791088266065	0.027350167984375538	0.006343408423631791	-0.0019267412978233867	0.9999780241773026	0.9646637447397812	-0.26340072834116735	-0.006626906817255529	0.2634077082285046	0.9646845826368916	0.00018779907655303019
154														9.78790570504631	-0.08929413012852952	0.020365809651442766	0.006366747601975031	-0.0019198580944695953	0.9999778890904889	0.9646611379145895	-0.2634097535672869	-0.00664761031879485	0.26341669180654087	0.9646821320365162	0.0001749490771842388
155														9.756203913124198	-0.08965494004003986	0.006729031065035532	0.006341151014815527	-0.001895535178381924	0.9999780981352517	0.9646560827649686	-0.2634290487572263	-0.006616513841091354	0.2634358210045737	0.9646769113113731	0.0001580961600622932
156														9.783398842267223	-0.05352518624739053	0.02729923448872405	0.006336287183234257	-0.0018790705829125898	0.999978160040746	0.9646590109473692	-0.2634185524368728	-0.006607482887291738	0.2634252153131415	0.9646798097430084	0.00014356677238092086
157														9.778923395161264	-0.06413688996515289	-0.004896751984483114	0.006346526792553098	-0.0018786879588730265	0.9999780958247168	0.9646621489611796	-0.26340681512400854	-0.006617258331588882	0.2634134771785074	0.9646830154396735	0.0001405807541083326
158														9.788038496258846	-0.05726990213887814	-0.026847167020774238	0.006341186898171591	-0.0018470569176907148	0.9999781886268646	0.9646637580647311	-0.26340126051497154	-0.006603774341529922	0.26340771291887455	0.9646845931908868	0.00011151224543953786
159														9.76535008762603	-0.07954210233219466	-0.015314245857921646	0.0063489130040068065	-0.0018516594541293507	0.9999781310913424	0.9646630782516525	-0.26340353280187334	-0.0066124402106117475	0.2634100164415053	0.96468396393055	0.0001139013941870437
160														9.760727648647403	-0.07282942001527065	0.03889006361223988	0.006356520154541467	-0.0018568285430377585	0.999978073179251	0.9646623996883654	-0.2634057993382001	-0.006621140573122797	0.26341231800925724	0.9646833351223429	0.00011686840582031399
161														9.765297286426222	-0.03239302762786283	0.024145504677826658	0.006330570760806509	-0.0018472223202892768	0.9999782555853615	0.9646585412853135	-0.26342062075990536	-0.0065935789794305255	0.2634270726389646	0.964679306468303	0.0001143359093437879
162														9.787979293828787	-0.0808093000335281	0.02043319231632704	0.006340570152398806	-0.0018482757613416667	0.9999781902855944	0.9646617984611361	-0.26340844398141994	-0.006603501269302425	0.26341490420982067	0.9646826294258631	0.00011280130218954687
163														9.78343511137506	-0.04629969032954435	0.027511134035696046	0.006332906875924693	-0.0018359317156133592	0.9999782615863386	0.964660837702483	-0.2634122290896388	-0.006592857435949562	0.26341860696170266	0.9646816194583385	0.00010288630994370607
164														9.769862792563753	-0.06275154296730263	0.017255521342170278	0.006340512975135382	-0.0018410437939015423	0.9999782039889473	0.964660244414393	-0.26341418430508434	-0.00660154173282379	0.26342059665404927	0.9646810758300568	0.00010580070278165543
165														9.77442775227324	-0.09531662914082568	0.01032905076386302	0.0063482488968604756	-0.001845655015132841	0.9999781464079647	0.9646595625535725	-0.2634164637484176	-0.006610219378250071	0.26342290733703005	0.9646804445949155	0.00010819548411705737
166														9.769873619061746	-0.06097059209642026	0.01750798104314298	0.006368731912546222	-0.0018591121815962897	0.9999779912356683	0.9646541638962605	-0.2634356475651838	-0.006633526175346127	0.26344218214141946	0.9646751801999514	0.00011564929157648063
167														9.769879363686586	-0.06002172907194033	0.017582282810996958	0.0063610761129016535	-0.0018467743888336274	0.9999780628269013	0.9646532027420552	-0.26343943470022657	-0.0066228909337145425	0.2634458865691031	0.9646741696910834	0.00010573853366241392
168														9.788024999480319	-0.07497707898254649	0.02076960222808185	0.006369092201401361	-0.0018229594061545673	0.9999780555009865	0.9646498634394229	-0.2634516254292944	-0.0066243509090199715	0.2634579200381593	0.9646708857831601	8.056984923437982e-05
169														9.760854146449624	-0.03617468919641284	-0.007634083666669698	0.006378976016442939	-0.0018373195886610127	0.9999779662181114	0.9646541950227459	-0.26343542927596186	-0.006637667301680805	0.2634418203133279	0.9646752815631375	9.192976356658944e-05
170														9.78803910952302	-0.07309177651839806	0.0208401640060853	0.006384451206772113	-0.001819092236097275	0.9999779646003332	0.9646475876672387	-0.263459610917509	-0.0066381490622048345	0.2634658808851075	0.9646687122108977	7.273790643747002e-05
171														9.779005538440419	-0.05012355514525984	-0.004318710815118656	0.006363181326463019	-0.0018142671927284804	0.9999781089393708	0.9646525591799262	-0.26344195541576587	-0.0066163580870935434	0.26344819223336036	0.9646735429984961	7.38085591932558e-05
172														9.783593678970691	-0.08260862298635735	-0.011231607968559374	0.006384190267295531	-0.0018264654401113911	0.9999779528262746	0.9646472325305895	-0.2634608686226336	-0.006639840034363131	0.2634671874934439	0.9646683547875939	7.991051884237432e-05
173														9.765454494415103	-0.06568620963583421	-0.01441062587033315	0.0063812035789472255	-0.0018189078503861866	0.9999779856652427	0.9646551029116662	-0.263432172786865	-0.006634965506627677	0.26343844189367444	0.9646762057369422	7.360441580372967e-05
174														9.783609852111628	-0.08069389319199136	-0.011062810874952048	0.006388830817948388	-0.0018249899248311552	0.9999779258826438	0.9646544998234139	-0.2634341553809273	-0.006643925735367429	0.2634404654019941	0.9646756528442667	7.7448492722898e-05
175														9.788074849170037	-0.06802909819710178	0.021192853352929433	0.006381191384221774	-0.0018126625216302594	0.9999779970834868	0.9646535368541487	-0.26343794914170326	-0.006633308887458722	0.26344417668891634	0.964674640076434	6.754334127351269e-05
176														9.79258497193237	-0.027692768357879163	0.006445142314273197	0.006390651188945551	-0.0018284132729751157	0.9999779079971141	0.9646577492253171	-0.2634221892676243	-0.006646582655588595	0.26342852244380616	0.9646789139948875	8.035370552406107e-05
177														9.765435030375286	-0.08939955236303408	0.032902000077185585	0.006391981048231632	-0.0018037970950317006	0.9999779442039306	0.964642019938702	-0.2634799145726737	-0.006641384295299146	0.2634860830231084	0.9646631955935796	5.5859852772732754e-05
178														9.769939832194932	-0.04900917210850322	0.01811893990283417	0.006382848976581534	-0.0018218950223008457	0.9999779697260689	0.9646436113353607	-0.2634741899834624	-0.006637343025098497	0.2634804781171019	0.9646647251304916	7.576342989462637e-05
179														9.783651737056882	-0.07550987098294609	-0.010612683796343345	0.0063615949982346875	-0.0018170902350060358	0.9999781139065778	0.9646485801869047	-0.2634565446927034	-0.006615572686522686	0.2634627997506811	0.964669553392072	7.684967830073886e-05
180														9.75179174943418	-0.030777427605159863	0.01500675291154082	0.006369647023204195	-0.001793733449220014	0.9999781048188572	0.9646454708523966	-0.2634678887407394	-0.006617187201204466	0.2634739895336126	0.9646664989118316	5.2119394479244185e-05
181														9.769955888532753	-0.04569247914977369	0.018129180606314004	0.006362392907142078	-0.0017666986336904444	0.9999781991285774	0.9646433108836276	-0.2634761512510182	-0.006603066668120605	0.26348207287018255	0.964664292123373	2.789522341611894e-05
182														9.788123254792433	-0.06062065648214888	0.021321500960604606	0.0063696027583517445	-0.0017577967214222334	0.9999781689173952	0.9646410846840612	-0.2634841861518118	-0.006607676405116725	0.26349004895870004	0.964662113798714	1.7353337112169243e-05
183														9.801671528205935	-0.042076937341089506	0.03161818039992784	0.006361976867097663	-0.0017454842749246025	0.9999782390307246	0.964640118866067	-0.26348798770474513	-0.006597075819234688	0.2634937690428431	0.9646610978058308	7.459675906373864e-06
184														9.770150264630958	-0.08782798692588638	-0.021006415306826245	0.00638417935241864	-0.0017831860540910571	0.9999780310094281	0.9646410135341543	-0.26348392541809895	-0.006628427722249863	0.2634899566621004	0.9646621384162262	3.800576618995244e-05
185														9.779043749653551	-0.0636857890722388	0.04358994773891869	0.006389803502085956	-0.0017780741722010496	0.9999780041898141	0.9646353097992322	-0.26350470383102464	-0.006632506876288635	0.26351070092074963	0.9646564722797246	3.144985059161387e-05
186														9.774610092239255	-0.07414087073726121	0.011428289777867811	0.006350391018755175	-0.0017623040686812752	0.999978283173329	0.9646361427807277	-0.26350271264054304	-0.0065903317211680745	0.26350860436621143	0.9646570451281871	2.6636939449431463e-05
187														9.788152632131625	-0.055515364062615744	0.021734606867593015	0.006374292999700049	-0.0017544669668072	0.9999781448783855	0.9646333405477818	-0.263512445056461	-0.006611323921413448	0.2635182853093541	0.9646544008846012	1.2711797214737253e-05
188														9.792812842024615	-0.06037557032094096	-0.03232601560661288	0.006368757721622986	-0.0017529045378865682	0.999978182887389	0.964637598400692	-0.26349700219463357	-0.0066055723587648	0.263502832388627	0.9646586220835445	1.2769056300987458e-05
189														9.78372647449188	-0.06515588050102686	-0.010326582728636015	0.0063607684698807065	-0.0017553197101087825	0.9999782295016169	0.9646378249926768	-0.2634963498166888	-0.0065985018511166005	0.2635021958501876	0.9646587958889903	1.7208513483468746e-05
190														9.78372272627769	-0.09184339804454114	0.03680282412424566	0.00637316504140345	-0.0017512077209331234	0.9999781577808957	0.9646453487552795	-0.2634685318344971	-0.006609376504660813	0.2634743514882631	0.9646664014074988	1.0165946104923052e-05
191														9.769996697439952	-0.035556001351361756	0.018836849688900453	0.006362289339575555	-0.00177330333843978	0.9999781880969354	0.9646429478017586	-0.2634774394543391	-0.006604707027513312	0.2634834046589913	0.964663928160401	3.428485548023774e-05
192														9.770222963048475	-0.07953663396763316	-0.020210774056211588	0.006338715662271899	-0.0017599208240244302	0.9999783614471096	0.9646431864129025	-0.26347722298280385	-0.006578440273530606	0.26348309925100577	0.964664011792688	2.7588431548319914e-05
193														9.765569914528474	-0.07270234040130831	0.03398129728723358	0.006357224364018421	-0.0017767204712572648	0.9999782142440667	0.964633936148031	-0.26351053051286416	-0.006600722716927465	0.26351651737593684	0.9646548831438091	3.8689296871841083e-05
194														9.797280830441808	-0.04242288464609186	0.0009142149897654903	0.006315828111974675	-0.0018204443461742326	0.9999783979154961	0.9646394126560278	-0.26349119206384397	-0.0065723097468215474	0.2634974646289669	0.9646600840125795	9.190728677194171e-05
195														9.77467508749405	-0.064768361699727	0.012720340913328696	0.00634477050545873	-0.001802703328031563	0.9999782468373724	0.9646442521789219	-0.263472893130157	-0.006595553334921234	0.26347905158741175	0.9646651153878928	6.729236244934489e-05
196														9.774681026755081	-0.06385287680148077	0.012786467224360581	0.006336119216692027	-0.0018201025150214045	0.9999782701739606	0.9646457640291589	-0.263467451926147	-0.006591791573126948	0.26347372456067036	0.9646665688217759	8.639299609208839e-05
197														9.765595566308445	-0.0687263333597707	0.03487201808465523	0.006343903401423434	-0.0018247583772494358	0.9999782123358981	0.964645071339312	-0.2634697693774455	-0.006600527628138231	0.2634760733546929	0.9646659270861913	8.88174088729543e-05
198														9.77469311479637	-0.06192324987645233	0.013033048039881456	0.006351274282927588	-0.0018162128539019329	0.9999781811048938	0.9646432867065309	-0.2634761816065229	-0.006605387049035849	0.263482429636217	0.964664191880737	7.858804034510669e-05
199														9.797309360911811	-0.06518831302608002	0.04854198507223096	0.00634581743618029	-0.001813688091637733	0.9999782203311092	0.9646473306162285	-0.263461524149909	-0.006599456613324506	0.26346775540101847	0.9646681998636177	7.769064245566337e-05
200														9.783796189088234	-0.05396638776388134	-0.008684326391461104	0.0063350372567181346	-0.0018225710633024694	0.9999782725327966	0.964643873817131	-0.2634743823750006	-0.006591398879737531	0.2634806710368634	0.9646646713064764	8.901198227467821e-05
201														9.765621436112307	-0.06469251946996925	0.03534089633764771	0.0063399352301258816	-0.001846906131295234	0.999978196841821	0.9646405503551098	-0.26348627120986157	-0.006602536975572115	0.26349272064303475	0.9646613778013843	0.00011111465344898486
202														9.78849740661183	-0.08543798892214492	-0.015298850747188814	0.006331876117408153	-0.0018358876982389472	0.9999782681944611	0.964639371817212	-0.2634908532066305	-0.006591859869338357	0.26349722898908995	0.9646601473020444	0.00010257811538161299
203														9.774723349903923	-0.056796055906204	0.013692231086808898	0.00633715638002641	-0.0018455008259162242	0.99997821705061	0.9646348561347986	-0.2635071936062151	-0.006599488432708134	0.263513633003706	0.9646556655327736	0.00011034813055982307
204														9.78381823451023	-0.04990621912942338	-0.008110657396144121	0.006328933778364354	-0.0018330773167106185	0.9999782919767712	0.9646334589041192	-0.2635125888577192	-0.0065882832497072275	0.26351894535290016	0.9646542154269862	0.00010049398781136754
205														9.752147930060941	-0.07807688025173821	0.025426709232571915	0.006320975541232565	-0.001835510314481148	0.9999783378504223	0.964633680069986	-0.2635119550564006	-0.006581247373431687	0.26351832676845066	0.9646543839345985	0.00010494244673042719
206														9.770332615032517	-0.06525118733203493	-0.01827957058794585	0.006312195754082817	-0.0018246371605102896	0.9999784132090025	0.9646326323812984	-0.2635160731106436	-0.006569913049096265	0.2635223723517396	0.964653279635527	9.6739509462207e-05
207														9.774746688523658	-0.052560069206796664	0.0139443624035522	0.006322506969655639	-0.0018243585127839523	0.9999783485764258	0.9646357580934413	-0.2635043844678637	-0.006579785232401769	0.26351068311002285	0.9646564730940386	9.383314968069989e-05
208														9.761258771595376	-0.06912400471348698	0.0038122762336586327	0.006313581866178752	-0.0018422471725164091	0.9999783721708055	0.9646367073927009	-0.263501006514279	-0.00657588902965589	0.2635074219724893	0.9646573618084905	0.00011346407025131233
209														9.774756732893888	-0.050581522797346914	0.014218250135567555	0.006324277428629732	-0.0018272448690948018	0.9999783321108489	0.9646386427418413	-0.2634937625055055	-0.006582252644173614	0.26350008053923846	0.9646593690504861	9.622335568237883e-05
210														9.78388369266903	-0.07140937219885163	0.03925109381546475	0.006334719359807672	-0.0017991130420987878	0.9999783170263716	0.9646396439736243	-0.2634900305534006	-0.0065849125588346435	0.2634961643080825	0.964660441290732	6.636036673557388e-05
211														9.792976648428697	-0.0645464231912108	0.017201277965850373	0.00634077436602809	-0.001779273184808916	0.9999783141485483	0.9646327454919417	-0.2635152693073897	-0.006585527050474382	0.26352127220609306	0.9646535839506261	4.545431256114396e-05
212														9.792983476199204	-0.06351238307695024	0.01716338620379601	0.0063378451103277555	-0.0017731782846041044	0.9999783435445637	0.9646410085114588	-0.2634851303216823	-0.006581093933585969	0.26349109362055123	0.9646618277604531	4.055254387780316e-05
213														9.78390668666032	-0.06829154036693606	0.03906775897022321	0.006330282551789745	-0.0017608934547418409	0.9999784131555318	0.9646400366590562	-0.2634889511764137	-0.006570561800039676	0.26349483334067325	0.9646608066373353	3.06688165134239e-05
214														9.779515100683312	-0.07889580298312988	0.007016464991746493	0.006321237779626954	-0.0017795876224865892	0.9999784372779379	0.964641155525165	-0.2634849496657881	-0.006566762268495008	0.2634909543419037	0.9646618653017804	5.1112442323253404e-05
215														9.779523470493002	-0.07783232023819839	0.007225247535784408	0.006313297014012731	-0.001782031411238949	0.9999784830909424	0.964641371875522	-0.2634843323588618	-0.006559745994745736	0.26349035266385673	0.9646620293996515	5.5566376542526275e-05
216														9.774791437467528	-0.04334333118840774	0.014266953854827078	0.00632317327134585	-0.001768743444000631	0.9999784442808806	0.9646432491612196	-0.2634773092500236	-0.00656577170278988	0.2634832429728051	0.9646639720944268	4.0193743297445295e-05
217														9.76606366753653	-0.09331635580650209	-0.00309856095884595	0.006310977692235931	-0.0017516115152679812	0.9999785514788146	0.9646334437063246	-0.26351361143277485	-0.0065494940975937554	0.26351943162477776	0.9646540874566162	2.663452465578864e-05
218														9.783940537962012	-0.06301330781764253	0.03945785233480531	0.006315708813750376	-0.0017626469335412231	0.9999785022179065	0.9646286613317272	-0.26353093162895275	-0.006556966687139121	0.26353682391563404	0.9646493358472622	3.5915124317498215e-05
219														9.774804860933099	-0.04014986738699523	0.014415452977599425	0.006294534301976851	-0.00175793432551824	0.9999786440243756	0.9646336136797504	-0.26351334166995966	-0.006535298086367325	0.2635192027102917	0.9646541496457882	3.7068772866188926e-05
220														9.774808908708284	-0.03912972510204163	0.014473395135102712	0.0063158906887293975	-0.0017568119070157096	0.9999785113374839	0.9646268422708372	-0.2635376239153474	-0.006555604598012743	0.26354347780850235	0.9646475182122097	3.019309731155939e-05
221														9.75226392497274	-0.06162005043014645	0.026135676075990804	0.006307960026625925	-0.0017592665398707963	0.9999785570808724	0.9646270559677702	-0.26353701583928313	-0.006548601184755587	0.2635428855713127	0.9646476798623249	3.465514156769656e-05
222														9.788657494580143	-0.06478172943384589	-0.014245413150540157	0.006316934695650589	-0.0017608816683610251	0.9999784975847238	0.9646301090221614	-0.2635256146006032	-0.006557683834086114	0.2635314954686524	0.9646507916055036	3.39253776630577e-05
223														9.752275601108455	-0.05968876422833981	0.026260161128350393	0.006325141044616067	-0.001750838450741532	0.9999784633458291	0.9646282195406782	-0.26353239972824016	-0.006562953546732919	0.26353821479350437	0.9646489562831626	2.2028579334809617e-05
224														9.779592257515494	-0.06859710406428313	0.007690011644757356	0.006299145756749669	-0.0017436427409720512	0.9999786400082393	0.9646250661446721	-0.26354461238238325	-0.0065359811510659616	0.2635503794877232	0.9646456328591406	2.1855567540085552e-05
225														9.78398210795925	-0.05583006615020195	0.03996437608307825	0.006314119658507478	-0.0017482676720075307	0.9999785374962232	0.9646370194202218	-0.26350046818003053	-0.006551643532397344	0.2635062668268232	0.9646576837557725	2.2670230112598055e-05
226														9.766146098669122	-0.08426871210160171	-0.002491052065700879	0.00633746722944778	-0.00174281426633216	0.9999783993204803	0.9646343400948364	-0.2635097515134053	-0.00657272904841999	0.26351551456966665	0.9646551577925542	1.1194074855114255e-05
227														9.779611839861516	-0.06573455173848007	0.007785831815801397	0.006329931619380336	-0.0017305503578025627	0.9999784683487711	0.9646333650260562	-0.26351358265071173	-0.006562228058735575	0.26351926503427087	0.9646541333317589	1.3236560372220652e-06
228														9.779619285480102	-0.06461443068424093	0.007810088191569268	0.006319224025408743	-0.0017258292652350127	0.9999785442303568	0.9646283714416394	-0.2635321497108094	-0.006550654826047109	0.26353780073751687	0.9646490696528695	-5.348184102249576e-07
229														9.770463093420714	-0.041727049099051304	-0.017351135534460854	0.006311692235490718	-0.0017135713992195711	0.9999786128783876	0.9646273955186104	-0.2635359826234903	-0.006540158840097787	0.2635415533765155	0.9646480443849617	-1.0400099432816834e-05
230														9.779633777075928	-0.062379690743317485	0.00783257776734471	0.006303749546183124	-0.0017029625073126664	0.9999786811029313	0.9646264679596179	-0.2635396370885705	-0.006529700986812437	0.2635451385501383	0.9646470647868699	-1.8565159201622272e-05
231														9.77056534003932	-0.06723228360717097	0.029806286315170773	0.006309073253934261	-0.0017125893424758676	0.9999786310878952	0.9646219386550499	-0.2635560248112026	-0.006537373409121527	0.2635615887417019	0.9646425705013547	-1.0793015390586636e-05
232														9.770571708586957	-0.06621907736299153	0.02998677101372682	0.006299016149466041	-0.0017208203533116695	0.9999786803591669	0.9646188921706954	-0.26356736148529314	-0.006529841273846482	0.2635729790075788	0.9646394584180107	-2.792436317178293e-07
233														9.770578184816934	-0.06525413715458094	0.029991276005241613	0.006323377510856876	-0.0016982886920948737	0.9999785651264601	0.964614900444943	-0.26358153456944367	-0.0065474020504501795	0.2635870041114475	0.9646356257414175	-2.8530970321682947e-05
234														9.770584834445208	-0.06434273820085167	0.02979383339945474	0.006334692178473822	-0.0016704578921539204	0.99997854039246	0.9646161799414336	-0.2635767630931519	-0.006550981035883641	0.263582049977232	0.9646369781051145	-5.8326948911113785e-05
235														9.784471128669466	-0.09086867070079073	0.0008491857138327617	0.006322155682637665	-0.0016680534022409654	0.9999786237442134	0.9646075522734845	-0.26360865189757077	-0.006538252190130045	0.2636139230854108	0.9646282684239521	-5.7558027189597016e-05
236														9.779670756239797	-0.05627152918030531	0.007924997462026337	0.006311443520548354	-0.0016619473312202704	0.9999787015790664	0.9646023743960279	-0.26362789422285415	-0.006526308081082899	0.26363312574529124	0.9646230203134758	-6.075422301243805e-05
237														9.766238119120478	-0.07283033764815267	-0.0024092705551700283	0.006324697184994621	-0.0016420816881317357	0.9999786506587266	0.9646081317689423	-0.2636066403409497	-0.0065338574661486515	0.26361174164052115	0.9646288626906655	-8.326682670950492e-05
238														9.78886629872172	-0.07598610684612288	0.03308153010914145	0.006316152103005346	-0.0016463237580878198	0.9999786976934535	0.9646082102065902	-0.2636065298122465	-0.006526732902754628	0.2636116595005813	0.9646288856645485	-7.692152392996254e-05
239														9.784053397460955	-0.04146567133343412	0.03999729226752586	0.006325168414913318	-0.001606840331478565	0.9999787049275963	0.964603947198778	-0.2636221712245285	-0.006525020107493618	0.26362704203677745	0.9646246777389718	-0.00011749010463790732
240														9.775329507669268	-0.06382104418250276	-0.02455147353098694	0.006319405679227341	-0.0015914452744836827	0.9999787659814585	0.964606717728163	-0.26361227138380816	-0.006515404022031712	0.2636170427448919	0.9646274087324125	-0.0001307540822331199
241														9.766268191373074	-0.06866976560591423	-0.0026727343007835777	0.006325137211108889	-0.0015863440345272872	0.9999787378498932	0.9646009972007701	-0.2636330996094961	-0.00651958507653333	0.26363783650785266	0.9646217249797426	-0.00013732649081149573
242														9.761443310796098	-0.03424144211163987	0.004179610467113427	0.0063403749974252355	-0.0015486489906481604	0.9999787004387619	0.9646096519264544	-0.2636013130544126	-0.0065243517925754335	0.26360580239292103	0.9646304730010828	-0.00017748941075329538
243														9.793610669871507	-0.07676914577755628	-0.021340473176740052	0.006344938034996472	-0.0015877418204199856	0.9999786101898598	0.9646074820521475	-0.26360888888079775	-0.006539057428022188	0.2636136326716579	0.9646283391954348	-0.00014103442587876103
244														9.770646746825395	-0.05418550165885852	0.02969399699833727	0.006354967709412185	-0.001588733813278731	0.9999785449249818	0.9646108820004298	-0.26359620062037936	-0.006548995713432093	0.2636009497550534	0.9646318048578806	-0.00014263541837550298
245														9.77065183084794	-0.053248386852991554	0.029716486817458095	0.006363214880908574	-0.0015787144297531586	0.9999785083476193	0.9646089864266914	-0.26360300517741986	-0.006554308987618718	0.2636076872954417	0.9646299618621554	-0.00015452043925584524
246														9.775501555623864	-0.08575135309202363	0.02270268197089667	0.006370397710713349	-0.0015710984372068193	0.9999784746096831	0.9646069736966071	-0.26361024792706844	-0.006559228895487046	0.26361487880785717	0.9646279950517354	-0.00016380961102158142
247														9.788931163932657	-0.06712502614592919	0.03305433311492109	0.006362511488536782	-0.0015735915806980305	0.999978520897872	0.9646071749853834	-0.2636096842061879	-0.00655227894949556	0.26361433271784823	0.9646281450394505	-0.00015932191501349946
248														9.766313569591018	-0.061893237596765224	-0.0023618479258679208	0.0063542367673555256	-0.0015639920366933846	0.9999785885727825	0.9646065210837169	-0.263612338068292	-0.006541765888358142	0.26361692502165696	0.964627435410728	-0.0001664182933646119
249														9.779737027623638	-0.04324249993090639	0.007944849204704889	0.006359981061472619	-0.0015588928842522054	0.9999785600170998	0.9646007983748819	-0.2636331735477857	-0.006545959033091853	0.2636377257060103	0.9646217495257392	-0.0001729926702092044
250														9.766326549442669	-0.05981118042404618	-0.002333045883694102	0.006351618625060562	-0.0015478441443426694	0.9999786303313418	0.9645993454886621	-0.2636387618284219	-0.006534978532570845	0.2636432430836912	0.964620240011623	-0.00018148342136586892
251														9.771196637274539	-0.09210459882158659	-0.009270100311305181	0.00633050352455633	-0.0015432106121765488	0.999978771387739	0.9646042849616601	-0.2636212228863837	-0.006513392164781973	0.26362567810956916	0.9646250408033653	-0.00018026751152633302
252														9.788966201811947	-0.061729879322009525	0.03319299285186941	0.006352013499759446	-0.0015276381164255892	0.9999786588954211	0.96459710235525	-0.2636470914485135	-0.006530030520235042	0.26365144045188704	0.9646179956296301	-0.00020113458350168312
253														9.775406411691396	-0.050819130197836127	-0.02428497792220721	0.006362780884339225	-0.0015127212375243282	0.9999786131182382	0.964599031341843	-0.2636398738600717	-0.00653648570896731	0.26364412330601245	0.9646199918027321	-0.00021831330934030113
254														9.80291235672462	-0.0873688337946395	0.004148720670590939	0.006357146254517221	-0.0014973793774272215	0.9999786720458084	0.9646014962934332	-0.2636310898172805	-0.006527007754126901	0.2636352405122808	0.9646224164598045	-0.00023156700722104517
255														9.770702732868902	-0.04286843263046753	0.02976718425092588	0.006349273240711828	-0.0014998845554651252	0.9999787183113626	0.9646016932609581	-0.26363054070998215	-0.006520073853508501	0.26363470956497276	0.9646225626385084	-0.00022707115566661384
256														9.77124372280662	-0.08695924626543958	-0.009332365239356913	0.0063413500978262705	-0.0014890297217119985	0.99997878480967	0.9646008430502067	-0.26363391114387114	-0.006509568481518402	0.2636380110412133	0.9646216583124562	-0.00023547560333231354
257														9.79805670468116	-0.05061774142973755	0.01131585316417357	0.006333481231017568	-0.0014915367566541993	0.9999788309427352	0.9646010389579065	-0.2636333653509281	-0.006502639085100459	0.26363748340633075	0.9646218036058729	-0.00023097906620755948
258														9.766545635313332	-0.07893059494524264	0.044878749080910656	0.0063251908678146895	-0.0014823165594696208	0.9999788971263863	0.9646001941953138	-0.263636713229329	-0.006492210409416166	0.26364077324808716	0.9646209028293212	-0.00023770968981551288
259														9.784669580497253	-0.06612861781340759	0.001127888959657294	0.0063355736264735785	-0.0014821461976604056	0.9999788316506867	0.9646033031365879	-0.26362509209787	-0.006502183815720486	0.26362914877685173	0.9646240791412157	-0.0002405330627773261
260														9.766385063778978	-0.04934479207139512	-0.0022247180609223376	0.006343488424173094	-0.0014598326306389797	0.9999788142972343	0.9646004869712078	-0.2636353530664649	-0.006503933304447818	0.2636392624203017	0.9646213088576316	-0.0002642125439690779
261														9.784682881387655	-0.06413118734071839	0.001095147039061398	0.0063331183037346195	-0.0014672517995341638	0.9999788691690983	0.9645968536592067	-0.26364884490808776	-0.006495882495165084	0.2636528048842091	0.9646176101185322	-0.00025441285608945874
262														9.793746279686188	-0.05713240922030485	-0.02070244323849731	0.006324301382124586	-0.0014576744555749865	0.9999789389768217	0.964595649629112	-0.2636535215424764	-0.0064848511812166665	0.26365742153146315	0.9646163464110655	-0.0002613578922699977
263														9.753010933549975	-0.06372368873111345	-0.012405932706991111	0.006316836027951744	-0.0014454606665164627	0.9999790038926109	0.9645946624999848	-0.26365738914418935	-0.006474428639693275	0.2636612118972697	0.9646153076709553	-0.00027119685100629454
264														9.807147173428469	-0.03725679532293944	-0.010365673325148426	0.006304303204504258	-0.001444296887420371	0.9999790846650777	0.9645859783893569	-0.26368946233578805	-0.0064620234996627945	0.2636932802627948	0.964606542306014	-0.00026922979616039733
265														9.75321573658084	-0.08917851086987831	0.034749728487932036	0.006315089246023198	-0.0014294068887615863	0.9999790380021782	0.9645879062046793	-0.26368225132860723	-0.006468503532567449	0.2636859701453386	0.9646085356921865	-0.0002863883517874033
266														9.798100653830057	-0.041165866920358826	0.011589558280738424	0.006319281994308978	-0.0014421425828088918	0.9999789932292819	0.9645827963379494	-0.26370076169263135	-0.006475900832238646	0.26370456136354437	0.9646034566118338	-0.0002753335500059739
267														9.771338956587806	-0.07555909577385404	-0.008869421401812485	0.006338289739402203	-0.0014441741892252669	0.9999788699988074	0.964572324638508	-0.2637385990454857	-0.006494760579910275	0.26374240581416786	0.9645931088984809	-0.0002786412013304762
268														9.784726879703372	-0.057012193783558845	0.001607757314900279	0.0063332619691904846	-0.0014693783033981056	0.9999788651367747	0.9645823685900757	-0.26370181798981573	-0.006496567865137359	0.26370579060382776	0.9646031267398363	-0.0002527562908346548
269														9.784732925721343	-0.05596031157264201	0.0017649104649719643	0.00632580628882784	-0.0014571774664696724	0.9999789301823454	0.9645813804558849	-0.2637056886706309	-0.006486157612042964	0.26370958392257227	0.964602087078698	-0.00026258485161584355
270														9.762310175567299	-0.07837337233360275	0.013298510762545655	0.006318809035806949	-0.0014322717123340656	0.9999790104047743	0.9645798515660972	-0.26371160823047823	-0.006472838420774285	0.26371534389393353	0.9646005060553501	-0.0002848028572484118
271														9.793796941273724	-0.04788437449065089	-0.020184797249319212	0.006324192477478396	-0.001441926369052271	0.999978962497639	0.9645752996745949	-0.2637280672129473	-0.006480572643599303	0.26373186354169204	0.9645959918082128	-0.00027702049923078453
272														9.762324963254054	-0.07649168374161024	0.013396624334532991	0.006352229779063079	-0.0014424387338211608	0.9999787840486087	0.964582083476516	-0.2637025849263704	-0.006507759926035028	0.2637063772701345	0.9646029577363167	-0.00028374885362869584
273														9.775914478221209	-0.08538517963592003	0.07086549244033925	0.006312908497821734	-0.0014405461509426343	0.9999790357867935	0.9645840976819506	-0.26369616270666313	-0.006469333263807331	0.2636999538972187	0.9646047162442075	-0.0002751618372176523
274														9.7573967250425	-0.040878759310408304	0.020528434983442097	0.00633544157463406	-0.0014361503680272447	0.9999788996034742	0.9645808459759722	-0.263707551453119	-0.006489906230357723	0.26371130760043765	0.964601609359388	-0.0002854206480806254
275														9.803080922241488	-0.06570604450877204	0.005321656125313213	0.006340828902596796	-0.0014458130443251171	0.9999788515331061	0.9645762926380237	-0.2637240153524366	-0.006497646271874213	0.263727832375566	0.9645970937915113	-0.00027763187271279133
276														9.77572084106926	-0.05480754493718437	0.024032474403386433	0.006335594979284376	-0.0014439810167192202	0.9999788873546687	0.9645804534007165	-0.2637089329360668	-0.006492118836582794	0.2637127398392534	0.9646012199912166	-0.00027791712769309473
277														9.76236297508478	-0.07138787508719163	0.01386005473082116	0.006327756087590342	-0.0014465323687357645	0.999978933301598	0.9645806411203968	-0.26370841579735516	-0.006485230405573361	0.26371224142739397	0.9646013575471243	-0.0002733854137739744
278														9.789093269731564	-0.03507539833269862	0.03455917874910498	0.00633493217617509	-0.0014533823836949122	0.999978877933914	0.9645797384884136	-0.26371150260578213	-0.006493958039912651	0.2637153706782122	0.9646005033551699	-0.0002686912834968247
279														9.784785563784077	-0.04581201243866479	0.00241402637541192	0.006330002026283699	-0.0014363090591720806	0.9999789338234253	0.9645825777415442	-0.26370134498262277	-0.006484702910232898	0.26370510384106227	0.9646033058572021	-0.0002837913533440539
280														9.762384568181794	-0.06834559471400543	0.013985272132895597	0.006337156368950769	-0.0014289624761381625	0.9999788990350735	0.964580616475581	-0.2637083968586506	-0.006489664539002071	0.2637121058441266	0.9646013889127896	-0.00029281184054480436
281														9.771438435999467	-0.06151012323924128	-0.0077629083600081325	0.006342153244698612	-0.0014533649469016252	0.9999788321872378	0.9645772375503904	-0.26372047870056003	-0.006500916366596554	0.26372434451881527	0.9645980493678591	-0.000270672944049255
282														9.784798763446013	-0.042875634016951304	0.0028163915149321565	0.006333489105255552	-0.001472781499448128	0.9999788586917271	0.9645788299959392	-0.2637147338782706	-0.006497681061605587	0.26371872826824233	0.9645995905297535	-0.00024962053833599285
283														9.753356777894654	-0.07127461872623778	0.03645647045402738	0.0063260608074702795	-0.001460603380588621	0.9999789235741042	0.9645778392237415	-0.2637186132548365	-0.006487303091674723	0.2637225303858536	0.9645985484442272	-0.0002594343307006919
284														9.77643746140671	-0.09186624507785271	-0.01428336592248467	0.006331295079791077	-0.001456441560072741	0.9999788965176186	0.964571796242172	-0.263740618008819	-0.006491248452748011	0.26374450628735696	0.9645925384276552	-0.0002649772254191274
285														9.789794720119232	-0.07324688339982555	-0.003898629813427813	0.006336699010311808	-0.0014661057465816807	0.9999788481660961	0.9645672384963208	-0.2637570953486793	-0.006499005524636614	0.26376104463175426	0.9645880183721791	-0.0002571917537348978
286														9.780756411400933	-0.07813106125566932	0.018079024180421566	0.006328472410272956	-0.0014558289874578856	0.9999789152771736	0.9645662793927996	-0.2637608649154447	-0.006488358605160616	0.26376474953125384	0.9645870031785712	-0.00026495980666269014
287														9.739796986833616	-0.05724123470267761	-0.020660712326110962	0.0063206500730489945	-0.0014583954815776123	0.9999789610113174	0.9645664633419235	-0.2637603610830106	-0.006481490369807885	0.2637642644080281	0.9645871370715968	-0.00026041757372763374
288														9.762436187270817	-0.06028009912769382	0.01500519181416609	0.0063303124244984965	-0.0014744862523342617	0.9999788762943445	0.964570646215038	-0.2637447301321297	-0.006495058724455716	0.2637487357408794	0.9645913866595646	-0.0002473403848021749
289														9.794119811101412	-0.05746688275998318	0.02867321542692007	0.00634113544447551	-0.0014596476429611371	0.9999788294909211	0.9645725730359981	-0.26373752238817205	-0.006501586826464734	0.26374142895644664	0.9645933799862543	-0.0002644592685568381
290														9.789831334991176	-0.0681974972200003	-0.00353963273388457	0.006333079651097917	-0.0014494265976157106	0.9999788954096335	0.9645720148554263	-0.26373982164272025	-0.006491119904065368	0.26374366392365844	0.9645927667375512	-0.00027220896398244543
291														9.767457997897553	-0.09073977652530334	0.0083507777313319	0.006324057805054462	-0.0014962205772702242	0.9999788835854796	0.9645757224595124	-0.2637261718229924	-0.006494762297325318	0.26373032046882205	0.9645964273309193	-0.00022460151103509407
292														9.780801467397813	-0.07207810718426702	0.018832840699190688	0.006332356275917994	-0.0014743368268762547	0.9999788635740839	0.964573040707534	-0.26373592516269895	-0.006496993058155709	0.26373992948398495	0.9645937943556846	-0.0002479642847619812
293														9.753421641965469	-0.06118450633437073	0.037420733731850536	0.006322040575074794	-0.0014817885580530321	0.9999789178305899	0.9645693915923744	-0.2637494675306905	-0.006489004576595514	0.26375352245246886	0.9645900801272775	-0.00023814694747359422
294														9.780816314295523	-0.06997385000569833	0.0190570064449225	0.006316000587296311	-0.001495785386142534	0.9999789351594668	0.9645745955309499	-0.26373048764727325	-0.006486874566145939	0.2637346351787848	0.9645952480244816	-0.00022292533102863388
295														9.803456766345759	-0.07289099378572185	0.05466640969090515	0.006308597642150193	-0.0014836185747445496	0.9999790000153574	0.9645736024351994	-0.26373437417665974	-0.00647652397723425	0.26373844445012473	0.9645942041882536	-0.00023273473780366372
296														9.771524030840904	-0.04620777972959238	-0.005984891626419115	0.006316753493227412	-0.0014906239388104425	0.9999789381109883	0.9645743095588128	-0.26373154919106917	-0.006486239312479436	0.2637356630500432	0.964594965776596	-0.00022810962803698764
297														9.762486025989308	-0.05127556956487919	0.016017091995921374	0.006340415386681342	-0.001497631601354854	0.9999787778909668	0.9645726675099279	-0.26373694686045673	-0.006510910343964393	0.2637411007512991	0.9645934791197335	-0.00022762728724434744
298														9.771800926739417	-0.0720601023696978	0.04122687401805929	0.0063455227896455635	-0.0014805145191511548	0.999978770983307	0.9645650259156064	-0.263764883093266	-0.006511315321925948	0.26376892372103256	0.9645858668483355	-0.000245673551243053
299														9.77656889634267	-0.07685825185896428	-0.012896013594673695	0.006338127381703251	-0.0014683548308436212	0.9999788358137308	0.9645640319732781	-0.2637687729200652	-0.006500973442211622	0.26377273620438213	0.9645848217582185	-0.00025547782607693303
300														9.76753732499756	-0.08167974697813203	0.00906641457738575	0.00632988641541099	-0.0014735726222457335	0.9999788803378272	0.9645652266772531	-0.26376456591297015	-0.0064944017277405175	0.26376856526702885	0.9645859642107949	-0.0002482428322373442
301														9.785625758034291	-0.0687272980646492	-0.034695383732524156	0.006320396056216482	-0.0014515447085234334	0.9999789725847503	0.9645592266505398	-0.2637868746866904	-0.006479431019925319	0.2637907331143501	0.9645798970334124	-0.0002671366809493536
302														9.767555089955279	-0.07952231493162797	0.00910583135715418	0.006327343314590894	-0.0014586422544258792	0.9999789183224583	0.9645573619196073	-0.26379348245928713	-0.0064880026734189244	0.26379738492499843	0.9645780792526732	-0.00026216780275795104
303														9.762516354894156	-0.045124708061086795	0.016042255998162464	0.006336091101547814	-0.001433960488845032	0.9999788986308014	0.9645542824788806	-0.26380469481942775	-0.006489926261647294	0.26380843447700064	0.9645750498268895	-0.00028835784897091044
304														9.794970841170995	-0.08734761600258587	-0.009470508853059825	0.006325555895568324	-0.0014451092857342696	0.9999789492793161	0.9645511286027714	-0.2638164037448828	-0.006482702078441871	0.2638202184324258	0.964571830800729	-0.0002749036155466622
305														9.776616335018455	-0.070620646479961	-0.012594043749471113	0.006335592885934993	-0.001459798448711358	0.9999788644022802	0.9645554000497454	-0.26380045261578544	-0.006496263124547319	0.2638043602703722	0.964576171273268	-0.00026327579421026037
306														9.784874210258476	-0.01865219621075873	0.004672631102019114	0.006363935070248072	-0.0014446654375697143	0.9999787064093888	0.964560496242235	-0.2637812421520593	-0.006519614839037513	0.26378504396450225	0.9645814476914273	-0.0002852194864388924
307														9.76759252899526	-0.07476377280716763	0.00925994242215789	0.006356553980409851	-0.0014325211304187513	0.9999787708270134	0.9645595003906557	-0.2637851385944083	-0.006509290503331433	0.26378886335025986	0.964580400246625	-0.0002950126068494985
308														9.767600419737093	-0.0737236569441149	0.009274631030244937	0.0063619148509140855	-0.0014292540258402098	0.9999787414102163	0.9645535802289746	-0.26380667916872147	-0.006513592974607574	0.2638103805897284	0.9645745141039657	-0.0002997235422929623
309														9.808315821387346	-0.06481388839796544	0.00104378620735629	0.006356634032449571	-0.001426992309303543	0.9999787782231816	0.9645575884264395	-0.26379216393642446	-0.006507907091392651	0.26379585253136406	0.9645784871842664	-0.0003004139862068378
310														9.749244057963462	-0.05598487847036221	0.006085887401681022	0.0063663582612103475	-0.0014294264898834785	0.9999787128846296	0.9645603975064077	-0.2637816447768058	-0.006517932273666538	0.2637853465315521	0.9645813602899205	-0.00030056027009228714
311														9.78092108212161	-0.05309112320704732	0.01978332797365998	0.006374305443708039	-0.0014342449297928273	0.9999786553579995	0.9645596609613751	-0.2637841171052676	-0.0065268682438314185	0.2637878478554086	0.9645806770325003	-0.00029802573041126657
312														9.780925606809634	-0.05218860600453466	0.019946960828090155	0.006383512863313734	-0.0014502325767374868	0.9999785735649523	0.9645636102008767	-0.2637693512376566	-0.006539971247380427	0.2637731840801386	0.9645846910319169	-0.0002849334767247025
313														9.780931198952633	-0.05105486651224203	0.020140374219687507	0.006344279576677436	-0.001448414931749742	0.9999788258812472	0.9645656061458836	-0.26376299966102246	-0.006501649809294074	0.26376683179861	0.9645864306032943	-0.0002762949852386787
314														9.767643544278066	-0.06763983357259828	0.01017851101789818	0.006347715474205207	-0.001490209025118372	0.9999787426667229	0.96456300769816	-0.26377214809551863	-0.006515985677957414	0.26377625118372217	0.9645838652839562	-0.00023695004676321796
315														9.780940265496161	-0.04902581702758127	0.020766730332422503	0.006353164339523709	-0.0014998919118737741	0.9999786935865824	0.9645584377333489	-0.26378866605397533	-0.0065237917552568025	0.26379283064608994	0.964579333173647	-0.0002291593470587494
316														9.771910117228552	-0.054037063008167206	0.04287550306177487	0.0063604128996093134	-0.0015200013203965357	0.9999786171432525	0.9645585624456618	-0.26378790563738064	-0.006536088448124422	0.26379219996145414	0.9645795096493754	-0.00021166970925978745
317														9.795076897274019	-0.0747378114545119	-0.007476315195567932	0.006362544518074165	-0.0015640351972424082	0.9999785356802202	0.9645524987589214	-0.26380973793155615	-0.006549756514941829	0.26381431948470285	0.9645734684130524	-0.00016990714424391928
318														9.758632683975902	-0.06980554979766068	0.03336059507526832	0.006333704676953766	-0.0015775352570037149	0.9999786975568921	0.9645466898662256	-0.263831576888516	-0.006525496504216466	0.2638362508321641	0.9645674732329679	-0.00014942488217667416
319														9.758324029157627	-0.041166960813857754	-0.013497167761153075	0.006341255234393661	-0.0015971122759110279	0.9999786186286336	0.9645471226950351	-0.2638296863074013	-0.0065379449115886	0.2638344870989785	0.9645679581321971	-0.00013252132893432078
320														9.795100280255467	-0.07169871343914937	-0.006545522026272028	0.006346144877645343	-0.0016245968651449338	0.9999785433349142	0.9645443225859712	-0.2638396263366219	-0.006549911581147538	0.263844606183945	0.9645651933693111	-0.00010736881042949786
321														9.758649811190761	-0.06701711609879817	0.034060004229741585	0.006374841585596092	-0.001621929508373643	0.9999783651356804	0.9645503423052977	-0.26381694727821886	-0.0065768904152601615	0.26382190688699714	0.9645714010240356	-0.00011735858399736232
322														9.786077384661132	-0.0760574840026391	0.015620568526314988	0.00639696664439765	-0.0016474290157429405	0.9999781821596854	0.9645496257118396	-0.263818866003079	-0.006604958743233913	0.26382399124587	0.9645708330228981	-9.861344546285844e-05
323														9.780969549783151	-0.04166836808664869	0.0229289826412193	0.006370158424318095	-0.0016821972954823017	0.9999782954114096	0.9645492146630315	-0.2638207860517062	-0.006588272913996496	0.26382614270496113	0.9645702478613567	-5.801812251182703e-05
324														9.767699556161409	-0.058438739123808335	0.013016218534587188	0.006392198966501783	-0.001707615634378934	0.99997811168106	0.9645485890402243	-0.26382237351735816	-0.006616238522059836	0.263827896881444	0.9645697690061168	-3.932685257446167e-05
325														9.758669079205584	-0.06355518267039456	0.035157948470045705	0.006399756172131066	-0.001727207949365761	0.9999780296954714	0.9645490198943963	-0.2638204855514575	-0.006628697017734331	0.26382613847323205	0.9645702505033489	-2.2410046028042974e-05
326														9.76379860395408	-0.0960809217201289	0.028407631246094203	0.00640728734577789	-0.001735938940830184	0.9999779663496904	0.9645493631199034	-0.2638189901139447	-0.006638264852171949	0.2638247008410279	0.964570643846915	-1.5965277140206346e-05
327														9.79514413164756	-0.06557933325843451	-0.0048827157779279895	0.006412342827216644	-0.0017603892912917418	0.9999778912001049	0.9645459588866211	-0.26383115078198205	-0.006649591908029995	0.26383702366224976	0.964567273396002	6.200589669547174e-06
328														9.786115378046505	-0.07061804594372392	0.017269594396519518	0.006422025171258339	-0.0017766180930754993	0.9999778003640134	0.9645507196438765	-0.26381340154082944	-0.006663212583775335	0.2638193829633813	0.9645720982879444	1.942195499782251e-05
329														9.754459382293604	-0.07176346958970381	0.003911234408091116	0.006427083943130352	-0.0018010675912246144	0.9999777241256527	0.9645473146390791	-0.2638255641507188	-0.006674542912913917	0.2638317085085287	0.9645687263518794	4.158586145880383e-05
330														9.786127642011353	-0.0687427310265058	0.01787707465898018	0.006413529864862377	-0.00183063797117472	0.9999777574522801	0.9645416160296447	-0.2638465306843788	-0.0066692722795491655	0.26385287108840433	0.964562935743664	7.353890279754305e-05
331														9.736071946441605	-0.05419002387837593	0.00122572391206192	0.006436818937436639	-0.001852451701448543	0.9999775676407248	0.9645411330562207	-0.26384758146811427	-0.006697491772948261	0.2638540695244031	0.9645626066648658	8.842675405623668e-05
332														9.777104680568433	-0.07278282483888295	0.04030534082925983	0.006409948423189316	-0.001860616083619926	0.9999777250864154	0.9645375523466033	-0.26386127311995244	-0.006673729148122365	0.26386781288068606	0.9645588456156049	0.0001032969315755139
333														9.804550770895709	-0.08144988142974967	0.021948386980292063	0.006415422730328912	-0.001870322350872533	0.9999776718734752	0.9645329782150152	-0.26387779467847505	-0.006681572516875067	0.26388439947610554	0.9645543071128391	0.00011109998529990062
334														9.79552417983338	-0.08637432203990691	0.04399507713757209	0.006407570083375169	-0.001873395761347152	0.9999777164686962	0.964533542210415	-0.26387590431058766	-0.006674809008451965	0.26388252878251783	0.9645548183035483	0.00011614969947004727
335														9.786160014619808	-0.063673584079408	0.01890008394916353	0.006399831437503889	-0.001876045289886219	0.9999777610585354	0.9645337145073933	-0.2638754455626923	-0.006668043765636289	0.26388208680420383	0.9645549386546939	0.00012075055994054118
336														9.78195004422683	-0.07452327690427314	-0.013290200708264985	0.006423465470152712	-0.001855641166813915	0.9999776475937925	0.9645297223805303	-0.2638895968137776	-0.006685457202043887	0.2638961040559185	0.9645511066238652	9.473534639908854e-05
337														9.777139277218701	-0.067680430034669	0.04080050570191026	0.006410720067750619	-0.0018679813967659165	0.9999777064083555	0.964522221463628	-0.26391724020007357	-0.006676423297362566	0.26392382797140895	0.9645435194799035	0.00010981001848536787
338														9.776799569023867	-0.0390892331446139	-0.00592487841703142	0.006401807406393956	-0.0019171970310187803	0.9999776703594312	0.9645266005812958	-0.2639011244889006	-0.006680813167774746	0.26390804010681507	0.9645478323282042	0.0001597433616644106
339														9.781973071359165	-0.07157184981386068	-0.012542965247880039	0.006412301719700975	-0.0019172182885919264	0.9999776030795335	0.9645296965743558	-0.2638895521980412	-0.0066909391641211124	0.26389646987566207	0.9645509984001628	0.00015707454479174654
340														9.795221729172775	-0.05291523978535413	-0.002074445465234823	0.006416924494587528	-0.001943565365486677	0.9999775225642327	0.9645267722681945	-0.263899950820654	-0.006702352926729216	0.2639070454874761	0.964548100672292	0.00018119477012368268
341														9.772953651727699	-0.07564186148083098	0.009929139422004586	0.006405866861915965	-0.0019805686336890616	0.9999775208561614	0.9645254386557567	-0.2639048478186651	-0.006701453851773176	0.2639121881529302	0.9645466855708409	0.00021976951085617147
342														9.791028487540407	-0.06280489991076847	-0.033459321592502034	0.006410581671652482	-0.0020071062252720595	0.9999774377290881	0.9645222844279802	-0.26391608205277883	-0.006713007950395922	0.2639236012266849	0.9645435569006264	0.00024404308302722333
343														9.750346130741091	-0.07003073097733112	-0.024877914432051607	0.006435977098884937	-0.0020388479875586007	0.9999772103891498	0.9645267994690332	-0.2638987424545768	-0.006745875548494873	0.26390648211971884	0.964548234579161	0.00026807726118160957
344														9.782355413991272	-0.09483245493187199	0.0363780165870706	0.006457927967267241	-0.002105254905788667	0.9999769312679928	0.9645299417243973	-0.2638862655334502	-0.0067845692524229895	0.26389446125961247	0.9645515055011794	0.0003264228972291727
345														9.782361861129898	-0.09403044444220805	0.036724676796721846	0.006463835910979987	-0.002100203752150309	0.9999769037180385	0.9645241999683629	-0.2639071388683266	-0.006788941723347486	0.26391530175551614	0.9645458056507907	0.0003198449024323091
346														9.77717972269461	-0.05944521236547069	0.043826478438306	0.006423750107289183	-0.0021165897314989746	0.9999771274796578	0.9645277934842882	-0.2638948862951916	-0.00675459721806787	0.2639031470651488	0.9645491221473153	0.0003463148192824339
347														9.786573988022488	-0.0800042721145654	0.06934966698665683	0.006447059292668034	-0.0021384203135479396	0.9999769310264313	0.9645273053962963	-0.2638959457894145	-0.00678284165162113	0.26390436254718747	0.9645487841236823	0.00036121197323207843
348														9.764319648948781	-0.10286214345325827	0.08104466805058863	0.0064579848067433665	-0.0021251126813978116	0.9999768888971019	0.9645287311108535	-0.2638905541729741	-0.006789865975646736	0.2638988846015126	0.9645502886394113	0.0003455310485640517
349														9.804656669789399	-0.06623076556567535	0.025548840336756085	0.006451101449572227	-0.0020982674761967357	0.9999769900171127	0.9645265736152586	-0.26389879243686076	-0.0067761449493575765	0.26390693829472417	0.9645480934738111	0.00032139685691456865
350														9.773013167680633	-0.06721073645111891	0.011819261603984754	0.006445885702466125	-0.002085206679176721	0.9999770509719795	0.9645305898577865	-0.2638843306664279	-0.006767662618870185	0.26389238675282434	0.9645520783979669	0.00031027739409411614
351														9.763621637578884	-0.04456728642874081	-0.013532181992047622	0.006454724261882705	-0.002060572669257965	0.9999770450240237	0.9645275198873283	-0.263895499528513	-0.006769690435820264	0.26390339125275236	0.9645490756663821	0.00028410636281855917
352														9.759438588391113	-0.05531364089961253	-0.04579938730729217	0.006441911636627107	-0.0020467844772478205	0.99997715596296	0.9645177010491761	-0.26393179393685673	-0.006753703582858428	0.26393958804483725	0.9645391743327881	0.00027393456390045756
353														9.782065919617098	-0.05796499521127312	-0.010172544569945683	0.0064205784080834105	-0.002057178956212824	0.9999772718355395	0.9645237816057918	-0.2639100279555835	-0.006735863815925447	0.26391788664235927	0.9645451078924334	0.0002897429991179923
354														9.773041768509776	-0.06291382482852005	0.011821510731539439	0.006443720221741278	-0.002051456108753791	0.9999771347373588	0.9645204140043975	-0.2639218033219151	-0.0067566781848817925	0.26392962970930267	0.9645418981356602	0.00027803303430318227
355														9.754987915023092	-0.07387927444201553	0.05572122303962157	0.006435601780446776	-0.00206888990816656	0.9999771511010996	0.9645217445214426	-0.2639170235000021	-0.0067534474316718884	0.26392496542585075	0.9645431687599302	0.0002970244371207631
356														9.795673150771764	-0.0648133740224681	0.047715591722406844	0.0064381530060355074	-0.0020860019391264473	0.9999770991286654	0.9645138619091418	-0.2639456510727728	-0.00676043377919916	0.2639537087653511	0.9645352984083475	0.0003126552993726883
357														9.764411739091186	-0.09344500582396863	0.08135426081152629	0.006428364868126202	-0.0020787577510626987	0.9999771771852266	0.9645090278933677	-0.2639636053423112	-0.0067490863736522355	0.26397161066545144	0.9645304006722134	0.0003081262506568483
358														9.764036859595546	-0.0648921254510443	0.03427724634452344	0.006438053700516977	-0.002081103442170218	0.9999771099745298	0.9645119796707358	-0.26395256458735844	-0.0067590472254077105	0.2639605889828786	0.9645334170759561	0.00030790841570460525
359														9.787725246101079	-0.11295598525309693	0.03082100719653703	0.00643035690760585	-0.002083789247164125	0.9999771539052351	0.9645121458985997	-0.2639521290381461	-0.006752332212526246	0.2639601692000504	0.9645335304687979	0.00031253364214500756
360														9.79152289631505	-0.07255982828988401	0.015813465258079355	0.00644146182686961	-0.0020571099053185438	0.9999771376728424	0.9645133265460168	-0.2639477209281091	-0.006755999703536186	0.26395558430287114	0.9645347940409899	0.0002839007492018708
361														9.768909005849023	-0.06779239861207215	-0.019852696141953532	0.006452404738305384	-0.002042420986302085	0.999977097232536	0.9645152565218245	-0.2639404973840529	-0.0067626753063214085	0.26394826464618604	0.9645368019713785	0.00026689528557721776
362														9.75949353815148	-0.045194425729431074	-0.045189284364077556	0.006449944124909346	-0.00202257207000478	0.9999771534505214	0.9645217604271588	-0.26391692418304635	-0.006755056791407699	0.26392455718117735	0.964543294171901	0.0002485653589532899
363														9.795319098287502	-0.029941903324096318	0.0006278940033334395	0.006406235350502498	-0.002015744581880252	0.9999774482069157	0.9645149077357538	-0.2639430882900705	-0.0067111026955682385	0.26395066376905435	0.964536149098457	0.00025333415668638004
364														9.764078034853938	-0.058431869349065337	0.03416964013278323	0.006416566679294244	-0.002004059132638236	0.999977405454265	0.9645165167886169	-0.2639370333300959	-0.0067179817550873655	0.26394453302541426	0.9645378303539478	0.0002393785605529497
365														9.791156366723383	-0.039665080493299976	-0.031408677176975035	0.006424176661133374	-0.0020237150619850097	0.9999773170085282	0.9645169300653904	-0.2639352039034385	-0.0067305094670104815	0.2639428376968424	0.9645382899179268	0.00025634106194488693
366														9.773112257244586	-0.05059321701455488	0.012668383557800386	0.006413111007674943	-0.0020469590461880682	0.9999773407262122	0.9645139765706732	-0.2639461124301862	-0.006725974488444253	0.2639538993972829	0.9645352558054348	0.0002816048904571433
367														9.80059813235664	-0.05927736095571968	-0.005635283513102894	0.006421142366800581	-0.0020518576709517844	0.9999772791472836	0.9645132283583071	-0.26394861601808345	-0.006735014771743597	0.26395643817217745	0.9645345602839939	0.00028419222536935074
368														9.765206090895589	-0.0997638444253513	-0.004132266618263961	0.0064020036110730705	-0.0020601938917736984	0.9999773847197206	0.9645235148656999	-0.26391143922559157	-0.00671874370646891	0.26391931270916896	0.9645447153175457	0.00029754346687266287
369														9.787838849889981	-0.10241475611987524	0.03156498897782944	0.0063943258404503545	-0.0020628919742464724	0.9999774282821332	0.9645236765003243	-0.2639110188185404	-0.00671205009350917	0.26391890812775026	0.9645448245793777	0.0003021751040122589
370														9.778411473620762	-0.07974994658444085	0.006380806492665211	0.006386317239784556	-0.002053929637290175	0.9999774979094072	0.9645230845814485	-0.2639134385178753	-0.006701960844413768	0.2639212652697793	0.9645441816437013	0.00029562760705481583
371														9.806323721182808	-0.1159096715372174	0.035084969692734294	0.006391851469568055	-0.0020636520741326714	0.9999774425330343	0.9645184967342435	-0.26393000417100965	-0.0067098700289812685	0.26393789741586177	0.964539628132721	0.0003034292113013315
372														9.782584183943003	-0.06581961866277605	0.03883960240166652	0.006370485820831939	-0.0020758014710441364	0.9999775537274126	0.9645253640293924	-0.26390534878360034	-0.006692460487395857	0.2639133173115288	0.9645463482547949	0.0003209578870440599
373														9.774282525191097	-0.08835521268956496	-0.025457145145349483	0.006366157254578286	-0.002044171959557417	0.9999776464515646	0.9645270433504513	-0.26389952841639014	-0.006679936170668366	0.2639072842637112	0.9645480082725832	0.0002916332389440446
374														9.768998385030006	-0.05383836106950478	-0.01857715728841426	0.006357914487328087	-0.0020493214401873794	0.999977688353598	0.9645258605507758	-0.2639040181239669	-0.006673345998027713	0.26391180582186213	0.9645467689540299	0.00029874434554744145
375														9.778453349147544	-0.07440034337253619	0.006809762494154729	0.006365958756736179	-0.0020542304993842464	0.9999776271028082	0.9645251102523309	-0.2639065311885398	-0.006682401421736928	0.263914354027659	0.964546070923047	0.0003013388057226951
376														9.763708617727147	-0.018412171461477868	-0.011484053343152577	0.006358449086946494	-0.0020447633987363822	0.9999776942851535	0.9645253423497826	-0.26390592941959495	-0.0066726593060231765	0.26391368681870825	0.9645462556870059	0.0002941937012327367
377														9.769016055332308	-0.050745210347786375	-0.0179835735107161	0.006335478216000057	-0.002114263957961937	0.9999776955531012	0.9645360418777418	-0.2638669183951652	-0.006668830141692561	0.26387513265670587	0.9645567786629026	0.00036756067608167964
378														9.773600902189333	-0.06556202507285495	0.06141259616551022	0.006392751314601874	-0.002054868531650267	0.9999774548688324	0.9645284291617614	-0.263893741102753	-0.006708408569737367	0.2639015764814129	0.9645495689295138	0.0002949720566167713
379														9.750984999275667	-0.06093872840847252	0.025998104342381843	0.0063601898706395765	-0.0021288589221078458	0.999977507719298	0.9645226128092943	-0.26391530039946737	-0.006696536014296428	0.26392362032289046	0.9645435097364704	0.000374781149546366
380														9.797702291064212	-0.10295462004614073	-0.07477988430495272	0.006373053674861573	-0.0021546481973614973	0.9999773705829564	0.9645331886281074	-0.2638761583605862	-0.006715734044397015	0.26388465704120345	0.9645541615378603	0.0003965327754246184
381														9.778932134188656	-0.09626279398266094	0.055179072712322745	0.006400584320283176	-0.0021126695715051325	0.9999772843158194	0.964531893150061	-0.2638804992208126	-0.006731212917033436	0.26388872582344	0.9645530668440472	0.0003487477956631291
382														9.768743101009928	-0.05604666398334918	0.11590837824676113	0.006411024260807696	-0.002101294100167961	0.9999772414065398	0.9645342812249988	-0.2638715898944876	-0.006738277846087437	0.26387974365173067	0.9645555290441608	0.00033508302999635253
383														9.787970060619543	-0.08839982139770876	0.03319713175353814	0.006400448755012889	-0.0021235828310766647	0.9999772620673405	0.9645317567651488	-0.26388092758771425	-0.006733962205410837	0.263889227607477	0.9645529256870293	0.00035930672424427934
384														9.787532853348322	-0.05980452884299264	-0.013765302783230234	0.006389941457043136	-0.002120191939502747	0.9999773364603399	0.964526989027691	-0.26389863494681876	-0.006722939117882465	0.26390690799096683	0.9645480886194041	0.00035868551966561357
385														9.80069286803561	-0.04092635130703033	-0.0036988146238855473	0.006406773815540889	-0.00206641296324539	0.9999773413366635	0.9645342818496412	-0.2638719270121753	-0.006724973730675987	0.26387984459991176	0.9645555121776801	0.0003025583908707885
386														9.765375042423383	-0.08162962584579836	-0.0025920526756627515	0.006430478669500639	-0.002061630327456654	0.9999771990522954	0.9645315465682908	-0.2638813736200031	-0.0067465792073734265	0.2638892658269035	0.9645529380686232	0.00029162394385184864
387														9.76906167146978	-0.04124168228363941	-0.01750266166593316	0.006404620823099727	-0.0020669661715169707	0.9999773539850582	0.9645287715130293	-0.26389211721941763	-0.006723049384010471	0.26390003743023416	0.9645499873621373	0.0003035193931769098
388														9.75591794596637	-0.05796853330888084	-0.027675838886250383	0.006413434161709974	-0.0020605556058090335	0.9999773107290233	0.9645279843708316	-0.26389482063573744	-0.006729859372497038	0.26390270030409896	0.9645492614440323	0.0002949914873914272
389														9.760055274069822	-0.045165226293501386	0.00453297289559994	0.006421499856211765	-0.0020654898072892114	0.9999772487869178	0.9645272292512335	-0.26389734877932236	-0.006738942067130327	0.26390526401065983	0.9645485592022319	0.0002976043736302447
390														9.77855297011348	-0.05973388385506566	0.008086563977288611	0.006409246692078485	-0.0020800146494602823	0.9999772972902423	0.9645207518661059	-0.2639212256331488	-0.0067309642650875134	0.26392923441044075	0.9645419950418717	0.00031468105123133583
391														9.765417030022421	-0.07645825821596453	-0.0020608335668357578	0.006402031797054952	-0.0020679921862747364	0.9999773684424997	0.9645197492240859	-0.2639251480169803	-0.006720833350207012	0.2639330736106707	0.964540947628732	0.00030496211525593564
392														9.761005624638445	-0.09705906238808158	0.09925177948960022	0.006412634548465468	-0.002084763851748661	0.9999772656804908	0.9645260352213636	-0.2639018012486438	-0.006735479038541936	0.2639098435039989	0.9645472995438866	0.0003185032042106184
393														9.779042088263388	-0.08411042502804024	0.05555405624409255	0.006400844588005272	-0.0020675797746293467	0.9999773768953153	0.9645161962276123	-0.2639381639933406	-0.006719583502133364	0.2639460861675693	0.9645373868864284	0.0003047870110577944
394														9.797551561195842	-0.09859593432371436	0.058852971022776555	0.006406998165292999	-0.0020507213750644016	0.9999773722021671	0.9645104073740152	-0.2639592794585435	-0.006721075430119683	0.2639670896943799	0.9645316445454591	0.00028675548967099784
395														9.788072131581675	-0.07610298159372952	0.03356689843684395	0.00641757576199653	-0.0020508695468385296	0.9999773040701678	0.96451349082088	-0.2639477513486631	-0.006731313579428966	0.26395556585504937	0.964534799005244	0.00028418665435075985
396														9.783957412377154	-0.08706394491307065	0.0012116461078476729	0.006442501791948274	-0.002001391210186665	0.9999772440430255	0.9645073717649897	-0.2639698300771639	-0.006742300796121037	0.26397731717261785	0.964528860761697	0.000229730472718237
397														9.79709822071484	-0.06826002290103579	0.011095549820221226	0.006451855008071605	-0.0019620490998993323	0.9999772617066274	0.9645031471640502	-0.2639853004249708	-0.006740939858884798	0.2639925239047462	0.9645247075751185	0.0001892076491391559
398														9.746962912754153	-0.05388784577157815	-0.0061384790335111215	0.006445202592655186	-0.00193771750629812	0.999977352050738	0.9645014353345692	-0.26399188224548664	-0.006728101221080696	0.26399894053025225	0.9645229553304323	0.00016745015220887005
399														9.787612963648309	-0.04459139452693869	-0.014473184317723922	0.006453708856772378	-0.0019279070088211725	0.9999773161510002	0.9644995199234112	-0.2639987369757897	-0.006733716856034411	0.2640057304482261	0.9645210988100537	0.0001556943974675984
400														9.764220962729562	-0.022131002237339385	0.03606864983829154	0.006460233211960653	-0.0018965066712360312	0.9999773340677749	0.9644908199173738	-0.26403057055541546	-0.006731723946728718	0.2640373528157716	0.9645124473404316	0.00012346421344427982
401														9.797127113600173	-0.06406268048348772	0.010601146905191098	0.006452609715988988	-0.0018992695176715535	0.9999773780457004	0.964490967356813	-0.2640302007560388	-0.0067251004339055065	0.2640370006551607	0.9645125431346273	0.0001281444556573974
402														9.787626750819895	-0.04151047319512987	-0.01431390858286292	0.006443335734699629	-0.001948351248377056	0.9999773434193509	0.9644939995319926	-0.26401902186456905	-0.006729112902622125	0.2640261507718316	0.9645155053295351	0.00017800988981980792
403														9.765504937426567	-0.06425392916831804	-0.0021596801741875075	0.006416657264354753	-0.0019832425592929415	0.9999774463749186	0.9644935218320786	-0.26402118746090664	-0.006712593812138623	0.26402854552776256	0.9645148414206409	0.00021869113019507003
404														9.77090950962622	-0.09663481748818215	-0.008577027302176769	0.0064219014753647	-0.0020236474536554083	0.9999773317592875	0.9644927200062368	-0.26402371627571886	-0.006728320661924858	0.2640313470715394	0.9645140652654798	0.00025625894382746983
405														9.78042876134777	-0.11724996718582324	0.016883333921850475	0.006432920230401318	-0.00200905346154312	0.9999772903628854	0.9644946472466679	-0.26401650317754655	-0.0067350933495261	0.26402403862117474	0.9645160702414914	0.0002393242052400879
406														9.788657403566681	-0.09247147702770589	0.08111275036251568	0.006430616271190459	-0.001988773931200727	0.9999773457197034	0.9645016592697355	-0.26399107913155195	-0.006727511046857426	0.2639984781022413	0.9645230712208025	0.00022055042764296262
407														9.779661609163876	-0.09729697868567047	0.10310587501673281	0.006406875536185408	-0.0020041107736581965	0.9999774674890782	0.9645038670333899	-0.2639834925987127	-0.006708659554782115	0.26399098928467307	0.9645251158862542	0.00024166321046914518
408														9.788164837410202	-0.06263884435092713	0.0343511519155465	0.006383303970020959	-0.0020229297863676443	0.9999775803414321	0.9645074551709624	-0.26397083347889705	-0.0066908887369253045	0.2639784505410619	0.9645285412197688	0.00026612479092341657
409														9.79307343102428	-0.0675095046839271	-0.01982913511782869	0.006413817348588757	-0.0019614493566695312	0.9999775075787654	0.9645088573332201	-0.26396537521889646	-0.006704089148634573	0.26397258772983334	0.9645301619970046	0.00019880957471263283
410														9.778657317071673	-0.03900899452459631	0.00843437638766236	0.006401736936770652	-0.0019035939016810444	0.9999776967985086	0.9644947547848861	-0.26401758152594007	-0.0066771728774894235	0.2640244037141921	0.9645159889682757	0.000145835229800384
411														9.765032261211879	-0.02825983638379477	-0.049329431418781926	0.006413192169859305	-0.0018742478445283317	0.9999776788314875	0.9644955274794682	-0.26401467525443245	-0.0066804732166835246	0.2640213030009032	0.964516841970794	0.00011452681536594511
412														9.787666909679809	-0.030792783965080516	-0.013918187116240984	0.0063923603758815895	-0.0018567832169125165	0.999977844797029	0.9644999969598851	-0.26399897086597063	-0.006655767881378671	0.26400548023328463	0.9645211743335625	0.00010329084643012632
413														9.784100829936488	-0.0690921350538127	0.0012073165852656547	0.006400031723637123	-0.0018765239829144353	0.9999777588785054	0.9645003834631032	-0.2639972405679245	-0.006668378517189655	0.2640038823454375	0.964521609726948	0.00012031738651130386
414														9.784908748714559	-0.08597167165747444	-0.08487569746174	0.006408276951160696	-0.001867993958916181	0.9999777220443898	0.9644978708659642	-0.26400627596199516	-0.006674080288791295	0.2640128615835592	0.9645191531800956	0.00010985086295617341
415														9.78821075110209	-0.05548179973317134	0.033563105927640016	0.006442786357515606	-0.0018869225699035819	0.9999774647596645	0.9644876020925732	-0.2640428176196763	-0.006712367181550105	0.2640495330684548	0.9645091134803637	0.00011874196162064976
416														9.793651918746702	-0.08827208125016774	0.027003738475062745	0.006476588459797705	-0.0019364105840862789	0.9999771517969658	0.9644802554975536	-0.2640684866387406	-0.006758041114004687	0.2640755394906838	0.9645019879079435	0.0001573668617270152
417														9.770216285753731	-0.06611084627358037	0.07791401404956032	0.006491260152830303	-0.0019331741780012068	0.9999770629265585	0.9644608980953208	-0.26413883638630087	-0.006771348289591361	0.2641458680100756	0.9644827307682026	0.00014987700044039043
418														9.787948372893165	-0.062990689323385	0.16740080973372232	0.006514664220270416	-0.0019103779622084982	0.9999769545375222	0.9643968894285537	-0.2643720175867825	-0.0067879288168815055	0.2643788925209919	0.9644188855332182	0.0001200676405733736
419														9.772327413136884	0.9904757769794335	0.5035362908974086	0.00650093904415977	-0.001824347502580037	0.9999772045140496	0.9640214985035314	-0.26573851986812763	-0.006751998319174557	0.2657447802207025	0.9640434174945058	3.116029388045005e-05
420														9.901166972351712	0.5534535333902393	-0.45989194814908807	0.006395735374534861	-0.002151309293573933	0.9999772329595022	0.9630577946657743	-0.2692104624568909	-0.0067387711967529795	0.26921883051249257	0.9630789680872853	0.0003500363059828482
421														10.057063369025048	-0.10419127935818115	0.07886945855941509	0.006307117492188041	-0.0024368090402002718	0.9999771408540503	0.9620106953330579	-0.27292873104270843	-0.006732743588110601	0.27293889853545256	0.9620311687950233	0.0006228427854767515
422														10.259291225579243	-0.34671602279898533	-0.03472779837426368	0.00569111543053219	-0.0038578741094491553	0.9999763637269193	0.9611756331178504	-0.275859931799169	-0.006534548818191321	0.27587862096519167	0.9611901033797183	0.002138143875110965
423														10.175050336550397	0.02214504552175384	-0.3546326309367665	0.004683183589079487	-0.00629926494667532	0.9999691930517673	0.9603635449649411	-0.27868038786212124	-0.006253233034942185	0.27871119334149924	0.9603632441332547	0.004744472995828253
424														10.404747583510728	-0.2811707785155219	-0.5351657872700463	0.003271314641378198	-0.009875866306639502	0.9999458814181952	0.9595213462537834	-0.2815736842735305	-0.005920000672108849	0.28161691104023695	0.959488784504188	0.00855498841797836
425														10.490433342376445	-0.14410140444996425	-0.5229102756187215	0.0011475730913172444	-0.015112791125024116	0.9998851367134183	0.958609900364747	-0.2846715086682782	-0.005402876568637749	0.28472046290825254	0.9585059914768073	0.014160589831380188
426														10.450771153948384	0.11456544132014564	-0.4823573431965787	-0.001477845059491334	-0.0218092549416406	0.9997610576397098	0.9575765435774277	-0.28813789311037036	-0.004870086675185514	0.28817525772398844	0.9573405407444144	0.02130985412680053
427														10.517954778314639	0.2102452737924331	-0.34528340370182437	-0.004231754172494329	-0.029726650709746283	0.9995491075951215	0.9565615287023248	-0.291493917587106	-0.004619287433413555	0.29149980113765883	0.9561106746853638	0.02966890104812092
428														10.405978753056488	0.16857577321543155	0.15537498716534254	-0.006368451090005556	-0.038482003831716516	0.9992389995450586	0.9556906370740984	-0.29432619123850084	-0.005243983213242875	0.2943040078551727	0.9549299600138916	0.03865129271123108
429														10.18298452356432	0.10303873719191484	0.6343907560936759	-0.007799959084567709	-0.04775356730516106	0.9988286927436105	0.9551204381050444	-0.2961419619565233	-0.006699782277717725	0.29611502723149113	0.9539494405775246	0.0479203033120687
430														9.898929450758775	-0.032286782357435796	0.9539069174297944	-0.008884766719380599	-0.057391010623980054	0.9983122421466644	0.9548464604983524	-0.29697594605231686	-0.008574633525673392	0.296966829450884	0.953158727267337	0.057438165360672866
431														9.661919780928063	-0.22626533705756682	1.2493172321307409	-0.010045269557755698	-0.06720939257392111	0.9976883231297023	0.9548435642305712	-0.29692733721652453	-0.010388660210251588	0.29693915270130977	0.9525319175562306	0.06715717109646119
432														9.402822128552108	-0.4482251838815303	1.353320099167853	-0.011615936928093984	-0.07709391463253196	0.996956166707401	0.955069177501094	-0.2961490507573597	-0.011773101668589858	0.2961552569120911	0.9520253505354503	0.07707007033334423
433														9.14694837627666	-0.6230614894814016	1.4411691704668583	-0.013988067646202806	-0.08687319342843791	0.9961211684464246	0.9555148361312347	-0.2946871972217418	-0.012282252508955205	0.2946111537206708	0.9516367500559966	0.08713072963217855
434														8.996463246335379	-0.747907827756928	1.5059693450123954	-0.017048111573691516	-0.09588231018272769	0.995246675194544	0.9560754380921836	-0.2928815309089272	-0.011839152388665009	0.2926245351446285	0.9513290658055531	0.09666379873005099
435														9.073371299834108	-0.9666781525937908	1.7366549045036241	-0.021051572958221798	-0.10350594359946041	0.9944060292031469	0.9566535839106826	-0.2910550765318768	-0.010043048136391286	0.2904664381074536	0.9510906697390151	0.1051464990789524
436														9.239772646773512	-1.0772557388657062	1.6863344792944368	-0.026220527951738126	-0.10865317202901004	0.9937338537666749	0.9572093180272017	-0.2893261951680879	-0.006377638391887541	0.2882061855613656	0.9510440794188209	0.11159011428695573
437														9.429507835130174	-0.8981274056871593	1.4535482518328593	-0.03245695903366663	-0.11108050188896179	0.9932812632433896	0.9577648147439228	-0.2875514185406989	-0.0008610074165300574	0.28571507739149227	0.9513018993964685	0.11572204092499161
438														9.576730679646788	-0.5369003340124414	1.0543225260805118	-0.039655594071143	-0.11124015513624441	0.9930020451862775	0.9582661595592782	-0.2858091910880182	0.006250898585446307	0.2831137603550516	0.9518081393720468	0.11793160951477538
439														9.76990499970271	-0.242760337055624	0.8133196738138947	-0.04764358541957081	-0.11001128371041463	0.9927877951630724	0.9586431173872447	-0.2842408974809259	0.014508124803125744	0.2805948364714385	0.9524204059424726	0.11900381544279248
440														9.943119931380211	-0.016897277451806133	0.8470175992951611	-0.05625945780250119	-0.10808661367294281	0.9925483148706087	0.9588272535137663	-0.28301362201332947	0.02352844393802156	0.27836158378450304	0.9530060722259921	0.1195585838548231
441														11.151244709745887	1.3332146346936793	2.185687347421285	-0.0630724190954347	-0.1055627580322211	0.9924103859120381	0.9589325450567807	-0.28194002312404765	0.03095476363560884	0.27653253692897467	0.9536070089284381	0.1190102035213074
442														10.401836108675395	-0.5430921415565242	0.2495684468951514	-0.06842862386704329	-0.10089186224978719	0.9925413621443857	0.9592044981380157	-0.28019515665421046	0.03764843873681539	0.2743068613568753	0.9546263700104309	0.11594929707957524
443														10.310769314666269	-0.2228555654007688	1.236409016644458	-0.07498524989198369	-0.09702140957658029	0.9924535547734261	0.9593055085831845	-0.27872373818729906	0.045232941235955115	0.2722318010457157	0.9554579655090385	0.11397334181612123
444														10.084365223722152	0.26597280830952874	1.3552175338860954	-0.08250193609156642	-0.0950199840021358	0.9920507210729587	0.9591634076925752	-0.2778125640767478	0.05315765781775855	0.27055311472003074	0.9559243599162732	0.11405976606127655
445														10.286363358598356	0.4212878702255554	0.047008987534121326	-0.09013269025107762	-0.09265760819075719	0.9916101380040804	0.9588797822128295	-0.2771216546084706	0.061262972589812115	0.2691201616593967	0.9563567097016843	0.11382522741900636
446														9.98537937077787	0.8343528923117206	1.4076067574966997	-0.0979670730656188	-0.0899860460048682	0.9911129926095036	0.9584453140017146	-0.2766507236751564	0.06962009162711041	0.2679272898812487	0.9567480800160628	0.11334936577884908
447														9.885846248421773	0.8917859749775252	1.435501001755511	-0.10658366504773265	-0.08811241255056873	0.9903919048030991	0.9577995052041333	-0.2765171849625303	0.07847518238981654	0.26694574388011866	0.9569610489329835	0.11386624016526553
448														9.773954667272214	0.770730497355772	1.0507756419107457	-0.1149030997463465	-0.0853319106353031	0.9897048765647312	0.9571137231378709	-0.27624584004573083	0.08730152827179705	0.2659522488151662	0.9572913354275996	0.11341384600391091
449														9.466449505874692	0.8367664784477739	1.0823907882115222	-0.12322602659154913	-0.08218780175087465	0.9889694189477334	0.9563133719564785	-0.2760567136971809	0.09621551558840458	0.2651039060211839	0.9576209354781626	0.11261466576889406
450														9.347732347711066	0.7208040226174579	1.0868751877109937	-0.1313308382904508	-0.07829399507447649	0.9882420054061685	0.9553963014943743	-0.27599248694573214	0.10510021046782203	0.26451865341559194	0.9579656556916787	0.11104811799582293
451														9.171239428248061	0.906424281717068	1.5051208230548745	-0.13911869030816792	-0.07371461386208583	0.9875283012198199	0.9543961561998999	-0.27598202223794843	0.11385034225819646	0.26414762357022264	0.9583319253289102	0.1087472016080776
452														9.165045801810898	1.0709624709906178	1.1360605872250937	-0.14619461621526197	-0.06836805639301818	0.9868905425905721	0.9533534812150515	-0.27605828163901025	0.12210227268015766	0.26409141228903105	0.9587062292504196	0.10553715910345063
453														9.168963707293036	1.350607513761525	1.0073967399532107	-0.15214091579288438	-0.062154736942849176	0.9864025194702555	0.9523768682730902	-0.27605901409597666	0.12949795950013415	0.2642563954193795	0.959128880501428	0.10119460493541105
454														9.042191111943616	1.5878874028496324	0.8261246942543479	-0.15713813430715726	-0.05593944927244032	0.9859910672828447	0.951471233894819	-0.27606795151709607	0.13597417848925003	0.2645942134989689	0.9595088661186262	0.09660557966604061
455														9.023956261370861	1.6711540696730696	0.9007755748929299	-0.16097207297700275	-0.04973718716720499	0.9857049274170141	0.950692108889885	-0.2760650678955148	0.14132442245538512	0.2650896184613608	0.959851181434153	0.09172351761391906
456														8.977335316101023	1.7612522242751711	1.0211309931457708	-0.16371742932834696	-0.04348847816507684	0.9855482512799685	0.9500383862395595	-0.27607440643636494	0.145636488498394	0.26575113923641386	0.9601519017206053	0.08651391574107486
457														8.917675440856652	1.762653538661391	0.7616352929426248	-0.16527757608799715	-0.03690719619738703	0.9855562803368078	0.9495383825277125	-0.2760538742215526	0.14889969319621554	0.2665711592598349	0.9604332966927579	0.08067031458193885
