// Start Time: 1747398475.5038033
// Update Rate: 100Hz 
// Filter Profile: 46.1 human
// Option Flags: AHS Disabled ICC Disabled 
// Firmware Version: 4.0.2 
PacketCounter	SampleTimeFine	Year	Month	Day	Second	UTC_Nano	UTC_Year	UTC_Month	UTC_Day	UTC_Hour	UTC_Minute	UTC_Second	UTC_Valid	Acc_X	Acc_Y	Acc_Z	Mat[1][1]	Mat[2][1]	Mat[3][1]	Mat[1][2]	Mat[2][2]	Mat[3][2]	Mat[1][3]	Mat[2][3]	Mat[3][3]
0														9.771221565879264	-0.09856244417018802	0.036709686343775645	0.008187960783553994	-0.0054032879585353966	0.9999518797309419	0.9354804342765525	-0.3532489127036439	-0.009568843161323282	0.35328361748595083	0.9355137680189054	0.002162281921921416
1														9.786092865111387	-0.08750819708907288	0.021265401401108188	0.008183145993773011	-0.005389992843453595	0.9999519908969586	0.9354750862357506	-0.3532633233824962	-0.009559674940510077	0.3532978901067184	0.9355084031316345	0.002151398670555471
2														9.77342059505165	-0.06673114831607452	0.024181306475126816	0.008174196325953176	-0.005370991109710732	0.9999521663404336	0.9354802396328517	-0.3532500851445353	-0.009544558755798793	0.35328445164044386	0.9355135112866515	0.002136920502246953
3														9.729036017845774	-0.09547771668371986	0.03788228574758059	0.008157741527855311	-0.005369441608723102	0.9999523090377739	0.9354771807496481	-0.3532586154277326	-0.009528636983946459	0.35329293164434417	0.9355102991003852	0.002141197621180646
4														9.798523157178115	-0.11256803591251803	0.05414272115802254	0.00817008705160277	-0.0054024205128498926	0.9999520306145548	0.9354690967374688	-0.35327939442179845	-0.009551885999722065	0.3533140511312189	0.9355022625999201	0.0021674740313880614
5														9.786087640913115	-0.0876248185794417	0.023109627238994762	0.008185537313740776	-0.005412220404970802	0.9999518512654365	0.9354733547695132	-0.35326763497425256	-0.009569775126461844	0.35330241931687667	0.9355066466626448	0.002171302571171374
6														9.77120754917634	-0.09893451076687072	0.03934497349831966	0.008203713929261724	-0.005406609556559028	0.9999517326605676	0.935472089501932	-0.35327057801737927	-0.009584804127236723	0.35330534788007045	0.9355055677441856	0.0021596015773158728
7														9.798508785451665	-0.11316538848209191	0.05548158110424951	0.008212851087675999	-0.0054110099419938384	0.9999516338545684	0.9354705471090633	-0.35327438781521225	-0.009594915594116515	0.353309219478466	0.9355041036175075	0.002160450490633292
8														9.756571152635418	-0.10571916455260602	0.021669876808954748	0.008197326744371847	-0.005386194544216183	0.9999518952142539	0.9354632886539512	-0.3532942381511244	-0.009571670175636704	0.3533287978851718	0.9354967505007961	0.002142518954633743
9														9.758777645020228	-0.07392578946849834	0.008690074822190325	0.008218104493064093	-0.00537885022416934	0.9999517642010578	0.9354594560854133	-0.3533039286750304	-0.009588534985734143	0.3533384620713187	0.9354931330336187	0.002128207701404927
10														9.756569115789365	-0.10577225958891119	0.022318432504957336	0.008201387623974488	-0.0053802448306888295	0.9999518939462058	0.935457362055619	-0.3533098834419276	-0.009573402644561135	0.35334439434775905	0.9354908760794058	0.0021353583310409485
11														9.771448440236824	-0.09468947558109007	0.006818996103877743	0.008220841633428067	-0.005366011810110982	0.9999518106789405	0.9354613294762726	-0.3532990222874385	-0.00958654813916171	0.35333343857795646	0.935495059723991	0.002115281230401833
12														9.798748627607612	-0.1088628621755939	0.022920064956173675	0.008223091078886247	-0.0053677392741127705	0.9999517829116529	0.9354584730513857	-0.35330651127420676	-0.009589279827936337	0.3533409486168819	0.9354922214889517	0.0021160255641281545
13														9.786328489895812	-0.08370369333821992	-0.008254504680065087	0.008212948232528217	-0.005371596113117549	0.9999518455588384	0.9354612218161201	-0.35329945410957164	-0.009581137937117956	0.3533339071750986	0.9354948645936416	0.0021232897358972047
14														9.786074189529504	-0.08818793099808026	0.026425673918046167	0.008219339610897047	-0.005368871321005386	0.9999518076772997	0.9354643744047145	-0.35329097106055357	-0.009586135127742312	0.3533254118740357	0.9354980839038793	0.0021185693789534388
15														9.813627724406086	-0.09785167127645712	0.008341445367942743	0.008220839631239263	-0.005360983349920856	0.9999518376668349	0.9354648328312325	-0.35328979482619605	-0.009584748702990087	0.3533241632436036	0.9354985733442821	0.0021106726466251224
16														9.770930795984947	-0.1038183009581985	0.07724101283737697	0.00822350849284248	-0.0053564674446782146	0.9999518399225945	0.9354681260745508	-0.3532810507128694	-0.009585630171213777	0.35331538178607	0.935501901368311	0.002105594841954883
17														9.800953996966706	-0.07727690976713784	0.011619960852546735	0.008244284058820384	-0.0053491323711931105	0.999951708115563	0.9354642950042762	-0.3532907369892815	-0.009602496015199302	0.3533250409361174	0.9354982853754703	0.0020912931514129873
18														9.786068524859967	-0.08836147897970242	0.027902760196583706	0.008212217760534823	-0.0053509555443097545	0.9999519622232943	0.9354628645711422	-0.3532953208941423	-0.009573152179815969	0.3533295748841391	0.9354965438252929	0.002104282092712073
19														9.771182901525574	-0.09928428446069476	0.04427616551638704	0.008195760039312605	-0.005349410475919469	0.9999521055155282	0.9354598147141175	-0.35330382735957955	-0.009557229101637199	0.35333803159638333	0.9354933401049055	0.0021085651426235863
20														9.773131582377298	-0.07200564128145998	0.06565124388082752	0.008222744831681839	-0.0053500073521806635	0.9999518807866528	0.9354598225611284	-0.35330311711635387	-0.009582682806489828	0.35333738387175345	0.9354936049258697	0.002099595548086086
21														9.771177286838483	-0.09950564732872821	0.04501209751054268	0.008224244192534091	-0.00534212597225725	0.9999519105924837	0.9354602836175075	-0.3533019339076259	-0.009581298001008376	0.35333612832784894	0.9354940968211549	0.0020917052989773977
22														9.784113613270998	-0.11573021195453054	0.008496099869710243	0.008214903599057244	-0.0053229434677039555	0.9999520896681493	0.9354561825699039	-0.35331321207928934	-0.009565806916228603	0.3533472029754893	0.935489946735429	0.002076946398829105
23														9.7731238814921	-0.07213049743963995	0.06665295043418493	0.00822403355113116	-0.005327359454585401	0.9999519911042685	0.9354546454328055	-0.3533170080185828	-0.009575916821926655	0.3533510600102023	0.935488487949498	0.0020778122215521777
24														9.786329141058859	-0.08393941743212782	-0.003983674335897897	0.00820565460058903	-0.005321068272822638	0.9999521755889185	0.9354571511716036	-0.3533108997516392	-0.009556486728625857	0.3533448535842613	0.9354908307135472	0.002078484157699012
25														9.771438449952198	-0.09516473872698526	0.01230987333135874	0.008241690065165508	-0.00533833546933471	0.9999517871974063	0.9354493232379336	-0.3533305447508809	-0.009596343039831479	0.3533647381935018	0.935483312689469	0.00208170146161335
26														9.771435596183006	-0.09539175426513362	0.012807631035619337	0.008237848876555376	-0.0053502780284137574	0.9999517550216641	0.9354563802847666	-0.35331184463517507	-0.00959692789450367	0.353346145345339	0.9354903072536396	0.00209442213557548
27														9.773381176668003	-0.06812751776039332	0.03416030532820041	0.008257308095277915	-0.005336067699076186	0.9999516704543933	0.9354603526899352	-0.3533009691172066	-0.009610086683559504	0.353335174315044	0.9354944957627247	0.002074364819394159
28														9.798723673075841	-0.10956241083851737	0.02935271151526188	0.00824099898214009	-0.005336430966213723	0.9999518030586869	0.9354546793458465	-0.35331640071857373	-0.009594992091263743	0.3533505749616597	0.9354886656116228	0.0020803092196555184
29														9.798998621465692	-0.10503945300084383	-0.004485800384552531	0.00823618107322771	-0.0053231464488474045	0.9999519135604533	0.9354493413476737	-0.3533307823798195	-0.009585822607744099	0.3533648186980865	0.9354833094902056	0.002069437537046137
30														9.786049616471166	-0.08880311118874465	0.03271676012612846	0.008243104859465777	-0.005326932741097412	0.9999518363450548	0.9354359611517987	-0.3533659904462293	-0.009593715649597934	0.3534000761265988	0.9354699891410343	0.002070171535642207
31														9.78410444949028	-0.11617196514069739	0.012209516502460027	0.008226642094689207	-0.005325393185977967	0.999951980120676	0.9354329178352851	-0.3533744786667869	-0.00957778978372198	0.3534085151634161	0.9354667915080639	0.0020744627251904624
32														9.783824523518351	-0.12055560323225073	0.04695459399381736	0.008220715542861468	-0.005337591436941458	0.9999519638230712	0.9354495928025119	-0.3533303705800935	-0.009576458183974346	0.3533645131610968	0.9354833827190022	0.002088419267040287
33														9.771711296477317	-0.0911056717484052	-0.018538763638381882	0.00824148854813761	-0.0053302734627279635	0.9999518318655771	0.9354457645055534	-0.3533400483257601	-0.009593326731137664	0.3533741636497096	0.9354797691206166	0.0020741337724901054
34														9.786042812780048	-0.08892775412699452	0.03437128287591145	0.008237282647536759	-0.005312879207558685	0.999951959090591	0.9354482737171474	-0.35333367922683584	-0.009583231377603418	0.3533676193062882	0.935482273716907	0.0020594142984929897
35														9.771429446429805	-0.09547955021322335	0.016354135404952487	0.00822081842455008	-0.005311343027029458	0.9999521027427662	0.9354452327415848	-0.35334216167133714	-0.009567305078700572	0.3533760527900453	0.9354790785585083	0.0020637087612518368
36														9.786040835685192	-0.08879149708762586	0.03527490582361326	0.008216077005576305	-0.005328135973714454	0.9999520523733545	0.9354434711630755	-0.35334678441289336	-0.009568814108592394	0.3533808262158757	0.9354772369823405	0.002081045619671207
37														9.786038066661812	-0.08889043407909941	0.03578999253309504	0.008225203673972115	-0.005332569082102279	0.9999519537115303	0.9354419392191724	-0.35335056602077086	-0.009578927010649163	0.3533846691275616	0.9354757833315546	0.0020819283893478424
38														9.771425471862221	-0.09562796163596113	0.017797758051538503	0.0082282624546694	-0.005328328283242589	0.999951951152996	0.9354460161999852	-0.3533397363493808	-0.009580265764976281	0.35337380558348497	0.9354798980385718	0.002076991379218629
39														9.786034416991072	-0.0889856770502966	0.036543215887155596	0.008229763051657069	-0.0053204658714811615	0.9999519806685846	0.9354464851432265	-0.3533385321874919	-0.009578888493638138	0.3533725292567298	0.9354803976110353	0.002069118701878203
40														9.798413726928128	-0.1141877204532416	0.06861945812582963	0.00823829735166609	-0.005330528739635354	0.9999518568011667	0.9354600420001087	-0.35330232811023493	-0.009590347910396868	0.35333644063116404	0.9354940140990982	0.002075887004654109
41														9.771422426165175	-0.09571191575680554	0.018979570436434338	0.008220524118266459	-0.005322116081889761	0.9999520478821131	0.9354648077507715	-0.3532902415116582	-0.009570721626200318	0.3533242369878311	0.9354986265799886	0.002074421346277444
42														9.786322153812103	-0.08477808775894516	0.003336232321316845	0.008274806945849034	-0.005296816501324686	0.9999517344877005	0.9354722823243526	-0.3532693143721789	-0.009612519226369964	0.3533031793981985	0.9355066730162656	0.0020317896452252127
43														9.813600285655044	-0.09903710601787137	0.0193579239363283	0.00827128990060233	-0.0052904202596841254	0.9999517974466854	0.9354591475589908	-0.3533042427402715	-0.009607044807345755	0.35333803787815893	0.9354935186922463	0.0020266902115353425
44														9.771417802011314	-0.09601892880944418	0.01979216800854823	0.008259665255999749	-0.005287470407282557	0.9999519091369098	0.9354596405944182	-0.3533032612164968	-0.00959512546815161	0.3533370044996993	0.9354939060573724	0.002028048495348822
45														9.771713885147976	-0.09163597620152131	-0.01400688324517188	0.008268786958871843	-0.0052919143600648755	0.9999518102411911	0.935458111799385	-0.3533070342995828	-0.009605237277807266	0.35334083861189663	0.9354924559593409	0.0020289436173762665
46														9.798693609786914	-0.11009173143140469	0.03653049475878227	0.00825174002852197	-0.00529024987338006	0.9999519598674622	0.9354464121350425	-0.3533384574511578	-0.009588769979123946	0.3533722100139991	0.9354805972024826	0.002033088170385333
47														9.800924039168452	-0.0783112929339914	0.023692235894435858	0.008260862637493538	-0.005294695912430036	0.9999518610131586	0.9354448838916096	-0.35334222877826627	-0.009598883425698868	0.3533760424102026	0.9354791475801061	0.002033984587081372
48														9.798689153564291	-0.11019047578114208	0.037417242948751026	0.008262858985390087	-0.005293106232466427	0.99995185293483	0.9354262357447498	-0.35339155591269145	-0.00960029635038967	0.35342535653486407	0.9354605236117768	0.0020312858452989913
49														9.784083658557597	-0.11692128436580629	0.01952591383470478	0.008260333966849942	-0.005309299543607704	0.999951787948355	0.9354270060771807	-0.3533894256403003	-0.00960365279988068	0.3534233766804879	0.9354612366014825	0.0020473475003017216
50														9.786012245885507	-0.08952661879773831	0.04089953569327236	0.008253569996221455	-0.005290433252482463	0.9999519437944597	0.9354248958166057	-0.35339536404586325	-0.009590670330276496	0.3534291200068406	0.9354591001144266	0.00203202960053539
51														9.758735395181253	-0.07563336712574308	0.025392147264887015	0.008288282618139298	-0.005300863403627842	0.9999516014379984	0.9354248735472861	-0.3533944398900708	-0.009626827298053808	0.3534283666038781	0.9354593901939083	0.0020295264855421102
52														9.786005993794356	-0.0898430926435624	0.04169396588456317	0.00827816165603612	-0.005308505428968935	0.9999516447357379	0.9354355986370877	-0.3533662355465985	-0.009619998861729429	0.35340021624508156	0.9354700013072235	0.002040542132176082
53														9.783767681320102	-0.12157284230901762	0.05541373131222076	0.008273343934382782	-0.005295230549095753	0.9999517549929973	0.9354302693836206	-0.3533805923284214	-0.009610831727842106	0.35341443504903736	0.9354646532601036	0.0020296797589201
54														9.800912869380094	-0.07875963436316281	0.026642991810651162	0.008280835760250571	-0.005303393342778906	0.9999516497202068	0.9354375950747784	-0.353360931900323	-0.00962068226529561	0.3533948690626765	0.9354720336950682	0.0020348696731490312
55														9.756802997076107	-0.10325272252770872	0.0061004389785788895	0.008282337870477274	-0.005295543412601633	0.9999516788822171	0.9354380710617844	-0.3533597091784553	-0.009619310657503322	0.3533935739195144	0.9354725400295205	0.002027008413878484
56														9.771400119374583	-0.09663663378481602	0.024865438923186715	0.008289963542967349	-0.005296083278458097	0.999951612832523	0.9354472169823407	-0.3533352984819476	-0.00962658229418284	0.3533691847692013	0.9354817573574488	0.0020250696208815033
57														9.786310505169018	-0.08565136040937697	0.009502958852185824	0.008287433306180536	-0.005312285966607322	0.9999515478596972	0.9354479918240346	-0.35333315570602647	-0.009629936199256284	0.35336719293332325	0.9354824748206829	0.00204114227668184
58														9.75840803972148	-0.08029079510908063	0.06263711103003447	0.008257790549049182	-0.0053008074778918	0.9999518540086472	0.9354268587498293	-0.35338996176779613	-0.009598273343847108	0.35342382605686845	0.9354610822272825	0.0020402974014669395
59														9.771397848146842	-0.09650647131428988	0.026226177193369532	0.008264320491027655	-0.005291512623635475	0.9999518492912425	0.9354409475955556	-0.3533525916947466	-0.009601015786622202	0.3533863814132498	0.935475251322428	0.0020296785187667865
60														9.786310192452865	-0.08553801030917896	0.01076195138277648	0.008272902302301932	-0.005300242823227275	0.9999517320918605	0.9354467715556353	-0.3533368721450711	-0.00961209492656695	0.3533707637505346	0.9354811394190441	0.002034973614391755
61														9.771392923402656	-0.09677282986203752	0.027066340475002018	0.008288342077587274	-0.005310132823969249	0.9999515517638832	0.9354510527858657	-0.35332504976457	-0.009630007823506703	0.3533590684097715	0.9354855486314351	0.0020388904635855187
62														9.756797765674069	-0.1035287890810929	0.009067080099046058	0.00828330222653656	-0.005300023235132789	0.9999516471599673	0.9354528975027647	-0.35332039176783325	-0.00962171059155359	0.35335430301314663	0.9354873652352194	0.0020312625043256705
63														9.699376763626523	-0.11597612770552415	0.05926559073890489	0.008299194365276985	-0.005249508009234183	0.9999517818567798	0.9354585841606611	-0.35330541746046257	-0.00961869602494314	0.3533388751510642	0.9354933055125246	0.0019785470000485694
64														9.883666192164979	-0.10805316684732565	-0.02514881443514762	0.008321398320549567	-0.005189838485386122	0.9999519087968614	0.9354444772775616	-0.3533427728804576	-0.009618460586754862	0.3533756984583128	0.9354795296689528	0.001914499792291191
65														9.855432289628247	-0.10702804471030922	0.06198048591937447	0.00828033011283874	-0.005204932392887773	0.99995217126221	0.9354538605631397	-0.35331883092443783	-0.00958532585292493	0.35335182310374547	0.9354884886480295	0.0019433775457604607
66														9.660086545598578	-0.07237491391163568	-0.02195776604676553	0.008312846129596652	-0.005204256735255264	0.9999519049939651	0.935469199146566	-0.3532773997037744	-0.009615420251999351	0.3533104499407123	0.9355041392588136	0.0019316812154808738
67														9.729205883215025	-0.09389725021120875	0.02851780191004758	0.00830931512744626	-0.005197861922226987	0.9999519676032194	0.9354560705185677	-0.35331231139804503	-0.009609929475836831	0.3533452920474143	0.9354909902537852	0.0019265881550518116
68														9.930013948983031	-0.05200576061322668	-0.015955558851835982	0.008325781806140686	-0.005216369267144749	0.9999517342597017	0.9354498686308527	-0.3533281331249595	-0.009631906402747137	0.3533613230615893	0.9354849116015178	0.0019379190033111393
69														9.674676240406406	-0.06606700876786088	-0.002240738940975005	0.00831692216296287	-0.005227153604105916	0.9999517516715165	0.9354448450634065	-0.3533415541866325	-0.009627457051294475	0.3533748302440832	0.9354797822241665	0.0019509996902049576
70														9.798643489660186	-0.11100825589317968	0.04597896918350836	0.008286580017017708	-0.005231125901256517	0.9999519828038881	0.9354465626063776	-0.3533377414348205	-0.009600467991347394	0.3533709964039699	0.9354812001315396	0.0019654772754596483
71														9.798642455135383	-0.11093788034364617	0.04636736011145771	0.008299734728511587	-0.005211544861715489	0.9999519759486406	0.9354447437445308	-0.35334241009340533	-0.009605864360531957	0.35337550255240596	0.9354795460241438	0.0019424639755723505
72														9.74445363699045	-0.07860447913698296	-0.01930374319209071	0.008303232649490788	-0.005221330312671413	0.9999518958616638	0.9354371997741024	-0.35336219734238267	-0.00961263585861366	0.3533953899053519	0.935472017325548	0.0019501780727119167
73														9.812888471043374	-0.10867217082201096	0.0997981823575559	0.008285469254948163	-0.0052129398474543565	0.9999520869808572	0.9354419878113363	-0.3533500548359474	-0.009593028041688989	0.3533831326461422	0.9354766507003687	0.0019487317976661367
74														9.798636526190872	-0.11092749170018959	0.04762822570369053	0.008281120930799357	-0.005224523641343348	0.9999520625454255	0.9354518331027708	-0.3533239905692371	-0.009592999160606186	0.3533571719673951	0.9354864307091528	0.0019613715237268847
75														9.729534128422408	-0.08947577553367213	-0.0022736138584964435	0.008272726600698388	-0.005174899781479114	0.9999523900700682	0.9354482154242677	-0.35333425629755366	-0.009567632215318811	0.3533669456162291	0.9354828292058099	0.0019178130645732816
76														9.84306712894383	-0.0819944933554607	0.03482828396650995	0.008281838775173911	-0.005182276888384019	0.9999522764376079	0.9354483809355352	-0.3533335165606456	-0.009578761922811485	0.35336629402305464	0.9354830677682735	0.0019215013067779285
77														9.756451750893795	-0.10784048436178623	0.048440105315816565	0.008275727298925284	-0.005162144772214217	0.9999524311681157	0.9354508685174009	-0.35332727860286184	-0.009565917893053388	0.35335985188998886	0.9354855351401469	0.0019048926055916238
78														9.77396650092978	-0.06069222585022186	-0.014830396713994916	0.008300721969459746	-0.005133678187091928	0.9999523705472468	0.9354467956179846	-0.3533377000920094	-0.009579262066296501	0.35337004765943486	0.935481755590114	0.0018693248000569707
79														9.798972931342	-0.10651197530445417	0.014562973143973288	0.008294610104187694	-0.005113548541579138	0.9999525244052998	0.9354492842730839	-0.35333145937466404	-0.009566418825488865	0.3533636031005373	0.9354842229762523	0.0018527186302594312
80														9.756791655938114	-0.10342186735801362	0.01495274524617653	0.008270313686060349	-0.005124298894359891	0.9999526706161527	0.9354622524231027	-0.35329763804309167	-0.009547420838557419	0.3533298405216153	0.9354969377363105	0.0018717058946465803
81														9.657503440153613	-0.10838452613088481	0.030936740802847095	0.00827357350388519	-0.005062931284889771	0.999952956247583	0.9354563343817626	-0.3533138096395406	-0.009528818553771079	0.35334543218571823	0.9354911643862807	0.0018129833669992546
82														9.826577549749219	-0.11569281943182924	-0.0032529680630457095	0.008261636384871984	-0.0050000085912141334	0.9999533715520604	0.9354636818960584	-0.35329525549862173	-0.00949538285877255	0.35332625888506397	0.9354985100769815	0.0017585295088190511
83														9.967362121962141	-0.12215807395634715	0.0498094760298641	0.008260370992319466	-0.0050231101556988955	0.9999532662256936	0.9354566605182417	-0.3533136577483476	-0.009502396568356386	0.353344877652313	0.9354914364187664	0.001780399962010626
84														9.74221280353574	-0.10983857341590432	-0.0024893860050537227	0.008277245378444986	-0.005041794262302335	0.9999530326568151	0.935450494718257	-0.3533293786777473	-0.009524814673530613	0.3533608058915321	0.9354853983220762	0.001791754970209225
85														9.714260402623422	-0.10467289688224993	0.050667216492894206	0.008274695817216127	-0.005058030958950022	0.9999529717601477	0.9354512826579888	-0.35332720230189774	-0.009528162836428933	0.35335877968809004	0.9354861326798662	0.0018078664252774712
86														9.815803142172731	-0.06784697854275498	0.02204714831501631	0.008275687645973251	-0.005052711421495604	0.9999529904456895	0.9354568335539704	-0.35331253211153035	-0.009527182695753589	0.35334406115168504	0.9354917021332845	0.0018026892700513941
87														9.786646700177249	-0.08125360493192427	-0.014298400913444373	0.008266811668762641	-0.005063509002522615	0.999953009246642	0.9354518171556844	-0.353325933910799	-0.009522720524621386	0.35335754924008844	0.9354865821072174	0.0018157897442637183
88														9.773619752248047	-0.06482613842876564	0.02277483967650709	0.008265665160609226	-0.0050286657294218995	0.9999531945548426	0.9354499546341715	-0.353331225222387	-0.009509345812087566	0.3533625067184969	0.9354847715510013	0.0017835475299821102
89														9.756434638618916	-0.1076276253209997	0.052213258146651634	0.008273487579433636	-0.005026292127999488	0.9999531417975129	0.9354562494173186	-0.3533143856569655	-0.009515792868943329	0.35334565913472965	0.9354911444130752	0.0017787342011660878
90														9.784040194806137	-0.11725509837279816	0.033964255902921674	0.008275006613406799	-0.004960357975923146	0.9999534584740926	0.9354608997630189	-0.35330266200321947	-0.009493894669849734	0.35333331187437084	0.9354959240264972	0.0017166390706929158
91														9.798971669563242	-0.10605849522082174	0.018254266161827064	0.008258519799874964	-0.004958848698368601	0.9999536022587759	0.935457887717012	-0.353311065080279	-0.009477953358480007	0.3533416719815846	0.9354927584494848	0.0017209677024037084
92														9.784041532017403	-0.11699366368643517	0.03447673885685005	0.00825215403090257	-0.004940922388795843	0.9999537435500696	0.9354607685637433	-0.35330376722459345	-0.009465650692977778	0.35333419369200797	0.9354956094770615	0.0017065219484012073
93														9.785939973124163	-0.0894786514614464	0.05564060999024819	0.008246042178647328	-0.004920802011209535	0.9999538931850585	0.9354632620719543	-0.35329750869565874	-0.009452812446039294	0.3533277346913019	0.9354980791305818	0.0016899233431008631
94														9.798972854383267	-0.10580050840575048	0.019095449865931268	0.008251099691190478	-0.004891316597392059	0.9999539961297378	0.9354623868889362	-0.35329997799269797	-0.00944713006233927	0.3533299337304182	0.9354973012105938	0.0016605293599127324
95														9.78629670344576	-0.08498735994417929	0.021765200952349083	0.00823866096130782	-0.004865753085236402	0.999954223408491	0.9354590752914773	-0.3533092978922024	-0.009426477482775808	0.35333899150869114	0.9354939147155542	0.0016409173619003625
96														9.756792331527167	-0.10263425482640974	0.019304477210002228	0.00824845166307192	-0.004818660451951284	0.9999543707372909	0.9354516308024619	-0.35332920667200085	-0.009419030817957197	0.3533584716321048	0.935486639254663	0.001593204895675604
97														9.798975152002111	-0.10550405330256289	0.01955160806341104	0.008230680746699026	-0.004810288965892862	0.9999545574747444	0.9354564294982112	-0.3533170237565314	-0.00939942733819904	0.35334618210036656	0.93549128368141	0.001591776115974941
98														9.799334175991323	-0.10116301232539758	-0.014269475303535438	0.008239569229422539	-0.004817214375830825	0.999954450934927	0.9354546559558712	-0.35332143275046646	-0.009410197109549212	0.3533506702263299	0.9354895828414207	0.0015950692112222664
99														9.773980052876206	-0.059640593803351405	-0.009032194983668725	0.008218247921374267	-0.0047724792757919965	0.9999548409016603	0.9354611581494341	-0.35330516824149516	-0.009374416652154105	0.35333395250785365	0.935495954847166	0.0015609195260650743
100														9.788552197338763	-0.052837460362319844	0.009638566719762051	0.008227461512392786	-0.0047780581569824565	0.9999547384943533	0.9354556095058801	-0.3533195774813507	-0.009385031293614843	0.3533484279306255	0.9354904843602891	0.0015627380801919721
101														9.80122956290797	-0.07360765496932226	0.007438122049955332	0.008233006742707272	-0.004746194579070329	0.999954844598991	0.9354558012142529	-0.3533192311465708	-0.009378959249116692	0.35334779124054955	0.9354907773671604	0.0015309756403250607
102														9.759047381874131	-0.07060670793597193	0.007677123928067305	0.00822334608152625	-0.004752165921167284	0.999954895731943	0.9354588942333504	-0.35331122607215115	-0.009372018518464031	0.3533398276149188	0.9354937703963885	0.0015400553913488824
103														9.800864614275778	-0.07784215272393968	0.0424194005852633	0.008218510364101206	-0.004738913842338821	0.9999549983789222	0.9354535810763368	-0.35332553680922074	-0.009362835571227135	0.35335400625838814	0.9354884327099247	0.001529224338059909
104														9.801229125442697	-0.07355543458435251	0.008461191477813188	0.008233479514906994	-0.004728142463347851	0.9999549262261394	0.9354420522745517	-0.35335578694995595	-0.009373081955909301	0.35338417713793085	0.9354770614493033	0.0015135556560343377
105														9.798972009341677	-0.10531951425934072	0.021971442377085714	0.008236478267570846	-0.004682563728047318	0.9999551160040538	0.9354578668457771	-0.35331427241170205	-0.009359715088513965	0.35334224171770967	0.935492970848591	0.0014702757500669184
106														9.754900014351751	-0.12973997376059193	0.0013902001579435773	0.008222090262732906	-0.004712445178817082	0.9999550940378016	0.935461460154867	-0.3533048356426425	-0.009356798408113765	0.35333306354859595	0.9354963847989807	0.001503406598962198
107														9.785924619824605	-0.08877527710761324	0.05934432402909047	0.00822409617588038	-0.0046442213412191125	0.9999553967303865	0.9354633563650108	-0.35330040312201144	-0.009334562235794375	0.3533279965420227	0.9354983999782998	0.001438922389306152
108														9.759046466951387	-0.07053327720467181	0.009336641100441224	0.008246565407414586	-0.004669353763600614	0.9999550946389604	0.9354685271259746	-0.3532859210653276	-0.00936443985422819	0.3533137825159692	0.9355037440397842	0.0014546380322816854
109														9.771723558793608	-0.09138319878523987	0.0073069182598197524	0.008241726818439155	-0.004656107463480663	0.9999551962974833	0.9354632167365311	-0.35330022549127926	-0.009355255247873284	0.35332795540685974	0.935498407978923	0.0014438133218665494
110														9.784401060389161	-0.11217230919360807	0.005147899879519733	0.008261419535600445	-0.004651286581841219	0.9999550562302242	0.9354600293579008	-0.35330822144102847	-0.009371986763369033	0.3533359342339418	0.935495412172241	0.0014322652397000257
111														9.773981627621703	-0.05981787425112127	-0.005442547073213951	0.008262905986995528	-0.004643494384599267	0.9999550801633794	0.9354605262180902	-0.35330694209005364	-0.009370622111134763	0.3533345840310913	0.9354959340536313	0.0014244636534650468
112														9.784400624897689	-0.11217607510901122	0.005846771726009189	0.008237818673565211	-0.0046307427082440955	0.9999553462857591	0.9354623123634269	-0.3533029538564753	-0.009342641166204757	0.3533304409347893	0.9354975034805064	0.0014214396111094652
113														9.771721917680798	-0.09144108752157538	0.008653434765501889	0.008258563844688094	-0.004623513829475845	0.9999552086184123	0.9354584991868065	-0.35331260364802886	-0.009359508674009587	0.3533400521061703	0.9354938948081489	0.0014072506135306972
114														9.786661195794958	-0.08046751322193235	-0.00691558201630327	0.008251958579500174	-0.004604651141126681	0.9999553501869328	0.935460563134425	-0.353307479154158	-0.009346656833277456	0.3533347421353116	0.935495923220194	0.0013919908657081814
115														9.758664807487344	-0.07490658835342083	0.04617236390622937	0.008212135514181818	-0.004626650011394229	0.9999555764832602	0.9354621732869937	-0.35330399473110974	-0.009317169968128203	0.35333140700972465	0.9354971306298661	0.00142667579226341
116														9.769457709738854	-0.12318935401855417	0.023477277659112814	0.008253846819557209	-0.004650505424666551	0.9999551223989879	0.9354611763348937	-0.3533053798387691	-0.009364622102389364	0.3533330745667843	0.9354964892378157	0.001434238789395692
117														9.786277703225029	-0.08500227476684342	0.029036082018233603	0.008251270782096976	-0.004666775826210445	0.9999550678574856	0.935461977932068	-0.3533031689809909	-0.009367957697007823	0.35333101247117277	0.9354972431767918	0.0014503912295172894
118														9.756772499703036	-0.10279629351314513	0.02695134376829381	0.008251955708907965	-0.004660861824214935	0.9999550897885533	0.935464475243551	-0.3532965953129824	-0.00936649868212236	0.3533243846443176	0.9354997552684395	0.0014446828039412218
119														9.799340305055084	-0.10134303319105421	-0.006858466018398611	0.0082265879955008	-0.004640198005831098	0.9999553949114026	0.9354712914712497	-0.35327936877483673	-0.00933543952715049	0.3533069290051703	0.93550636350616	0.001434488206975948
120														9.798955559957644	-0.10549494659991507	0.027715360651422376	0.008226904579927308	-0.004627697822675192	0.9999554502346064	0.9354766761541988	-0.3532652194228578	-0.00933129774534358	0.3532926639664697	0.935511768583903	0.001422824125803357
121														9.757160984891245	-0.09815053160013323	-0.006286684363658754	0.008209131581893847	-0.004619352068355731	0.9999556348884382	0.9354814885073442	-0.35325299267592436	-0.009311703688726192	0.3532803346051892	0.9355164267675751	0.0014214180502705176
122														9.771716834738557	-0.09153475918522268	0.012533810899849151	0.008243025130831416	-0.004630493658914048	0.9999553045337417	0.9354836350366547	-0.3532463670749904	-0.009347337959492164	0.353273861353059	0.9355188735011158	0.0014199323588810486
123														9.78705245244687	-0.07642144107307584	-0.03699935938548053	0.008228782302257986	-0.004658521241802882	0.9999552916614136	0.9354867474650329	-0.3532382153839419	-0.00934390227166626	0.3532659514574206	0.9355218123444308	0.0014512645092584209
124														9.786267972418164	-0.08502419963094228	0.03209062097002964	0.008231309024156641	-0.004658165189105057	0.9999552725241365	0.935479221545513	-0.3532580857422045	-0.009346171106635381	0.35328582140860126	0.9355143111437817	0.0014498402759083318
125														9.786660926959966	-0.0807770612830329	-0.0017827417250116094	0.008232794938616728	-0.00465038229765391	0.999955296516791	0.9354797242482581	-0.3532567905274583	-0.00934480960970413	0.3532844556556385	0.9355148389473704	0.001442047632371768
126														9.77171140291557	-0.09180605498592827	0.0146127421867705	0.008219040494196195	-0.00467897534995082	0.9999552762814092	0.9354813245501958	-0.3532526259803028	-0.009342037027944672	0.35328053837023915	0.9355162689273205	0.0014736964202963776
127														9.773583488216058	-0.06427227842921626	0.036042629985401996	0.008201273036892054	-0.004670630746247295	0.9999554611726493	0.9354861408811578	-0.3532403886654669	-0.009322447894609343	0.3532681974645498	0.9355209313659963	0.001472289457184417
128														9.756759551793621	-0.10276426333628352	0.03139455973859779	0.00822241062782142	-0.004664322198556392	0.9999553170326643	0.9354799377912567	-0.3532563517274543	-0.00934001896551434	0.3532841320432247	0.935514935242959	0.0014587610593547184
129														9.773580588788315	-0.06431165056148745	0.03675165499334278	0.008204644742756617	-0.0046559794756318995	0.999955501839841	0.9354847554976287	-0.35324411074500495	-0.009320432152721825	0.3532717877727968	0.9355195989818139	0.0014573553852298415
130														9.784390499367781	-0.11234897764960158	0.013910824870197085	0.008187754042636608	-0.004655547143976757	0.9999556422984612	0.9354826981646933	-0.3532499794168341	-0.009304486902151465	0.35327762753710207	0.9355173851526208	0.0014628598566487905
131														9.758626089040634	-0.07506252744222895	0.053517712477686594	0.008171249778953504	-0.004654057384712473	0.9999557842359383	0.9354797045268686	-0.3532583269545744	-0.009288533553712841	0.3532859367359156	0.935514240504716	0.0014672142010608846
132														9.798937775772497	-0.10556400361347416	0.03319798477426722	0.008198016624592686	-0.004653362341455636	0.9999555683840866	0.935478709952651	-0.35326030780674733	-0.009313332035615185	0.35328795018900144	0.9355134959727738	0.0014570875239187653
133														9.784387758529618	-0.11243411795365034	0.01509951268738616	0.008198246573192347	-0.004638737575510532	0.9999556344492643	0.9354870280505792	-0.35323841103849224	-0.009308346582302063	0.35326591839890276	0.9355218367738439	0.0014435432356046385
134														9.786253163021525	-0.08499779449494176	0.036389141500733725	0.008195020095367822	-0.0046557219044779385	0.9999555819631116	0.935488994948549	-0.3532331236619504	-0.009311319894369507	0.3532607846560252	0.9355237488175112	0.0014606240584207897
135														9.771705513636459	-0.09174462537783873	0.018435510589966824	0.008190178114775959	-0.004642481756639338	0.9999556831908044	0.9354836945619625	-0.3532474026714992	-0.009302134945353313	0.3532749328655377	0.9355184230516147	0.0014498068391759489
136														9.771705638331369	-0.09167092991044212	0.01873354277458383	0.00818365355517997	-0.00462342779706526	0.9999558248892274	0.9354871880313427	-0.35323848911714595	-0.009289286056976154	0.3532658331111306	0.9355218830800498	0.0014343760516526416
137														9.786660137308573	-0.08082698811718597	0.0032539730314122012	0.008219576472234813	-0.004640849358359345	0.9999554495475532	0.9354793705866811	-0.35325814288797985	-0.009329077665123142	0.3532856999219801	0.935514375624751	0.0014377865168381798
138														9.786658630687848	-0.08099343807800041	0.0036216880041984503	0.008213146928133574	-0.004622207897598596	0.9999555887196632	0.935482712159462	-0.35324962668139137	-0.009316463934056496	0.3532770010463657	0.9355176836616231	0.001422704493967808
139														9.784382310323952	-0.11255034073876988	0.017564431767486687	0.008173313161033646	-0.004644218643378051	0.9999558131163417	0.9354843429582	-0.35324608460476786	-0.009286968906277449	0.3532736064752597	0.9355189121255614	0.0014574029537710032
140														9.78438070739278	-0.11258368330980197	0.018230456829522894	0.008196069749602242	-0.004668302464168994	0.9999555147069109	0.935488322736604	-0.35323476077109717	-0.009316748705522349	0.3532625404201749	0.9355230679866153	0.001472005704968582
141														9.77127897692664	-0.09620324323445416	0.055401413731883814	0.008178308309516213	-0.004659967931445241	0.9999556990047471	0.935493147575168	-0.35322249856532084	-0.009297168772118447	0.35325017496541994	0.9355277394103021	0.0014706055726621536
142														9.78665763077866	-0.08099713138791498	0.0056655264812524656	0.008205128476807544	-0.004659489130870498	0.9999554815229119	0.9354962698110647	-0.35321357285926896	-0.009322076891654263	0.3532412844448722	0.9355311117803777	0.0014607719560920662
143														9.798915791898787	-0.10600114691337464	0.03795358711012845	0.008175703055353367	-0.004662906761368268	0.9999557066090912	0.9355034063480512	-0.35319536544728547	-0.00929572685446467	0.3532230663344978	0.9355379688324224	0.0014745447303193826
144														9.78623380464835	-0.08519418644550952	0.040861006105747555	0.008178519949174456	-0.004664061087518101	0.9999556781905954	0.9354954303504579	-0.3532164096619614	-0.009298803091038255	0.35324412465723093	0.9355300179468782	0.001474420381452457
145														9.772118230551182	-0.08781827803381315	-0.011462394610078305	0.008199262300978893	-0.00465686280295996	0.9999555418750143	0.935491625384692	-0.35322604225936916	-0.009315680591824693	0.35325372033826663	0.9355264168897723	0.0014602631807132394
146														9.78665461781274	-0.08121897116918173	0.007423383936516305	0.008196995156315279	-0.004682765502754538	0.9999554394960075	0.935486500275468	-0.3532394294048097	-0.0093227311513846	0.3532673450416326	0.9355212329076291	0.0014851620199317073
147														9.78622726544729	-0.08536306483696096	0.042057120529000076	0.008175726830749352	-0.004638054350436294	0.9999558219954676	0.93549302878781	-0.35322308031631616	-0.009287013581503245	0.35325054929921723	0.93552762865866	0.0014510120969900564
148														9.786654915677335	-0.0811160074720365	0.008123413570725588	0.008198306477756656	-0.004662631135040285	0.9999555228317886	0.935496195933934	-0.35321390762030475	-0.009316805071147904	0.3532416384913247	0.9355309697356329	0.0014661178229959937
149														9.786223008417743	-0.08544509731961317	0.04287327363224589	0.008180543896578185	-0.0046543092010595255	0.9999557070727771	0.9355010262260912	-0.35320163005022276	-0.00929722860837856	0.3532292578927842	0.9355356465339667	0.0014647295949958838
150														9.813868757468432	-0.09515501619905338	0.025051056838963512	0.008189650191076314	-0.00466067080468574	0.999955602903148	0.9355000625881416	-0.35320389870356655	-0.009307998613231783	0.3532315989932541	0.9355347583538791	0.0014674414529796675
151														9.813866982671398	-0.09523163966554943	0.02545182529520376	0.008191138527549102	-0.004652918027658159	0.9999556268172356	0.9355005768058311	-0.3532025722645739	-0.009306650398822836	0.3532302026236997	0.9355352977304046	0.0014596763009986358
152														9.757150368546668	-0.0991322260184977	0.0072819820566763635	0.008206326449253176	-0.004664007178264595	0.9999554506293014	0.9355043971751631	-0.3531919757307668	-0.009324759800226068	0.3532197319971561	0.9355392430659648	0.001464790571619634
153														9.77168173720421	-0.09240178795818288	0.026144473244497802	0.008188565849692686	-0.004655688927427459	0.9999556349908414	0.9355092302167942	-0.3531796903599717	-0.009305186533112464	0.353207343593684	0.9355439224738975	0.0014634048133397304
154														9.784363160890218	-0.11298513661093924	0.02418972280587414	0.008171639832665556	-0.004656157108855363	0.9999557712736213	0.9355059731470401	-0.35318872974783155	-0.009289530952770575	0.3532163621757272	0.9355405076104886	0.0014697316947893113
155														9.786651625088844	-0.0811435475338753	0.011221157524460831	0.008155126362756226	-0.004654685364551048	0.9999559129372475	0.9355029936898063	-0.3531970407617808	-0.009273575067399675	0.3532246349158241	0.9355373772871277	0.0014741055948577775
156														9.79933275342221	-0.10188813911977998	0.009178764192978167	0.008174904551506434	-0.00464202811215314	0.9999558102789248	0.9355049797726913	-0.3531914117431313	-0.00928759879578367	0.35321891760786445	0.9355395653022383	0.0014553343357522341
157														9.786649907933143	-0.0812724868801243	0.011771365935600447	0.008186813889052014	-0.004615688550291874	0.9999558347734927	0.9355109971911169	-0.3531754251793605	-0.00928941246041537	0.3532027041414432	0.935545730826978	0.0014266459222769257
158														9.784803542520871	-0.10866679239259679	-0.008772965230203728	0.008162111340206502	-0.0046029995343417895	0.999956095203063	0.9355112375031924	-0.3531755132948047	-0.009261820242089436	0.35320263934987184	0.9355457600803064	0.0014234999284519212
159														9.772122937350145	-0.08783725440846488	-0.006005203103735846	0.008163599480357109	-0.004595254548541594	0.9999561186767942	0.935511754847631	-0.35317417819934727	-0.009260474886431558	0.3532012346884292	0.9355463021619242	0.0014157421090539857
160														9.78664926511591	-0.08119010893363914	0.012827725398827544	0.008178807240962038	-0.004606398179784921	0.9999559431334585	0.9355162308080984	-0.35316184548924534	-0.009278619791715792	0.35318902730227053	0.935550902937109	0.0014209176036347193
161														9.787095421445176	-0.07698990574247395	-0.020991267189709294	0.008161047378006325	-0.004598087802993922	0.9999561264846822	0.9355210679157211	-0.35314954547295807	-0.009259050603153907	0.35317662548861095	0.9355555868684656	0.0014195378397009462
162														9.79932883620629	-0.10204061594582842	0.011400121749074434	0.008185261305925617	-0.0046290331442699895	0.9999557857973039	0.935514508337371	-0.35316603911097566	-0.009292658874204274	0.3531934401820641	0.9355492081503862	0.0014397713515370003
163														9.786645853489226	-0.08137228817454391	0.01420205229672086	0.008166495797248985	-0.004598013732285577	0.9999560823436755	0.9355054181590279	-0.35319086551457846	-0.009264184376718776	0.3532179510465123	0.9355399888763607	0.0014171350404712513
164														9.771669691334825	-0.09234856393906093	0.03047631555291399	0.008176662272292634	-0.004625912091759887	0.9999558705919998	0.9355165827559482	-0.3531607848418909	-0.00928350356777674	0.35318814473693494	0.9355512070363541	0.0014399410067427731
165														9.773961921528043	-0.06071709299807469	0.01750560549613654	0.0081718145685859	-0.0046126925346636205	0.999955971287855	0.9355112952876368	-0.35317503218543994	-0.009274321002709418	0.3532022619348643	0.9355458939615918	0.0014291450945930206
166														9.799326244100799	-0.10209356829135681	0.013035326007863314	0.008165222749415335	-0.004594659766212761	0.9999561081562955	0.9355146158934804	-0.3531665655608154	-0.009261771949904574	0.3531936191200602	0.9355491788632018	0.0014146876908996964
167														9.769825953384021	-0.11990265786878788	0.010740992546159954	0.008185957922799414	-0.004587492948308847	0.9999559715314148	0.9355108165899038	-0.3531761863769833	-0.009278653970368589	0.3532032023300152	0.935545582152286	0.0014005638731560688
168														9.786641514175884	-0.0815377356300048	0.016115056613297075	0.008182120616207211	-0.004598107665593321	0.9999559541840422	0.9355208799339803	-0.35314952581139003	-0.009278772911458066	0.3531766358492219	0.9355555941926096	0.001412113713601837
169														9.784344146626093	-0.1132354437973916	0.030009859946205978	0.008177271147650489	-0.004584891720897655	0.9999560545366413	0.9355155942165543	-0.3531637689301295	-0.00926958967346625	0.35319074904961223	0.935550282498474	0.001401321804626321
170														9.801159657098333	-0.07479286665816047	0.03535218580242819	0.008186019031272418	-0.004591016493785682	0.99995595486	0.935513456138284	-0.35316916060510734	-0.009279945133876477	0.3531962096011557	0.9355482171246112	0.0014039082373173972
171														9.742158216068214	-0.11043426158466893	0.030636175663573507	0.00819508489929488	-0.004595607461328088	0.9999558595135863	0.9355119725354792	-0.35317282475245604	-0.009290053775298235	0.3531999289726292	0.9355468113613732	0.001404964518175622
172														9.801155578362213	-0.07494508444970757	0.03615143049396946	0.008189292636378964	-0.004576510222167318	0.9999559945519116	0.9355132833970479	-0.3531696723089217	-0.009277884935923242	0.3531965912544898	0.9355480950306061	0.0013891763076080976
173														9.757601801866809	-0.09521295426481254	-0.018701970898835994	0.008180350966351724	-0.004587370955248804	0.9999560179756837	0.9355083075248567	-0.3531829710782928	-0.00927337545272866	0.35320997778947977	0.9355430214415733	0.0014023629795742454
174														9.784801605978059	-0.10917196789923936	-0.002192938546495538	0.008181958285414459	-0.004581132979238456	0.9999560334230915	0.9355083309125527	-0.3531829274993593	-0.009272675783868534	0.35320987861585373	0.9355430684600305	0.001395960087175463
175														9.799317040534513	-0.10244185325401399	0.01670578745175104	0.008179355258386478	-0.0045974825125722485	0.9999559796821575	0.9355091644385134	-0.3531806320489389	-0.009276011916035942	0.3532077312278307	0.9355438548245927	0.0014121971639473596
176														9.771649057826126	-0.09274346396451275	0.0354816134812607	0.008175444170680113	-0.004608658217014616	0.9999559602212746	0.9355186711965658	-0.3531554428397079	-0.009276261925045715	0.35318264107289354	0.9355533087227734	0.001424283204672805
177														9.786160154815464	-0.08606587304758395	0.05442287126150916	0.008185744412134488	-0.004620094179671963	0.9999558231832995	0.9355093750988728	-0.3531797070543177	-0.009289974550157731	0.35320702525648534	0.9355440926299503	0.001431102605423673
178														9.758962551774173	-0.07223451417122931	0.03849829690891145	0.00821268457448554	-0.004558839921209312	0.9999558834221899	0.9355119339532759	-0.35317283541940214	-0.009293532849287023	0.35319962237109037	0.9355469872221235	0.0013643520536976705
179														9.786628943608516	-0.08208641615691828	0.020395065450967267	0.008221747856224815	-0.0045634405211535944	0.9999557879590469	0.9355104532013319	-0.35317649156028	-0.009303642308803761	0.3532033335250778	0.9355455845760704	0.0013654182477469967
180														9.784323620209095	-0.11381053385517305	0.03422998838888041	0.008215478306078938	-0.004545342250896145	0.9999559219185737	0.9355132997433968	-0.3531692743892175	-0.009291373989629093	0.3531959398399477	0.9355483971934407	0.0013507736154806382
181														9.772114742151466	-0.08890683196204018	0.0026827312862632876	0.008224540404884628	-0.004549946682663009	0.9999558264845068	0.9355118197886916	-0.35317292851780224	-0.009301483634846619	0.3531996488825809	0.9355469953708064	0.0013518438805335542
182														9.816601311622911	-0.06018354371698744	-0.010117761946942479	0.008207652374535468	-0.0045500877329602285	0.9999559646025025	0.9355097163783044	-0.35317891435949833	-0.009285742492162519	0.3532056129286218	0.935544734982496	0.0013578815294794655
183														9.772114510702798	-0.08890098607469164	0.003571473393897185	0.008215481649650469	-0.004547861775870632	0.9999559104353213	0.9355160531246741	-0.35316195762926117	-0.009292256426733592	0.35318864677010287	0.9355511469912994	0.0013532021164612829
184														9.77211390725131	-0.08895546499342384	0.003853494933166005	0.008222107351499197	-0.004524119437149088	0.9999559636774109	0.935508306202016	-0.35318253508831193	-0.009290098795454227	0.3532090117447973	0.9355434940460612	0.001328446593532262
185														9.80161450843347	-0.07094911324584814	0.006797901436046829	0.008165867210592481	-0.004514694689429333	0.9999564671247247	0.9355218087290553	-0.35314823614358837	-0.009234105316148544	0.35317455175170304	0.9355564872526587	0.0013398337397108606
186														9.771634148482972	-0.09290627799696831	0.03898864896640564	0.008213135854388542	-0.004537409189960928	0.999955977189636	0.9355335807125206	-0.3531156806569221	-0.009286303538446228	0.35314227127129216	0.9355686655676543	0.001344711609091831
187														9.769804533509134	-0.12067841738313846	0.018635289400444916	0.008209512529516017	-0.004531037578314245	0.999956035834822	0.9355204871665457	-0.3531505152902925	-0.00928071343541248	0.353177040584035	0.9355555479225511	0.001339684902553706
188														9.799303317443322	-0.10283409280009845	0.021621905848276824	0.00819199815249727	-0.004523587463483192	0.9999562132027237	0.9355247297530049	-0.3531397758459266	-0.00926168105997699	0.3531662090104849	0.935559637795448	0.0013390075479860486
189														9.772113451831716	-0.0888949666980769	0.005874879058630839	0.00821150048220437	-0.004509617057297688	0.9999561163440265	0.9355287511792479	-0.3531287732713684	-0.00927497735070687	0.35315510328583444	0.9355638582383652	0.0013191593219122333
190														9.786617835177942	-0.0822233551598462	0.024716351526393437	0.008208608461798494	-0.004527309259513557	0.999956060143639	0.9355281277698573	-0.35313033171972974	-0.009278522023396962	0.3531568219623486	0.9355631845526959	0.0013367165263155067
191														9.784305342254052	-0.11392956622045845	0.038759165162783694	0.008198426014570936	-0.004531356008764087	0.9999561253493104	0.9355309777806577	-0.3531229941996435	-0.009270414243459979	0.35314950859890837	0.9355659344910976	0.0013441711755617924
192														9.784304185155992	-0.11386506675482773	0.03923779112625648	0.008187133827840032	-0.004529644068334282	0.9999562256240517	0.9355409127206815	-0.35309696642892696	-0.009259207549427717	0.3531234507441261	0.9355757663724	0.001346815227631304
193														9.772112937886916	-0.08881462240140481	0.00767068626050232	0.008169596255193923	-0.004505453319905928	0.9999564783466379	0.9355240200402293	-0.3531423724602461	-0.009234321898121789	0.3531686079265773	0.9355587451697149	0.0013299291983404626
194														9.78661528432023	-0.08198586759818834	0.02645396987753199	0.008178572278501384	-0.004511847515919876	0.9999563761422188	0.9355229494111932	-0.35314492979969336	-0.009244981435988009	0.3531712362020263	0.9355577490399847	0.0013327155622337994
195														9.772606195244474	-0.08470167636125155	-0.025858636590460258	0.008185179368081663	-0.004502813577763554	0.9999563628021957	0.9355371077868035	-0.35310734337555016	-0.009247919126166959	0.3531335764163685	0.935571979445807	0.0013223022497284576
196														9.773928312035736	-0.06148368144135604	0.02949177084359081	0.008205963909780345	-0.004495995861579838	0.999956223130555	0.9355325149340865	-0.3531190645762073	-0.009264973498489981	0.3531452614115256	0.9355675882874723	0.0013084680157492423
197														9.772606032860118	-0.08490774706817165	-0.025236701459394717	0.008201111462007193	-0.004482796401765521	0.9999563221997287	0.9355272406537863	-0.3531332783928023	-0.009255792038704691	0.3531593461392462	0.9355622866639994	0.0012976927711130237
198														9.7716106583224	-0.09328473726734736	0.043688650282180504	0.008209711151370036	-0.004488828096348929	0.9999562245744225	0.9355253012357971	-0.3531381492603276	-0.009265974566216806	0.35316428385452886	0.9355604191923215	0.001300250055075891
199														9.801605165264364	-0.0714760441377879	0.01242119415306841	0.008217544598210669	-0.004486626740481503	0.9999561701101046	0.9355316451839744	-0.35312117121478537	-0.00927250231949478	0.35314729620958907	0.9355668381363196	0.0012955923228191724
200														9.77210645553731	-0.08927029703270682	0.010216935634912681	0.008213910385416634	-0.004481709176426818	0.9999562220212641	0.935518144723205	-0.35315706974274685	-0.009267415193578932	0.35318314309977183	0.9355533113476622	0.0012919197310765629
201														9.784286178183399	-0.11418821492802589	0.04264144058564812	0.008211293848092216	-0.004498093027996086	0.9999561699456896	0.9355189923313558	-0.35315473686711574	-0.009270750543709516	0.3531809587742037	0.9355541133400198	0.0013081941387020346
202														9.786602364042611	-0.08250043896226684	0.029462634815631827	0.008215565161722727	-0.004460364736253664	0.999956303863071	0.9355275845127621	-0.3531322206370434	-0.009261391022328369	0.3531580993051009	0.9355627931327599	0.0012716134784058197
203														9.744421547823434	-0.07936825353110663	0.029620880497199038	0.008175690793937374	-0.0044824323106034125	0.9999565319955782	0.935529272211682	-0.35312852240599657	-0.009231874048050204	0.35315455386434336	0.9355640835688057	0.0013063770275655862
204														9.814285965390063	-0.09217568701696803	0.012215138288223806	0.00821492105930366	-0.004475709306320297	0.9999562405916547	0.9355221231619812	-0.3531465617947378	-0.009266227228748702	0.3531725812495765	0.9355573065925792	0.001286053945396326
205														9.77210351223988	-0.08932901658354546	0.012305718697952423	0.008198394262407593	-0.0044742651723526095	0.9999563826901081	0.9355191718628939	-0.3531547984142175	-0.009250266697716114	0.35318078289805577	0.9355542043666851	0.0012904585756734477
206														9.786596655332715	-0.0825682729748035	0.031122293373489845	0.008218271888268569	-0.004468295261498445	0.9999562462151166	0.9355152315667044	-0.3531648036064017	-0.00926676860331438	0.3531907579677959	0.9355504560584149	0.001277753898864753
207														9.786594120772767	-0.08270055729015625	0.031565219647522805	0.00821565180050271	-0.0044846816303209525	0.999956194388618	0.9355160821349298	-0.3531624630135557	-0.009270101677458509	0.3531885659706503	0.9355512612085315	0.0012940319632930852
208														9.77158675936572	-0.09371637962159989	0.04790656818387123	0.008218208503232516	-0.004484264021061779	0.9999561752522896	0.9355095099724622	-0.3531798124240815	-0.009272370094809301	0.35320591416351155	0.9355447137749648	0.0012925662992970266
209														9.785298161546205	-0.10602321376592588	-0.02239522141542272	0.008177114229595772	-0.004499504295373158	0.9999564436834104	0.935519021787851	-0.3531554837581611	-0.009239272949921051	0.3531816737544292	0.9355538246154715	0.0013215791254391207
210														9.799273786917404	-0.10331082831661953	0.030789230201714302	0.008196165616745632	-0.004486603888247176	0.9999563456745157	0.9355225794434783	-0.3531457122754466	-0.0092525268379548	0.3531718083604671	0.9355575750786354	0.0013028784978209584
211														9.757091739443599	-0.10035607727607733	0.03087043268463217	0.008179636976384907	-0.004485161305112451	0.9999564874868312	0.93551963117075	-0.3531539403097721	-0.009236565261251217	0.3531800011793958	0.9355544761112249	0.0013072854213862506
212														9.78658867872791	-0.08242077881052313	0.033897880900676594	0.008155540938837746	-0.004472923125654171	0.9999567391196014	0.9355180289892189	-0.3531588859725076	-0.00920970655255271	0.35318480231759936	0.9355526677944802	0.0013042984738692032
213														9.7721009030247	-0.08904736463473001	0.01589546508766094	0.008139012293370662	-0.004471483223440598	0.9999568802286787	0.9355150807901527	-0.3531671115051266	-0.009193745989575508	0.3531929927009931	0.9355495696054321	0.0013087085268744802
214														9.799795060618601	-0.09872043641543284	-0.0018842249839506535	0.008132382037346175	-0.004452694922417455	0.9999570180114373	0.9355181786518505	-0.35315923965956764	-0.009180896198091426	0.35318493990305233	0.9355526307755238	0.0012935511869820449
215														9.772101982282033	-0.08878381908421863	0.01668682475540005	0.008102961834645872	-0.00445619025963967	0.9999572412747837	0.935525371265254	-0.3531408690181458	-0.009154580717706085	0.3531665637181902	0.9355595486111392	0.0013073920631702651
216														9.786063712404903	-0.0859723142855829	0.06975325197230262	0.008102875166494605	-0.0044270574445056665	0.9999573713796098	0.9355118578121835	-0.35317693355957314	-0.00914426018076614	0.35320236027924967	0.9355460730310612	0.0012798161302321476
217														9.772103193145817	-0.08852725969188015	0.01732804913168088	0.008085130630452686	-0.004418799523121797	0.999957551535795	0.9355167295593418	-0.35316453403173664	-0.009124725570610948	0.35318986307265554	0.9355507929091397	0.0012784794867597427
218														9.75941638952018	-0.06771779560552448	0.020215457898418217	0.008070329134736709	-0.004448418087657169	0.999957539780652	0.9355205535465264	-0.3531544921475665	-0.009121324903494321	0.3531800725970503	0.9355544432327345	0.0013115135647298048
219														9.799798205302416	-0.09842533192500716	0.00033814099602339073	0.008104961347071005	-0.00445914855837487	0.9999572118824371	0.9355205682301913	-0.3531535167005056	-0.009157513872555867	0.35317924064109835	0.9355547603621075	0.0013093295907138924
220														9.786580169868362	-0.0819788960765289	0.0372591819394963	0.008099297458963983	-0.00444090255421703	0.9999573389726062	0.9355237147293725	-0.3531454859663357	-0.009145759703651613	0.35317103584471304	0.9355578785548787	0.0012943393171404582
221														9.80212404460066	-0.06688509475659862	-0.01242113335696464	0.008096671161261282	-0.00445730949648343	0.9999572872418903	0.9355245722921752	-0.3531431278104079	-0.009149093825368049	0.3531688244362035	0.9355586906615403	0.0013106387815313147
222														9.757082682524244	-0.09969149768874568	0.03553390241815566	0.008084173523874694	-0.004439967397215527	0.999957465509382	0.9355134813451245	-0.353172967892351	-0.009131318176105241	0.3531984886150573	0.9355475089163668	0.0012985378004444215
223														9.784247961646974	-0.11353754502754408	0.052098993363079424	0.008075197374972365	-0.004450865831377382	0.9999574895867855	0.9355085283706659	-0.35318620454250893	-0.009126788406021658	0.3532118125616787	0.9355424601343374	0.0013117746320890356
224														9.772095265461987	-0.08868409199315572	0.020674049103467203	0.008071153375179552	-0.00446255134521828	0.9999574701549493	0.9355166952351894	-0.35316456354941994	-0.009127101904665091	0.3531902736761373	0.9355505740944419	0.001324345927710191
225														9.786571709869358	-0.08189153285409419	0.03960001351770565	0.0080687140163051	-0.004463003586293257	0.9999574878229132	0.9354957877872263	-0.3532199942653448	-0.009125058002351638	0.35324570328098753	0.9355296453080352	0.0013250899372885816
226														9.771552143111768	-0.09290916885693352	0.055876641081570935	0.008077464126824085	-0.004469359729004196	0.9999573887905886	0.9354943788230179	-0.35322345609449435	-0.009135494250255505	0.3532492346259444	0.935528307903226	0.0013279111080653494
227														9.785319549005301	-0.10540558277717885	-0.014612397826520688	0.008071402889448298	-0.004449359123529506	0.9999575269274119	0.9354969339972383	-0.3532170181680302	-0.009122749489708426	0.3532426063446519	0.9355308339546458	0.0013114049572707787
228														9.787109285936126	-0.07780704599136672	0.006539557321135073	0.008061916356208898	-0.004462750597204579	0.9999575437796213	0.9354924743048508	-0.3532289360375675	-0.009118621867179655	0.35325463340719826	0.935526270396976	0.0013271674614568352
229														9.772089812035096	-0.08875522455949703	0.022833398503954317	0.0080634099227756	-0.0044550859214020355	0.9999575659145996	0.9354930213214563	-0.3532275211890819	-0.009117309552204134	0.353253150699709	0.93552684113501	0.0013194834895056684
230														9.772088909388522	-0.08874278070131819	0.02326424563368015	0.008053373252453644	-0.004460662490777756	0.9999576219367503	0.9354958990204818	-0.3532200914650555	-0.009109879322981018	0.3532457587786697	0.9355296197745756	0.0013283182302031293
231														9.79924739850772	-0.10269931882348932	0.03988907853602782	0.008062421484971494	-0.004465332231816499	0.9999575281820019	0.9354944378069983	-0.3532237002961888	-0.009119998971356957	0.35324942206883797	0.9355282349331466	0.001329455115555489
232														9.772085351638212	-0.08891347293807085	0.024091897382991376	0.008077480897903944	-0.004453272269634934	0.9999574604294112	0.935484318864318	-0.3532502437807272	-0.009129864611305827	0.3532758744399453	0.9355182700700989	0.0013125942795579881
233														9.786555369196925	-0.08220285258975768	0.042859192874505334	0.008085328087640453	-0.0044511257014178685	0.999957406567753	0.9354906803595293	-0.3532332270923228	-0.009136423720986886	0.35325884904724064	0.9355247055839491	0.0013079800782877515
234														9.772082110680698	-0.08904577227107571	0.02490460520885831	0.008071694634971205	-0.004464899270411438	0.9999574553050868	0.935472011981882	-0.3532828659383186	-0.00912860520438008	0.35330859392928604	0.9355058959241855	0.001325196890166691
235														9.799238791402084	-0.10288585177627094	0.0414905454096004	0.00806564399092119	-0.004444905966754009	0.9999575931998105	0.935474571113684	-0.3532764182328051	-0.009115871887436788	0.3533019561036702	0.9355084260077757	0.0013086946830362933
236														9.787105006603042	-0.07800087136707712	0.009814031079625989	0.00806672589364732	-0.004438416616901253	0.9999576132973301	0.9354751741007401	-0.3532748546190933	-0.009114589132237005	0.3533003348067304	0.9355090472848429	0.001302257140096963
237														9.772080629799921	-0.08885480736114791	0.026137350257758176	0.008038516399849593	-0.004448751172502041	0.9999577945428973	0.9354745615935149	-0.35327706240153606	-0.009091853076403478	0.3533025995736673	0.9355081644720943	0.0013218700929296112
238														9.786546976530065	-0.08203586376910525	0.045040029401968856	0.008058477051015589	-0.004443134616724909	0.9999576588548117	0.9354707681422916	-0.3532866770277058	-0.009108555647977246	0.35331218900412853	0.9355045603253354	0.001309469973609978
239														9.787103879368479	-0.07797751229701443	0.011046246923178439	0.008052427495549186	-0.004423143684555042	0.9999577962151078	0.9354733288890542	-0.3532802243529569	-0.009095824226333205	0.35330554672784414	0.935507091839004	0.001292969554531731
240														9.79923144370381	-0.10280393047653259	0.04338579347504003	0.0080545385568358	-0.0044236814505156374	0.9999577768341323	0.9354660561661537	-0.3532994252353778	-0.009098015678917992	0.35332475453834045	0.9354998381457774	0.0012925399975829421
241														9.772076593885432	-0.08884487588202163	0.027636674521418558	0.008036808877265267	-0.00441544784932385	0.9999579558778257	0.9354709438697151	-0.35328698526295144	-0.00907850314308456	0.3533122172789588	0.9355045750097133	0.0012912231878309255
242														9.802130567816553	-0.06697990139749353	-0.003699717849672138	0.008055565212403804	-0.004402723129326713	0.9999578610612329	0.9354746443064352	-0.3532768514284328	-0.009091540274459242	0.3533019922514701	0.9355084618932424	0.0012727911386722357
243														9.785324623529805	-0.10562466246693084	-0.0082455531553042	0.008064613364667017	-0.004407402206594413	0.9999577675167427	0.9354731865995646	-0.35328045075283787	-0.00910166298696291	0.35330564553164867	0.9355070806368391	0.0012739363422119565
244														9.78709984703872	-0.07819596329562421	0.012916812269305113	0.008073453402072828	-0.004413248889541588	0.999957670396304	0.9354714837657221	-0.3532846931818554	-0.009112004420563369	0.35330995232419166	0.9355054509716344	0.0012762409788575346
245														9.786531668432978	-0.08235983661622982	0.04769682278819867	0.008064469177376521	-0.004424163318129393	0.9999576946630404	0.9354665396166704	-0.35329790145882267	-0.009107473985967784	0.3533232480243838	0.9355004113327408	0.0012894967131630297
246														9.785323522164248	-0.10582700899444275	-0.006837386532790991	0.008064896986671122	-0.004418615774675505	0.9999577157416362	0.9354671347797462	-0.35329636583676954	-0.009105912008372907	0.3533216624884004	0.9355010174880452	0.0012841710421894748
247														9.786527849098285	-0.08234543909248533	0.04849842439829716	0.008060045510671687	-0.004405441607891525	0.999957812985431	0.9354618744521479	-0.35331053027758386	-0.009096737956390433	0.3533357003089847	0.9354957302303484	0.001273423710870747
248														9.770293318946788	-0.11666796778392824	0.00963687243304662	0.008053292745869634	-0.004387614400179152	0.999957945773633	0.9354643989208031	-0.35330417099149947	-0.009084113151484663	0.35332917064359265	0.9354982157117584	0.001259195150228487
249														9.78709693030483	-0.07822682156080778	0.014802112451979196	0.008074020554050598	-0.004380546204976854	0.9999578096135049	0.9354606155253998	-0.3533137532648639	-0.009101019433814861	0.3533387142572019	0.9354946298984514	0.0012451659433558304
250														9.787095401093984	-0.07835825659739595	0.015114685122500283	0.008079849367093994	-0.004372702561658504	0.9999577968627041	0.9354748128985628	-0.3532760931196305	-0.009103651054923056	0.3533009913184574	0.9355088890558112	0.0012361354933265178
251														9.799782790051779	-0.09907976355396109	0.013151930449179148	0.008073801210905507	-0.0043527199514958315	0.999957932896695	0.93547737951255	-0.3532696243816952	-0.009090924570649861	0.3532943336006679	0.935511425006793	0.0012196423328681982
252														9.799783981710021	-0.09891730077536572	0.013483133042390938	0.008049545878542785	-0.004340922595152286	0.9999581797266187	0.9354763265133407	-0.3532731028122493	-0.009064069864696767	0.35329767526019096	0.9355101662838461	0.0012171422742495164
253														9.772062077157807	-0.08896838876285545	0.03202413537516292	0.008039360434113185	-0.004345036148307779	0.9999582438005503	0.9354792109594836	-0.353265671983106	-0.009055984813754137	0.35329026953262216	0.9355129532289731	0.001224660921538001
254														9.77148293590165	-0.09307662179788438	0.06666003705417471	0.008052036522976536	-0.004327353045348148	0.9999582184888792	0.9354775538638679	-0.3532699160582215	-0.009061601684632659	0.35329436865694086	0.9355114325457694	0.0012035993749979212
255														9.787093997690064	-0.07817403278174015	0.016875117932687228	0.00806107793943961	-0.004332048159248425	0.9999581253138552	0.9354761005448877	-0.353273504727772	-0.009071723468415616	0.35329801065359095	0.9355100556467058	0.0012047622638368116
256														9.772635708448554	-0.08523417766562207	-0.0011602005283765267	0.00808903689608692	-0.00433841375400118	0.9999578719367099	0.9354702159205177	-0.3532883559369424	-0.009100147525887725	0.35331295278791347	0.9355044178011519	0.0012006943050762442
257														9.772636035617088	-0.08520033288842652	-0.0008465465087042215	0.0080562212118237	-0.0043055196106379645	0.9999582790300151	0.9354791361114463	-0.35326582370951826	-0.009057797691414682	0.35329008364228	0.9355130786363807	0.0011817361434894869
258														9.772053115393245	-0.08927102884041932	0.03386404127953965	0.008079820438392449	-0.004337343043243014	0.999957951094449	0.9354737299511215	-0.3532792830426056	-0.009091135475762069	0.3533038594086108	0.9355078490468307	0.0012030373031517438
259														9.78473712023316	-0.11026676235349467	0.03203937124191981	0.00809935561487296	-0.004323479023562837	0.9999578530956976	0.9354777747120824	-0.35326822829647186	-0.00910449866836821	0.3532927022432735	0.9355120877922447	0.001183273527567641
260														9.757008813104733	-0.10047076879498393	0.05047953483755421	0.008081924277460684	-0.004323937523953658	0.9999579921498014	0.9354746930968003	-0.3532768039523726	-0.009088364244684954	0.3533012610725024	0.9355088472876597	0.0011897777496638895
261														9.799774500473818	-0.0993165876968258	0.016984233452680967	0.00808342124120981	-0.004316303493026752	0.9999580130311436	0.9354752533830819	-0.35327535371794866	-0.009087065715421172	0.3532997432901633	0.9355094301927767	0.001182121605577957
262														9.799774924600683	-0.09920996413053473	0.017358733920409902	0.008057907586022484	-0.004304758239892015	0.9999582687201662	0.9354740572781619	-0.35327923862747124	-0.009059123264941404	0.35330349316822546	0.9355080163265793	0.0011802981993527806
263														9.772046011962201	-0.08931854012526089	0.0357362638651233	0.008071086973324204	-0.004285370871260019	0.9999582457040719	0.9354722885544684	-0.35328378142156	-0.009064608714605071	0.3533078755161488	0.9355063898130143	0.0011574615701240298
264														9.772044189805845	-0.08942282961191594	0.03597297491187593	0.008085669205242063	-0.004273997140851138	0.9999581765763723	0.9354628558320535	-0.3533085098360161	-0.009074262283642165	0.3533325166355936	0.9354971030558532	0.0011414298332675932
265														9.787084599661135	-0.07848762372455217	0.020484127281860724	0.008067940033062715	-0.004265785301887204	0.9999583548425311	0.9354677592539384	-0.35329602703695717	-0.009054759870774365	0.35331993962984687	0.9355018548114484	0.0011401334577613165
266														9.787083785530324	-0.07847538321667605	0.02091549362207046	0.008076039897001341	-0.004272809093758656	0.999958259469879	0.9354663088256072	-0.353299609438161	-0.009064823386938536	0.35332359478497266	0.9355004698412988	0.0011438072098373664
267														9.799771582961332	-0.099233255715027	0.0190312313856926	0.008069995421177145	-0.004252843921776994	0.9999583933806844	0.935468883076318	-0.35329311932129687	-0.009052106725749298	0.35331691718604225	0.9355030118384469	0.0011273292981464622
268														9.757589697514934	-0.09637379329223052	0.019068025324176202	0.008092010804965688	-0.00427760861555182	0.9999581098354395	0.9354711214563052	-0.3532864394465667	-0.009081443962874192	0.35331048708241836	0.9355054215597578	0.0011427816434919635
269														9.787078605829597	-0.07878295966554909	0.02214655760213203	0.008093504916895256	-0.004269984763242529	0.9999581303276067	0.9354716851872162	-0.3532849800872955	-0.009080146348487195	0.3533089602474736	0.9355060075033415	0.0011351361187924014
270														9.772032533511322	-0.08968347374497442	0.038408304115958476	0.00808329517668882	-0.004276043183791933	0.9999581870227257	0.9354747599614148	-0.35327702886207757	-0.009072725804044002	0.35330105266503115	0.9355089824972673	0.0011444879675066577
271														9.799766218585372	-0.09940675038761769	0.020805625544856467	0.008065565783632545	-0.004267840693925273	0.9999583652254729	0.9354796673905282	-0.35326453400987623	-0.009053226479600218	0.3532884636490354	0.9355137382992276	0.0011431998547479783
272														9.770274483760812	-0.11715695589773135	0.018617008813228034	0.008074173342155766	-0.004275385105551199	0.9999582635325532	0.9354784029437844	-0.3532676074447306	-0.009063948147530865	0.35329161517164015	0.9355125432683807	0.0011471865318332108
273														9.799762915785038	-0.09956074438019512	0.021609289235686276	0.008094891549840999	-0.00426835115224683	0.9999581260779059	0.9354746251445776	-0.3532771769417695	-0.009080856934531312	0.3533011441269446	0.9355089617050681	0.0011331937597559016
274														9.772025387382458	-0.08978661380988744	0.03995418581082087	0.008087586210588249	-0.004251230987549703	0.9999582581209967	0.935477044715098	-0.3532711009819406	-0.009067966812633332	0.3532949048038958	0.9355113341088386	0.001119818515733395
275														9.787073107676498	-0.07877012435215669	0.024497415918518263	0.008071036228578632	-0.004249838881337897	0.9999583977564661	0.935474127468762	-0.35327923530343097	-0.009052001987451375	0.3533030076446488	0.9355082686822737	0.0011242848124638494
276														9.772630435270539	-0.085606468654496	0.0063869712185627555	0.008084617764931412	-0.004231091305961054	0.9999583675443473	0.935472451255825	-0.35328351781924927	-0.009058089129305114	0.3533071353610244	0.9355067364287748	0.0011019071512556877
277														9.787071228912462	-0.07880659645487485	0.02512253945030748	0.008086112052746008	-0.004223478513282697	0.9999583876447649	0.9354730183852473	-0.35328204925445506	-0.009056795667736817	0.35330559953822527	0.9355073254143016	0.0010942719564105419
278														9.772629564050929	-0.08564976316984656	0.007101009942235018	0.008075917672235366	-0.004228711089814652	0.9999584479148471	0.935475949642373	-0.3532744845826815	-0.009049098493282448	0.3532980713143672	0.9355101584404948	0.0011028418693164732
279														9.772017809595898	-0.08974388710763632	0.04185832443939954	0.008084948058478592	-0.004233439651106008	0.9999583549346501	0.9354745052412259	-0.3532780499153789	-0.009059221361149061	0.3533016892948221	0.9355087906784774	0.0011040401793205312
280														9.787067972198084	-0.07875340798319433	0.026519629149370994	0.008048518927732562	-0.004233625130043106	0.9999586480256715	0.9354759032485244	-0.35327521869206324	-0.00902520356739589	0.3532988193929156	0.9355098589947268	0.0011171120082006936
281														9.787066106441115	-0.0788142624002062	0.027022659486901704	0.008084304590873004	-0.004251281729043543	0.9999582844413772	0.9354681022266074	-0.35329485776245917	-0.009064943196385733	0.35331865749749464	0.9355023624140477	0.0011207952105581342
282														9.77200917733302	-0.08999601211329541	0.04330717703517193	0.008093054645316844	-0.004257820579801119	0.9999581858409976	0.9354667224786382	-0.3532982415238037	-0.009075443309492226	0.35332211026425114	0.9355010547829967	0.0011237874879421739
283														9.787060382806755	-0.07915791165442544	0.028071067668505242	0.008078708859840855	-0.004286070793671437	0.9999581811557472	0.9354699464000584	-0.3532897936693513	-0.009071993790740807	0.3533139027061205	0.9355041161246802	0.0011553650294147122
284														9.784692800298679	-0.1107716130388741	0.0422166789595378	0.008073433017473486	-0.0042738003407619685	0.9999582762845457	0.9354645265932363	-0.35330438182456414	-0.009062740714322393	0.35332837299742115	0.935498662967623	0.0011456093510844867
285														9.816548494786627	-0.061315959537228	0.03165033114887107	0.008063242658766623	-0.004277951954911818	0.9999583407547026	0.9354674308346718	-0.3532968990587429	-0.00905466526470694	0.3533209163995323	0.9355014699307258	0.0011531660967950552
286														9.784690326685526	-0.11066847550138684	0.04305222238279903	0.008057862027957108	-0.004266678921442446	0.9999584322913225	0.935462196783045	-0.35331098810942163	-0.00904566586733152	0.35333489673308194	0.9354962004904805	0.0011443856416735176
287														9.770254842628281	-0.11760646609645478	0.02499734271348314	0.008073250040930069	-0.004276960946861141	0.9999582642484812	0.935466572006423	-0.3532989419326169	-0.009063679597432261	0.3533229617394378	0.9355007029577006	0.0011486832981475459
288														9.79974351131756	-0.09988561225624425	0.02797284828796807	0.008065650573608807	-0.00425199018612904	0.9999584320661944	0.9354769430366032	-0.35327188948880567	-0.009047714844154342	0.35329567550101226	0.9355110328993809	0.0011282711630464792
289														9.802112489739658	-0.06808911391750698	0.01477508691250041	0.008037411745057177	-0.004262360024891609	0.9999586152933828	0.9354763669656863	-0.3532739969032235	-0.009024963196761437	0.353297844404862	0.935510189895888	0.001147928498852091
290														9.758191049227678	-0.09280135999658588	-0.005692151771174698	0.00806093056137841	-0.004293655642996774	0.9999582920900769	0.9354709632932537	-0.3532874591113615	-0.009058038961579251	0.3533116163299419	0.9355049629776728	0.0011687645043011452
291														9.814799574975439	-0.0889692633012563	0.013604631750914174	0.008042181438567608	-0.004262620711496468	0.9999585758332088	0.9354619158417012	-0.3533121438343882	-0.009029564160172587	0.3533359977804176	0.9354957825045598	0.0011461189721175824
292														9.772619743360481	-0.0860083207165263	0.013446806927456461	0.008068447732490824	-0.004263675832630209	0.9999583597428359	0.9354638761139475	-0.35330631536817403	-0.009054502020202249	0.3533302090637844	0.935497978933872	0.001137881181778544
293														9.757555538609235	-0.0971474424367091	0.029672811550752597	0.008083834331342743	-0.004273969039963188	0.9999581915316008	0.9354682538965047	-0.3532942617155525	-0.00907251843139889	0.35331826668646615	0.9355024841375403	0.0011421900730995693
294														9.787677594657533	-0.07548936595752508	-0.001536238166031434	0.008085961439954159	-0.004274658907364892	0.9999581713845922	0.9354608286798975	-0.3533138639305319	-0.009074776030155829	0.35333787687298884	0.9354950779377216	0.0011418936838639149
295														9.759925674929063	-0.06562632012748099	0.016832681627508075	0.008079931574733745	-0.004254718803088697	0.9999583051675976	0.9354634171987916	-0.3533073361248752	-0.009062081609886474	0.3533311616437297	0.9354976342077255	0.0011254346900168022
296														9.801467309598294	-0.0726128833241241	0.051892928824264405	0.008082523523667895	-0.004256366203371331	0.9999582772097206	0.9354567650546625	-0.35332487104920973	-0.009065109570538465	0.35334871377572025	0.935491004149587	0.0011258899777416564
297														9.79972940134627	-0.10017138754570849	0.03165230704101647	0.008064804890253185	-0.004248187626329447	0.999958455048995	0.9354616901857045	-0.3533123303721477	-0.009045628883979584	0.3533360795573904	0.935495777707678	0.0011246217673800407
298														9.787038513005992	-0.07935094968040926	0.03443062991820668	0.008049414286897982	-0.0042789011408499444	0.9999584481040522	0.935464533234181	-0.35330489376543794	-0.009042074007020784	0.35332890341803863	0.9354984463089286	0.0011588627989739253
299														9.757546591087884	-0.09726194787332815	0.032137390494625384	0.0080923449635531	-0.004241586471897929	0.9999582605775064	0.9354639192152958	-0.35330582804878624	-0.009069052492955643	0.353329548437927	0.9354982633928097	0.0011087784664876588
300														9.7743457307248	-0.05878874987627277	0.03713128795848175	0.00806747896086668	-0.004230031558703828	0.9999585104474229	0.9354631534089511	-0.35330855647745985	-0.00904171078918764	0.3533321445855128	0.9354972852728256	0.0011067293148483426
301														9.772611528085516	-0.08631867891132587	0.01696812801914947	0.008064811626544932	-0.004246548584361576	0.99995846195657	0.9354640537382098	-0.3533060872109549	-0.009045048554914503	0.3533298218054966	0.9354981430044668	0.0011231465132551799
302														9.799721922949498	-0.10023044560202114	0.033713492520293736	0.008065240442895472	-0.004240706965515428	0.999958483288697	0.9354639277338963	-0.3533064633938781	-0.009043386134756692	0.3533301456220093	0.9354980274316687	0.0011175268170288688
303														9.772609839500086	-0.08634527824469207	0.017785049541317304	0.008060376586966844	-0.0042275702515803815	0.9999585781316367	0.9354586886884588	-0.3533205694378476	-0.009034211054907093	0.3533441270016324	0.9354927593850652	0.0011068204782910818
304														9.785297599325032	-0.1072200585336138	0.01604104256081304	0.008082927804697493	-0.004253474885578423	0.9999582862447325	0.9354614371228898	-0.35331251800453284	-0.00906445129473854	0.3533363354285575	0.9354956828188438	0.0011231621537027836
305														9.784645410450398	-0.11136470767366594	0.05077290715868923	0.008078064326879297	-0.004240341924606095	0.9999583813224899	0.9354561992046881	-0.3533266212890866	-0.009055277906175996	0.35335031377692383	0.935490415872232	0.0011124589649481043
306														9.787024222980316	-0.07973816120461845	0.03746391176826256	0.008084079047291082	-0.004234088853696472	0.99995835921179	0.9354705299371753	-0.3532885909218245	-0.009058650204718188	0.3533122348362944	0.9355048070512786	0.0011048524482503708
307														9.770876120490632	-0.11420583302479165	-0.0012399057580523682	0.008067522098219482	-0.00423271739726766	0.9999584987341371	0.9354676305455549	-0.3532966770723699	-0.00904268605595454	0.3533202899476334	0.9355017595242974	0.001109341364882055
308														9.786368396523175	-0.08367813981026102	0.07246915967903965	0.008078644697457227	-0.004208856052758947	0.9999585096545655	0.935473471192551	-0.35328116159069006	-0.009044642618294851	0.35330457143208915	0.9355077265292148	0.0010832401986280993
309														9.800364819883805	-0.09646971053380544	0.0020871467893802996	0.008075971086567824	-0.00422538764580388	0.9999584615324035	0.9354743762477016	-0.35327867959440523	-0.009047979222277291	0.3533022361590457	0.9355085892942276	0.001099673470457807
310														9.774327413293765	-0.059086829701029124	0.041251404132341504	0.008083970758949899	-0.00423212093355696	0.999958368417992	0.9354724842027498	-0.35328343677234647	-0.009057847528862684	0.3533070629301162	0.9355067623778697	0.0011030997106720175
311														9.772599445798479	-0.08677108540179784	0.021112982526344217	0.008074933480937296	-0.0042430990958425285	0.9999583949141793	0.9354675730628751	-0.3532965577743744	-0.00905328739371225	0.35332027283632267	0.9355017575477031	0.0011164354103809226
312														9.78701287768331	-0.07987374434067374	0.0400497204850903	0.008070101919990691	-0.0042381276339947815	0.999958455001586	0.9354540424234602	-0.3533325421360629	-0.009047053734474064	0.35335620550459856	0.9354881896324643	0.001113144000839561
313														9.799700740327657	-0.10057221559155777	0.038512263043377376	0.008044040257408125	-0.00427818227044563	0.9999584944250426	0.9354596267553317	-0.3533180193485552	-0.009036808860953371	0.35334201579646973	0.9354934924199498	0.0011599624185948398
314														9.773260404912408	-0.0827462120656549	-0.011399561579821865	0.008051742575928944	-0.0042854283861556985	0.9999584014072975	0.9354578742679835	-0.3533224092195245	-0.009046580201170884	0.3533464799761225	0.935491801271854	0.0011639766430982523
315														9.772592365574425	-0.08700404495656558	0.02331652068346212	0.008086335797279576	-0.004296355479297798	0.9999580753726476	0.9354579089035278	-0.3533213882294356	-0.009082801850970434	0.3533455983073981	0.9354921367650401	0.001161984322985865
316														9.772589248364953	-0.0871976590360038	0.02389304750312866	0.008071515811226393	-0.004325574860133297	0.9999580691382204	0.9354606047320424	-0.3533143418432136	-0.0090792533975948	0.35333880005862645	0.9354946634000783	0.0011946225779534414
317														9.80035673417934	-0.09708109623350715	0.006673169224984874	0.008058300824277609	-0.004360664768951972	0.9999580233142784	0.9354560218464016	-0.353326474246811	-0.00907930545925828	0.3533512345798871	0.9354899182776322	0.0012319990987074148
318														9.770193448400578	-0.11888612083614901	0.03901174530191656	0.008055332512930058	-0.004380586951423682	0.9999579601543591	0.9354574923197843	-0.35332247161629027	-0.009083562832734038	0.35334740933093967	0.9354913369502234	0.0012517228913079825
319														9.786989416330469	-0.08047804529185941	0.044343179152574595	0.008064349980938135	-0.004385374547428156	0.9999578664871149	0.9354560644110458	-0.3533259914963107	-0.009093695054572248	0.35335098388992997	0.9354899851004429	0.0012529807623172795
320														9.785270314523789	-0.10815757507486529	0.024277118743722292	0.008048421779665693	-0.004410042370480538	0.9999578863297928	0.9354675895632631	-0.35329563651572926	-0.009087469155031558	0.35332083406382153	0.9355013333743762	0.0012819794105912163
321														9.785946170853986	-0.104364939428805	-0.009433515657824548	0.008084168150765902	-0.004427773492784948	0.9999575196213127	0.9354597931187736	-0.35331525532219277	-0.009127201914958749	0.3533406595390528	0.935493840267541	0.0012857441412819637
322														9.77189382322617	-0.09169046293970336	0.061823422534985656	0.00805350703540686	-0.004435158010571649	0.9999577343057314	0.9354669571548468	-0.3532969600912089	-0.009101102227900615	0.3533223925763588	0.9355007147852598	0.0013036642149680255
323														9.758171292084265	-0.09453316777197895	0.009672354999549534	0.008051978988799668	-0.004458505443071581	0.9999576427847223	0.9354600393278782	-0.35331510031413227	-0.009107947666699756	0.3533407427046145	0.9354937528488521	0.0013258679129642403
324														9.81474757389384	-0.09092859986362993	0.029212948197600036	0.008092998065705292	-0.004485019444668115	0.9999571930752282	0.9354581650431157	-0.3533188286883677	-0.009155694864218133	0.3533447676653431	0.9354922179766438	0.0013361394627397494
325														9.799655269819985	-0.1020442768035015	0.045564053476292735	0.008083951694846658	-0.004496020935697453	0.9999572168451716	0.9354532635721684	-0.35333192375039635	-0.009151138236500156	0.35335795080509347	0.9354872192898148	0.0013494992535415529
326														9.772563346945116	-0.08828680391778197	0.02976530855919872	0.008099046702735035	-0.004509997513943875	0.9999570317593307	0.9354585459225294	-0.353317444671566	-0.009170177275385105	0.35334362071928505	0.9354926206086178	0.0013573812312221434
327														9.841826095585928	-0.10522844748152857	0.04710851151837818	0.00808999958350659	-0.004521004131011697	0.9999570552920696	0.9354536459847596	-0.35333053588185137	-0.009165622033702026	0.3533568000202625	0.9354876230795852	0.0013707459097427321
328														9.772559528103539	-0.08836967123029349	0.030756530222889083	0.008085988009586154	-0.004516137801618303	0.9999571097288451	0.9354407019367974	-0.3533649443515519	-0.009160199965952964	0.35339115715860864	0.9354746498985321	0.00136727441215434
329														9.770847106832573	-0.11616888273340473	0.01078599295042061	0.008098232787006776	-0.004573520481142457	0.9999567498327794	0.9354594058266363	-0.3533146045840876	-0.009191857160890438	0.3533413628153429	0.9354933848499402	0.0014171188368542476
330														9.75986415677209	-0.06792649318552338	0.034307263845593315	0.008083715495874166	-0.004588331707160331	0.9999567994448194	0.9354414194146808	-0.35336243807833845	-0.009183583112248261	0.35338930995041273	0.9354752452991353	0.0014356341085377533
331														9.758154504793398	-0.09566726409380523	0.014334802056244192	0.00809491951345731	-0.004622828419159619	0.9999565499237841	0.9354461446469117	-0.3533493394774701	-0.009206234630114718	0.3533765452648205	0.9354800231689838	0.001464072558863605
332														9.785234106622319	-0.10962626926711934	0.03127474603701355	0.008084096493876536	-0.004629455377100078	0.9999566068219108	0.9354487610951789	-0.35334261566834896	-0.0091984410714267	0.35336986678177973	0.9354825300857099	0.0014741624965919908
333														9.80203249615275	-0.07127464871924732	0.036641068506958	0.008108137337863863	-0.004658981086633984	0.9999562750461366	0.9354433089803806	-0.3533561902547725	-0.009231386270179609	0.3533837486256925	0.9354772561125512	0.0014931521643878343
334														9.799619499882066	-0.10298548093752913	0.05083466665829958	0.008090397766654989	-0.004651391609601041	0.9999564540619111	0.9354481578432362	-0.3533438571631733	-0.00921208948862784	0.35337131950919953	0.9354819523438946	0.001492443359754625
335														9.786931054108974	-0.08211191913022618	0.05332009434083643	0.008084392629615078	-0.004631504746784476	0.9999565949377959	0.9354507695955063	-0.3533372724179636	-0.009199433863504414	0.3533645430132818	0.9354845381319857	0.001476027438860661
336														9.785227013390033	-0.10973877919807683	0.03304905062837238	0.008086141053513685	-0.004633212671341924	0.9999565728886458	0.9354436992538766	-0.35335593131807375	-0.009201702481622498	0.35338321953523233	0.9354774819003822	0.0014768236979764149
337														9.773956650512872	-0.08113973178767672	-0.032995089002717394	0.008094017110564455	-0.004631251389362101	0.99995651825346	0.9354501155006176	-0.3533387718526975	-0.009208350314154234	0.3533660542509632	0.9354839730407976	0.0014723745818895906
338														9.785934197457728	-0.10590236934142051	-0.00027306504728449876	0.008079876572405609	-0.004661466712812867	0.9999564922148666	0.9354538281957204	-0.3533290093748008	-0.009205783410124124	0.35335654926511106	0.9354875102652669	0.0015057320963089982
339														9.772531478447739	-0.08918088225720648	0.03674468505286708	0.008088893678360798	-0.004666291527618105	0.9999563968106004	0.9354524101426946	-0.35333249921839655	-0.009215929378259713	0.3533600970076891	0.935486168106969	0.0015070246366516993
340														9.801034928814287	-0.09518928590889128	-0.015089429507330722	0.008090170257209872	-0.004660337397749681	0.9999564142504158	0.9354533542254619	-0.3533300235679775	-0.00921501566930899	0.3533575684961941	0.9354871328355041	0.0015010282028983801
341														9.773244494063128	-0.0853048145659784	0.0033142385217884633	0.008081119636225986	-0.004671353485715235	0.9999564360321088	0.9354484624267398	-0.3533430932122508	-0.009210462672824715	0.3533707255119952	0.9354821414307226	0.0015144026267817634
342														9.785931401439756	-0.10614390466934859	0.0018973363924800015	0.00808065318241441	-0.004720028117282393	0.9999562112306308	0.9354560628670907	-0.3533225344730046	-0.009227192355995839	0.3533506155213934	0.9354896621385749	0.0015603020566069548
343														9.785207408518238	-0.11024346216864332	0.03694476689949095	0.008079110800726375	-0.004743402712455491	0.9999561130866578	0.935449156695819	-0.35334063982220265	-0.009234039588240206	0.3533689335605924	0.9354827055487148	0.001582533887712012
344														9.773240937952787	-0.08560698825579689	0.005370876116558971	0.008075189647915482	-0.004753777230910472	0.9999560954932913	0.9354578884961735	-0.3533175231006249	-0.009233998067972815	0.3533459072388276	0.9354913839646402	0.0015938524058393688
345														9.784475904114142	-0.1142156946745841	0.07246991549977437	0.008049203491407142	-0.004777765423606584	0.9999561906807275	0.9354416895013002	-0.35336082069754593	-0.00921823946912359	0.3533893827863355	0.9354749079229834	0.0016250478082142639
346														9.77105370227529	-0.09735457810249744	0.10962326250870053	0.008034460053058579	-0.004809069484619011	0.9999561591901658	0.9354454488815314	-0.3533509400977541	-0.009215492328886299	0.3533797668493291	0.9354784797004823	0.0016596381498158452
347														9.80053597945378	-0.07967349405033625	0.1127874673954531	0.008054044718043218	-0.004795362403247294	0.9999560674665171	0.9354495245212934	-0.3533397989926774	-0.009228950140788228	0.3533685320406538	0.93548275823087	0.0016400049382734871
348														9.784463150118306	-0.11432457557300836	0.07400372569464386	0.008055521511101893	-0.004789519411204368	0.9999560835741708	0.9354499156078016	-0.3533387814998654	-0.009228265142883718	0.35336746307850864	0.9354831724793344	0.0016340273739343658
349														9.772505910120099	-0.089559088329336	0.042217343731784894	0.008037833105224268	-0.0047814078961256334	0.9999562647323648	0.9354548810711909	-0.3533261424544271	-0.009208829369573956	0.3533547208104861	0.9354879877351738	0.0016328147900616652
350														9.800304629780753	-0.0994230756398386	0.024608008712899858	0.008050374045509678	-0.004765187084746936	0.9999562412774751	0.9354535356384261	-0.35332954796962734	-0.009214835492157514	0.353357997135053	0.9354867842592044	0.0016131760839186993
351														9.788350958431659	-0.07469663797067105	-0.007256184229237392	0.00803268493284709	-0.004757079079511006	0.9999564221361856	0.935458502132994	-0.3533169050514114	-0.009195400588759672	0.3533452515032081	0.9354916006055446	0.001611966690520883
352														9.77323925326515	-0.08550193899143436	0.008929521231898285	0.0080385622636438	-0.004751591302732672	0.9999564009979771	0.9354729920727733	-0.3532784474831724	-0.009198893753825488	0.353306754278981	0.9355061522640955	0.0016051345365773462
353														9.773975595112896	-0.08169759486740831	-0.02505003932777381	0.008059275429533275	-0.004744672637335856	0.9999562671242758	0.9354692336312171	-0.35328795785890077	-0.00921584295175637	0.353316233718428	0.9355025958881421	0.0015912503175573578
354														9.77249818955429	-0.08955859020543908	0.043969377814672576	0.008028677920359717	-0.004750357579240416	0.9999564862701383	0.9354757723418095	-0.35327133762668383	-0.009189198710965851	0.3532996174528741	0.9355088434185557	0.0016075426370404378
355														9.80029823060135	-0.09952843501184672	0.026646927193396883	0.008052698524273316	-0.00477991891724816	0.9999561522494984	0.9354703293262004	-0.35328489228965276	-0.009222138050308193	0.3533134826139637	0.9355035741540667	0.0016265755928817627
356														9.785178852315271	-0.11056809076101326	0.043035778103597724	0.008048335159645426	-0.0047923759029132595	0.9999561277547947	0.9354794109243381	-0.35326083676966213	-0.009222415163704145	0.35328953570380717	0.9355125944304563	0.0016400073734862408
357														9.787604772717028	-0.07896420087374864	0.029852578985186395	0.008038147452199995	-0.004796634870061767	0.9999561892800408	0.935482365353659	-0.35325322276592047	-0.009214375606355574	0.3532819444832423	0.9355154477075271	0.0016476658414259493
358														9.770803505066217	-0.1175187817166482	0.025551337368252894	0.008046174270412265	-0.004804071929199016	0.9999560890221673	0.9354807077756588	-0.3532573475786765	-0.009224519566331746	0.35328615095862675	0.9355138519950287	0.0016517464276106786
359														9.78442393677847	-0.1145503198442603	0.07869079853024176	0.008040181872510044	-0.004784211798263993	0.999956232438663	0.9354833319115121	-0.3532507280661189	-0.009211885609997916	0.35327933875503076	0.9355164533230966	0.0016353502933622033
360														9.799540336686071	-0.10367102856658442	0.06319823164740154	0.008041535063784855	-0.004779507843358344	0.9999562440520049	0.9354843581413773	-0.3532480208248954	-0.009211485011058618	0.35327659048772625	0.9355174996161584	0.0016304984813997336
361														9.785170089367725	-0.1105195617289618	0.04510314739055357	0.008023844452671292	-0.0047714157823320336	0.9999564248064166	0.9354893311166674	-0.35323535710172105	-0.00919205418330693	0.35326382391505723	0.9355223226009365	0.0016293029981252483
362														9.787598395763327	-0.07907373339855854	0.03160208586801274	0.008079540983037092	-0.004747383026966756	0.9999560907219371	0.9355004357715468	-0.3532048103132579	-0.009235618161315351	0.3532331463619312	0.9355339781782225	0.001587446150170091
363														9.788348168719523	-0.07536976662706055	-0.0024994439564931803	0.008075797656898087	-0.004741073889252212	0.9999561508939191	0.93548739075402	-0.3532395077467926	-0.009229946210030093	0.35326777836712087	0.9355209096461614	0.0015825240530432105
364														9.760539434110866	-0.06543938826756322	0.015744985762112786	0.008075674550435508	-0.004729648108312001	0.9999562059957061	0.9354956640509934	-0.35321770614005726	-0.0092257580147731	0.3532458719112601	0.9355291991690734	0.001572094057574358
365														9.775659729135025	-0.05466203295412284	0.0003072041542048873	0.008084683277942317	-0.004734510417176152	0.999956110190545	0.9354942577853789	-0.35322116531651193	-0.009235909431591804	0.3532493900162866	0.9355278685231965	0.0015734260600436256
366														9.801035427119174	-0.09626888925098334	-0.0033531049298244687	0.008081817197936103	-0.0047525127942546486	0.9999560479605685	0.9354952777003185	-0.3532183680264588	-0.009239582735622642	0.35324675459398414	0.9355288333936399	0.0015913069948923497
367														9.790023588644805	-0.047901562517602365	0.019814633290281162	0.008084449231753721	-0.004751790053803717	0.9999560301192767	0.9354880529260299	-0.35323744359144704	-0.009241822203701455	0.35326582698201187	0.9355216346703394	0.001589512645876645
368														9.799513511358878	-0.10432751339745787	0.06620602019733071	0.008105649554245309	-0.004770487214419361	0.9999557694703507	0.9354983312802672	-0.35320953044534087	-0.009268213118914792	0.35323812169291635	0.9355320785811244	0.0015997901554737348
369														9.78514707107268	-0.11128856286380928	0.04810604176891944	0.008088026836088169	-0.004746233415168721	0.9999560275783469	0.9354814858608516	-0.35325479785617997	-0.009243235535410232	0.35328313494062014	0.9355151100115691	0.001582879202426779
370														9.799508173518321	-0.10425797397559769	0.0670997496060147	0.008072977847865925	-0.004777650504104336	0.999955999574146	0.935485035112712	-0.3532454770346542	-0.009240239971395892	0.35327408072039085	0.9355184696253844	0.0016176776386286895
371														9.772454517035209	-0.09045910617847663	0.051232344464881424	0.008079747621226208	-0.004768978926756762	0.9999559862905834	0.9354993046476947	-0.3532076014658278	-0.009243444727837002	0.3532361372822108	0.9355328145536922	0.0016075481921178914
372														9.785141029014811	-0.11124923830327789	0.04940830246971888	0.00808601805004261	-0.004746123657661638	0.9999560443451109	0.9354921518892156	-0.35322660246191895	-0.00924126976637396	0.35325493636434835	0.9355257567931716	0.00158376475037586
373														9.787578859259721	-0.07967345665380363	0.035859497895668474	0.00809285063903864	-0.004721281768294117	0.9999561066701872	0.9354845959933595	-0.35324667446633407	-0.00923891972131452	0.35327478883678537	0.9355183036568233	0.0015579137923903419
374														9.788345105022453	-0.07578568526774326	0.0018314754990043992	0.008093751816185824	-0.004716113219525531	0.9999561237662574	0.9354843315519237	-0.35324740044492103	-0.009237938068443086	0.3532754684412559	0.9355180556007491	0.001552753233777071
375														9.77321675107834	-0.08663860451524025	0.017997480735834778	0.008095261922026753	-0.004708627239375041	0.9999561468204169	0.9354849464388894	-0.35324580435431374	-0.009236703540932867	0.3532738055965131	0.9355186959839955	0.0015452325917222343
376														9.759627222219947	-0.08965043229843293	-0.0344459872901585	0.008090044577779176	-0.004698352333555866	0.9999562373744566	0.935481122758348	-0.35325615225847573	-0.009228209702778156	0.3532840502223549	0.9355148402761378	0.0015373618969632963
377														9.819501467701503	-0.03023647720713075	0.026434003522690683	0.008051128837745392	-0.004743523327509269	0.9999563382022638	0.9354969620336882	-0.35321473985819085	-0.009207690951129999	0.3532429947644808	0.9355302488606945	0.001593774284231797
378														9.787570685855144	-0.07961200495669178	0.03815363425019314	0.008072914603128312	-0.004746130104671675	0.9999561501880173	0.9354868984893467	-0.3532408351559257	-0.00922903749734183	0.35326914782442265	0.9355203827963205	0.001588259434894712
379														9.772437204577658	-0.09049506639036228	0.05437487194136498	0.008056345873587056	-0.0047448248933728565	0.9999562900086668	0.9354840463960763	-0.3532488045570442	-0.009213089462466517	0.3532770785510849	0.9355173802317898	0.0015928134417504958
380														9.771545219153348	-0.11437540661038353	0.00022821656098706783	0.008063684249092429	-0.0048056789306356595	0.9999559402525424	0.935490420543	-0.35323118377059226	-0.009241422201527627	0.35326003180180415	0.9355237229819677	0.0016473218709558424
381														9.79868817710196	-0.10850697198899768	0.10641475464668852	0.008078014505754405	-0.004793205152863633	0.9999558844599135	0.9354808486633529	-0.35325629600277064	-0.009250465852937206	0.3532850512910761	0.9355143048178183	0.0016303421408589425
382														9.757289256357206	-0.1017436308988675	0.07185253848492239	0.008085931065317187	-0.004801294020813307	0.9999557816696361	0.9354791235350488	-0.35326059527904097	-0.009260737184186185	0.35328943820740505	0.935512639892601	0.0016350695009051952
383														9.799463129801003	-0.10463185939074286	0.07284955503329084	0.008054378072731794	-0.004775268830620516	0.9999561609397969	0.9354803099985723	-0.35325846620064616	-0.009222020523838581	0.353287017308642	0.9355135770608369	0.0016218927218220047
384														9.785895660614697	-0.10752485072318442	0.020198603516666386	0.008070650138865376	-0.004736184647483488	0.9999562156221253	0.9354787271133971	-0.3532626207643321	-0.00922344236256284	0.35329083730636984	0.9355122069356989	0.001579540966074322
385														9.772422477901866	-0.09065113480196751	0.05671133360586354	0.008065782509118213	-0.004723122137676061	0.9999563166807781	0.9354735258121882	-0.3532766327280351	-0.009214297198086419	0.3533047206831934	0.9355069817407105	0.0015689032338354614
386														9.801030177716871	-0.09673415643563459	0.004932814303015894	0.00807388166528189	-0.004730518851756238	0.9999562163546205	0.9354715758349139	-0.353281530065494	-0.009224495624523155	0.3533096987627122	0.935505094965269	0.0015729126564906215
387														9.775651215713939	-0.055373016330822304	0.009396754276283743	0.008093478062598802	-0.0047168840101290965	0.9999561223464184	0.9354756642855901	-0.3532703511848066	-0.009237992379176219	0.3532984250492556	0.9355093852971218	0.0015533443652527845
388														9.758852962159299	-0.09388816837540788	0.00488956757709502	0.008080968409280742	-0.004694871473168494	0.9999563271120493	0.9354727160131379	-0.353278666739715	-0.009218526000054628	0.35330651783482914	0.9355063558354166	0.0015370904227410276
389														9.773991310722284	-0.08295637821325184	-0.010631609242475415	0.008076100355325577	-0.00468181289511288	0.9999564276662588	0.9354675159870263	-0.353292674470398	-0.009209381011565765	0.3533203972828537	0.9355011313694754	0.0015264567854830213
390														9.787549919450605	-0.07993763067768339	0.042547083075657494	0.008084992052545592	-0.004689546615181117	0.9999563195740375	0.9354666682557458	-0.3532946308132102	-0.00922043497088787	0.3533224384128542	0.9355003538166631	0.001530530265401564
391														9.802686708216495	-0.06912226523900634	0.02720328648756314	0.008068420993570302	-0.004688255899452265	0.9999564594717567	0.9354638224167877	-0.3533025818191944	-0.009204489625359191	0.35333035184093986	0.935497357525136	0.0015350998159371354
392														9.783437167543292	-0.1392412986521125	0.03678971024427752	0.008073322849041997	-0.004719686927375011	0.9999562720506747	0.9354647904804311	-0.3532996095752351	-0.009220175995607593	0.3533276768519255	0.9354983219810147	0.001562799132108772
393														9.784293426830875	-0.11559301315810251	0.09222907086684747	0.008083434801393063	-0.004731360354405467	0.9999561351934434	0.9354555541958484	-0.35332370858290596	-0.009233800807890102	0.3533518985458401	0.935489161445721	0.0015699081603142706
394														9.770743033219551	-0.11856732815077001	0.039837628487395665	0.008051308929515832	-0.004708834235717718	0.999956500706237	0.9354580894712308	-0.3533179878117684	-0.009195777915895376	0.3533459201226991	0.9354914357538417	0.00156024480755379
395														9.772399605734892	-0.0905732718779821	0.06064089321194619	0.008032573959839862	-0.004677818441872927	0.9999567969518506	0.9354490870597916	-0.35334256117255336	-0.009167332383126392	0.3533701788133543	0.935482310083224	0.0015376107351036672
396														9.770745012078217	-0.11826543714771245	0.04024738487091386	0.008062893053838505	-0.004655011011237831	0.9999566593748392	0.9354505602029819	-0.35333813393214375	-0.009187628925795777	0.35336558855034267	0.9354840960603426	0.001505605072475713
397														9.758852314586399	-0.09372399508567632	0.008206702563221388	0.008058026686897701	-0.004641960414779822	0.9999567592698303	0.935445361913435	-0.3533521334979116	-0.009178487191096485	0.35337946046786073	0.935478873067683	0.001494979418593112
398														9.789137613363254	-0.07205275478528822	-0.023175521038585903	0.008063616487451186	-0.004613013498058871	0.9999568481667651	0.9354458402444933	-0.3533509970797223	-0.009173485272301052	0.3533780667478081	0.9354794455086834	0.001465937361841474
399														9.803480200923888	-0.06516400048690538	-0.004395622852219385	0.008072618585337255	-0.004617931094593797	0.9999567528356319	0.9354444459953717	-0.35335442410322454	-0.009183649769582414	0.35338155198819804	0.9354781267774698	0.0014673225032001969
400														9.76210751620635	-0.058306483578097305	-0.03888298723451273	0.008055232810287971	-0.004620290628709833	0.9999568821398647	0.9354410580514054	-0.3533637932677688	-0.00916823424010832	0.353390916883895	0.9354745760959624	0.0014755819327268993
401														9.746160609540896	-0.07302856509274434	0.011605331628742853	0.008075940126449743	-0.004613447940988558	0.9999567467091617	0.9354373092178985	-0.35337327655554496	-0.009185202206639098	0.35340036745064723	0.9354710276189716	0.0014617699043851795
402														9.819430825452967	-0.05052056332179799	-0.05321791140204783	0.008045567929631736	-0.004619573989715686	0.9999569632603411	0.9354437362572177	-0.35335694463183087	-0.009158928845348857	0.3533840476504657	0.9354771665928627	0.0014783942514137172
403														9.742898313912804	-0.10821268023760235	0.060768469568789944	0.008005581159389874	-0.004641828913444113	0.9999571811305916	0.9354456060828559	-0.3533527592744439	-0.009129379684052807	0.35338000612736864	0.9354786373496059	0.0015133842690038257
404														9.771541688556935	-0.11429329784655033	0.009369736807217104	0.008016939292031289	-0.004678234616835308	0.9999569204747062	0.9354516629823679	-0.3533361171648897	-0.009152842747578938	0.3533637147584773	0.935484741953448	0.0015435881511473015
405														9.785876532423336	-0.10737583492293122	0.02853796218108693	0.007988660144984228	-0.004688726180380187	0.9999570976576415	0.9354511790646117	-0.3533379867651263	-0.009130098323444469	0.35336563626888834	0.9354839832704639	0.0015633773411682927
406														9.785060925378197	-0.11117270096872087	0.06344978717591199	0.007985401604166276	-0.004707367940714635	0.9999570361011972	0.9354521924463681	-0.35333521251195515	-0.009133632706357753	0.3533630272234255	0.9354849374983021	0.001581994087991867
407														9.772365839036576	-0.09039099173216321	0.06610820334067893	0.00796350642624255	-0.004723469270424718	0.9999571347830114	0.9354575331060808	-0.3533214555471372	-0.009118815994252238	0.35334938279341005	0.935490052265711	0.0016049272296349004
408														9.76990356623039	-0.1219431823396856	0.08031180861375918	0.007976985416151938	-0.004707391005396799	0.9999571031667274	0.9354576218209463	-0.35332104180399454	-0.009125743566399669	0.3533488438933546	0.93549028957465	0.0015851279971997312
409														9.774822087378695	-0.05871494694373577	0.05295144841291982	0.007957154811665146	-0.0046696207708628035	0.999957438258829	0.9354564657359958	-0.35332492490862594	-0.00909385237584237	0.35335235162656403	0.9354890122712134	0.0015567658163208042
410														9.773182139080074	-0.08622622366067155	0.032737513991246074	0.00793854864463478	-0.004671777117525144	0.9999575760720958	0.9354524909418898	-0.35333587582761017	-0.009077226655188286	0.35336329271166633	0.9354848653782166	0.0015652515035620707
411														9.762130881085849	-0.05764945097141603	-0.03364333097768084	0.007943229458744594	-0.004617232714431263	0.9999577922431655	0.9354387791625748	-0.35337255625426156	-0.009062390697798517	0.3533994843581361	0.9354712810388082	0.0015122192347463148
412														9.775641108452117	-0.054577251952234215	0.019323912855888095	0.00795709075220008	-0.004622237910938853	0.9999576589153443	0.9354513769883364	-0.3533388289661545	-0.009077071964693262	0.3533658246030406	0.9354839960477792	0.0015123296901956018
413														9.78750992730695	-0.07920956510267949	0.052047811807289526	0.007940514039970037	-0.004620970014485026	0.9999577965458876	0.9354485402902686	-0.35334674811392264	-0.009061129406553736	0.3533737068679378	0.9354810111559946	0.0015169248403987257
414														9.81700152068934	-0.08142605469751849	-0.03402342544601878	0.007947544948228413	-0.004604325776703	0.999957817467036	0.9354322403919907	-0.3533898777689728	-0.009061894153623795	0.353416694801642	0.9354648013017767	0.0014984528389780372
415														9.785042264901799	-0.11095024558301596	0.06663704812505375	0.00797259597582295	-0.0046407608690567925	0.9999574496207142	0.9354189687005421	-0.3534240719554379	-0.009098261243350614	0.3534512564818819	0.9354517030296081	0.001523348412288017
416														9.800189322825755	-0.1005294855117963	0.05142398409567672	0.008002538963166328	-0.004661473157032026	0.9999571140994746	0.9353977712438333	-0.3534792573673876	-0.00913368288643912	0.3535066745087182	0.9354307485212398	0.0015316000720471123
417														9.789104774559283	-0.03234525293884826	0.16365549827876028	0.008014816433026817	-0.004686689778079123	0.9999568978993392	0.9353728425372874	-0.3535446877561357	-0.009154190468414758	0.3535723520883108	0.93540589515907	0.0015502065665751186
418														9.774732767585881	-0.019350589957637623	0.23517406438832197	0.007970261195781092	-0.004754420537921189	0.9999569342835822	0.9353011806813768	-0.3537346752233794	-0.009136791594085703	0.3537628815357746	0.9353337238814603	0.0016274573870383446
419														9.778525724455424	1.4823763010674964	1.3439489953525032	0.007954698291557372	-0.004682191606105668	0.9999573990210057	0.9348014573183598	-0.3550541447847676	-0.00909888271321141	0.3550816218428684	0.9348340127278862	0.0015525709379016206
420														9.954108782443678	0.9400096340295233	0.35185040948483703	0.007917532868437493	-0.0048539973486325105	0.9999568747616155	0.9335166946398783	-0.35841763372916	-0.009131301146409532	0.3584465001948184	0.9335487338868442	0.001693504165007964
421														10.185297467937733	-0.3213739014293245	-0.25536786894542446	0.007743775068872638	-0.005250985707362932	0.999956229590468	0.9321280238379461	-0.36201406262532165	-0.009119519585810643	0.36204610358854716	0.9321578437210147	0.002091235457866214
422														10.484469895869445	-0.4837868127530865	-0.22284813837727252	0.006941687618017223	-0.006755629503922778	0.9999530861210535	0.9310236970243888	-0.36484950996199284	-0.008928082634693746	0.3648927082747094	0.9310419950520485	0.0037569798307264812
423														10.407884011471873	-0.020436168853010837	-0.3717138719715696	0.005687990657816888	-0.00909958421002649	0.9999424205070414	0.9299577245491442	-0.3675650570629013	-0.008634777224901635	0.3676224657357793	0.9299532925870795	0.006371522015585884
424														10.733633208312202	-0.2631428155916321	-0.4634097557731748	0.0038957364345021395	-0.012583356266478718	0.99991323742748	0.9288773407949842	-0.37029494329438545	-0.008278932796374372	0.37036699231339704	0.9288290015474747	0.010245823004978838
425														10.872932528233763	-0.0930154558012979	-0.3517992049016172	0.0013661075326892869	-0.017510740127402002	0.9998457419674293	0.9276748610505872	-0.373307417492614	-0.007805396836071732	0.37338651010043533	0.9275424227630698	0.01573429533953513
426														10.822992679823253	0.17231593635827944	-0.30246580413123014	-0.001880893705438036	-0.02389221649863038	0.9997127708645375	0.9263396678785222	-0.3766193582554065	-0.007258009506398877	0.37668459213721234	0.9260599445921783	0.022840688876511694
427														11.012538122033511	0.06597232738276428	-0.5024662684078262	-0.00543424733498854	-0.0315709797427986	0.9994867393787585	0.9250122135413459	-0.37987343493083214	-0.006969808691098478	0.3798985045446242	0.9244995655336625	0.03126786805696097
428														10.970582581450438	-0.06646925011982555	-0.23540915303759172	-0.008353427745989295	-0.040043003003911004	0.9991630388256573	0.9239089291714369	-0.38253683744818023	-0.007606483578764867	0.3825212554122738	0.9230721130581152	0.04019158185795463
429														10.537942802191134	-0.22480749979906808	0.09305072806714199	-0.010627521546284768	-0.049048442066630005	0.9987398590807419	0.9231805164451525	-0.38426016475030456	-0.00904764290468485	0.3842197155819118	0.9219210248806052	0.04936429925816438
430														10.072891437381474	-0.2722070033682728	0.5185439032718644	-0.012613786998293686	-0.058492626121534996	0.9982081471651933	0.9228538526396759	-0.38499609632439413	-0.010898278904751701	0.38494370893114954	0.9210627657789585	0.05883640412148122
431														9.621875719019984	-0.4479236697306826	0.9037792353984662	-0.014694732778033681	-0.0681534519925292	0.9975666252487025	0.9228692158368975	-0.3849039704077619	-0.01270212678773569	0.38483304859272827	0.9204368748294713	0.06855278378726931
432														9.231634742323697	-0.6909105244577973	0.9282986484005202	-0.01723677434237747	-0.07781580388385761	0.9968187369207002	0.9231694981762075	-0.3841372181341146	-0.014024096451246693	0.3840064729237778	0.9199909229498375	0.07845846316712535
433														8.730050970321457	-0.7570729138068645	1.2057238987781007	-0.020495955493595286	-0.0873335579246668	0.995968255251453	0.923763238260727	-0.38268769600972297	-0.014546716496353862	0.3824152134087502	0.9197407118220814	0.08851908026268285
434														8.32486557744709	-0.8278081245845802	1.3241069785058925	-0.024468090968350786	-0.09599356867148262	0.9950811762354257	0.9245053845487023	-0.3809113118137959	-0.014013082200215743	0.3803828419695365	0.919615032122685	0.09806674374716506
435														7.945200323885911	-0.973517943058917	1.648536824268469	-0.02915186780688317	-0.10320492163388567	0.9942328262303122	0.9252623815499561	-0.37913066571549314	-0.012225530770926807	0.37820588823004053	0.9195698355560991	0.10654399862711927
436														7.787485569239782	-1.1243989418863574	1.6484680773077887	-0.03476668036128866	-0.10782532480724744	0.9935617631868028	0.9259936403668894	-0.37744207260990814	-0.008559195290070154	0.3759349091754219	0.9197342992158926	0.11296797293533628
437														8.122047419826497	-0.9435249701539095	1.3550475802154074	-0.041225547012583075	-0.10966670990542965	0.9931131189406535	0.9267249677463041	-0.3757282369916856	-0.00302094070319614	0.37347193794062467	0.9202181831857262	0.11712048029800826
438														8.615711824539753	-0.5335866204363273	1.0624563623627783	-0.048456411253566145	-0.10915253063079838	0.9928432410332041	0.9273976950159337	-0.37405398482992247	0.004139047231972448	0.3709251831401551	0.9209610966212134	0.11935311903211243
439														9.159244725209435	-0.1704981845065707	0.9844744554580483	-0.056310799777843645	-0.10715872120263814	0.9926460105690218	0.9279230821582052	-0.37256476027293195	0.01241986315501159	0.3684940263103271	0.9217985180466433	0.12041447047849324
440														9.597313705614477	0.08131467072929184	0.9724854704535624	-0.06473030582581973	-0.10439640241490056	0.9924270142788953	0.9282251383360122	-0.37139863974713766	0.02147423933617948	0.36634420982020105	0.9225857366970305	0.12094411260747873
441														12.058219360928108	1.0305470717919087	2.1562701706263065	-0.07121030124881778	-0.1011795075395086	0.9923163811255535	0.9284059316611397	-0.37044564221460097	0.02885224810344661	0.36468002283161005	0.9233269916006324	0.12031520074064628
442														9.740148391658055	-0.3994676377848264	0.5948678862439475	-0.07618270757515283	-0.09612747293471346	0.9924493458175607	0.9288371261029718	-0.36877584202717323	0.03558049339063807	0.3625710802577759	0.9245344164953163	0.11738110783415728
443														10.45392389814466	-0.061415437414659074	0.9517098787717984	-0.08260408600271246	-0.09199795244039016	0.9923270336549499	0.9290363754235964	-0.36744952662163954	0.043269602786703665	0.3606493839110814	0.92548215657154	0.11582227658032235
444														10.100973362472082	0.3039371947086867	1.071033187423979	-0.08952349430910544	-0.0886419799770804	0.9920323297919431	0.9290213838331716	-0.3664819450513689	0.05109062861293151	0.3590331632974684	0.9261930594304344	0.11515903922621562
445														10.198769230069523	0.6061459376286792	1.0740869339598047	-0.09695625626781063	-0.08567172053121691	0.9915945949185845	0.9288138064476152	-0.3657848303892983	0.05921461651791887	0.35763724263955304	0.9267479776931231	0.11503820460561831
446														9.925304011194354	0.8556775804640776	1.1648498376370657	-0.10472326529779752	-0.0826874994776538	0.9910579272350839	0.9284137952440841	-0.36534243718167525	0.06762195201730109	0.35648402840217625	0.927193443152122	0.1150280681828123
447														9.755444226799336	0.9117280783526485	1.2103765058411655	-0.11287092868118354	-0.07958854454954878	0.9904169914915293	0.9278073065418362	-0.3651544864139883	0.07639242749985103	0.35557524574445654	0.9275386054651424	0.11505815914374928
448														9.573777178617314	0.8360398937116028	1.2532481015614751	-0.12088118242884921	-0.07605264837866826	0.9897493290774155	0.9271524156647366	-0.36486910754432067	0.08519936905197417	0.3546493167364726	0.9279474818298727	0.11461820581369958
449														9.331822134751194	0.8631966502988537	1.3156570789617952	-0.1289116634574155	-0.07216753359657091	0.9890266073868946	0.9263711313016514	-0.3646571277284193	0.09413663626749424	0.3538619930361854	0.9283410075459597	0.11386247666817906
450														9.118383202967001	0.7899875562935291	1.1895265912766744	-0.13672026314230973	-0.06762771807551643	0.9882985689528225	0.9254656414609832	-0.36453693095262346	0.10308332768616746	0.3533000369678852	0.9287299487577331	0.11242671461423298
451														9.104483299392175	0.9534231034443799	1.321935355540186	-0.14395391801784724	-0.06226067871338686	0.987623854194227	0.9244685748024661	-0.3645070499312265	0.11176969514645707	0.35303700045463865	0.9291169024598482	0.11003025889912615
452														9.176133196437538	1.1274791896331282	1.2118048488902995	-0.1504160781922137	-0.056102357047600526	0.9870296494811981	0.9234304222031904	-0.3645203625637453	0.12000483584436461	0.3530598515420737	0.9295038627192997	0.10663634661310228
453														9.390142263402073	1.4127310305106153	1.140897668249456	-0.15578951623356804	-0.04939093055624233	0.9865546931673372	0.9224535549285383	-0.3644771614588841	0.127419926913244	0.35328326542791805	0.9299015726159746	0.10234256013469795
454														9.54273957472963	1.586090669017085	0.9024507219743668	-0.16019961997178309	-0.0427855859220006	0.9861569222989854	0.9215428958367531	-0.36446124708160843	0.1338905915609071	0.3536873943098724	0.9302351278107216	0.09781530602754845
455														9.405374292083529	1.724535723748637	0.8368843220481419	-0.16342814052577775	-0.03630020010168933	0.9858871833819853	0.9207687644530291	-0.36442267933953393	0.13921563558249372	0.35422609346564116	0.9305258761880687	0.092981011246912
456														9.28158390929192	1.7558442795331763	0.9851170430582927	-0.16551746363726813	-0.029727389903323576	0.9857587187139772	0.9201153609168027	-0.3644087893100293	0.14350594718875348	0.3549530839928402	0.9307644796419421	0.0876686466237348
457														9.282398639464539	1.7684106277600489	0.7901468967905126	-0.16643023469328755	-0.023008044107162284	0.9857847670187956	0.9196191320125022	-0.3643673436269206	0.14675520752203108	0.35581122665889847	0.9309710354273248	0.08180038006553203
458														9.284867845783982	1.8664752278776715	0.6387327997190407	-0.1662961923126131	-0.016444451538538685	0.9859387183978134	0.9193206788897307	-0.3642154877400463	0.1489851262912002	0.35664417251379715	0.9311695111545893	0.07568537314482959
459														9.34767615150192	1.839767006907783	0.5636916971350598	-0.1650830375760533	-0.01038470465457575	0.9862249989804054	0.9192051942739615	-0.36407760495985503	0.15003102474643126	0.35750440769930647	0.9313107190814099	0.06964871139967427
460														9.33506901228548	1.79482737262255	0.5690515620714957	-0.16280264703805963	-0.0047450049423502505	0.9866472434692648	0.919297410678481	-0.36388240795722315	0.14993953414324618	0.3583121109273893	0.9314328092285298	0.06360308998317815
461														9.320872936710074	1.766869637427056	0.5948726715810896	-0.1595021702881113	0.0005861375419097814	0.9871974038236547	0.9195486542874713	-0.3637201983932036	0.1487880696793557	0.35915084584542256	0.9315080642289633	0.0574751790334479
