// Start Time: 1747398475.5038033
// Update Rate: 100Hz 
// Filter Profile: 46.1 human
// Option Flags: AHS Disabled ICC Disabled 
// Firmware Version: 4.0.2 
PacketCounter	SampleTimeFine	Year	Month	Day	Second	UTC_Nano	UTC_Year	UTC_Month	UTC_Day	UTC_Hour	UTC_Minute	UTC_Second	UTC_Valid	Acc_X	Acc_Y	Acc_Z	Mat[1][1]	Mat[2][1]	Mat[3][1]	Mat[1][2]	Mat[2][2]	Mat[3][2]	Mat[1][3]	Mat[2][3]	Mat[3][3]
0														-0.11901825579830898	0.06696349412498209	9.78235601318557	0.9993838822179848	-0.032699889153765586	-0.012750420080978977	0.0328112772100379	0.9994243325732426	0.008626908390341092	0.012460981131357034	-0.009039950766499417	0.9998814945979269
1														-0.14267416478979722	0.09098995754886387	9.789702935455301	0.9993836656455238	-0.032685205155278015	-0.012804928928846302	0.03279719304488852	0.9994247206524437	0.008635500979152054	0.012515309396564422	-0.00905014434923594	0.9998807238455826
2														-0.12912303967297492	0.07567449714712851	9.802889719487778	0.9993832268642988	-0.03269949594232105	-0.012802688288783629	0.03281150710577928	0.9994242211453614	0.008638934508102051	0.012512827967690758	-0.009053681743136872	0.9998807228780566
3														-0.12961304064326948	0.07509446090290436	9.802887715541244	0.9993821329297882	-0.03272405706048303	-0.012825305852490858	0.032836094846336754	0.9994235370726167	0.008624640311504875	0.012535679317454713	-0.00904044438966964	0.9998805564212595
4														-0.13536735436924957	0.07958130463157707	9.76915315986294	0.999383889729995	-0.0326771325944465	-0.012808042533945038	0.03278900692408349	0.9994250867826778	0.008624206303795887	0.012518864688093241	-0.009038855837050951	0.9998807814495082
5														-0.10735711024565338	0.0856316525829997	9.836363701326514	0.9993837957840317	-0.03267927871356902	-0.012809897230740358	0.03279132420926995	0.9994249043402251	0.008636529461239786	0.012520294761058988	-0.009051261088555071	0.9998806513238485
6														-0.13079733956646422	0.07338997080622588	9.802884893757515	0.9993830206165949	-0.03270538500679603	-0.012803745342977388	0.032817042503365514	0.9994242900127489	0.00860989278940478	0.012514784240364497	-0.009024761718183146	0.9998809598403938
7														-0.13653779659755882	0.11405050319114478	9.80998530772005	0.9993826524822904	-0.03271330966243312	-0.012812231983201128	0.03282498328347859	0.999424071050948	0.008605037849377965	0.012523353780076373	-0.00902028685129448	0.9998808929243621
8														-0.11916017676038985	0.09391278451849215	9.76890145907954	0.9993829251028084	-0.03270656915658417	-0.012808175005068074	0.03281794818067753	0.9994244790895468	0.008584455358318302	0.012520035549679462	-0.008999496130015992	0.9998811218236101
9														-0.10016743752981577	0.07339184980213952	9.81582342995374	0.9993824886119854	-0.03271033267291815	-0.012832598807029472	0.03282213518387667	0.9994242021466578	0.008600674711207719	0.012543878893168423	-0.009016556989433712	0.9998806692812748
10														-0.15570503327696017	0.09563433462863122	9.810230799462015	0.9993821921061639	-0.032722195867019715	-0.01282544341221311	0.032833939758743255	0.9994238106867741	0.008601106454819374	0.012536606438693917	-0.009016902459731635	0.9998807573751152
11														-0.14715262293266052	0.08538127455767623	9.789687162384428	0.9993825497320166	-0.03271348659200012	-0.01281979274904685	0.03282523662962394	0.9994240570982897	0.008605691918950673	0.01253088709320616	-0.009021191062699335	0.9998807903847677
12														-0.12455634773634763	0.060235792597677806	9.782330806678681	0.9993813917126907	-0.03273878303368489	-0.012845465498715868	0.032850633323107246	0.9994233134065761	0.008595144541620534	0.012556663118685193	-0.009011809190939407	0.9998805516192572
13														-0.11622223321831585	0.08608381425669355	9.802630857074856	0.9993814749655305	-0.032735854571608214	-0.012846451696371178	0.03284755543870281	0.9994235228115489	0.008582549309765194	0.012558088923957551	-0.008999215322444708	0.9998806471405266
14														-0.13440519384489644	0.06880178090298024	9.802869365612265	0.9993806072839062	-0.03276151174476099	-0.012848545950781286	0.03287334474582435	0.9994225981261535	0.008591481827476094	0.01255965724347734	-0.0090085350067343	0.9998805435185543
15														-0.1312881658107142	0.09991351963983307	9.789440372512823	0.999380238181357	-0.032769433549683716	-0.012857050882957173	0.0328812822754848	0.9994223788807712	0.008586609821115	0.012568246038886089	-0.009004044487509072	0.9998804760441986
16														-0.1301406500068165	0.062455675031546615	9.836596386495874	0.999380304550055	-0.032758159396774136	-0.01288060054403754	0.0328698138695214	0.9994230324866886	0.008554383162716157	0.012592943008786352	-0.008972464992803306	0.9998804491829664
17														-0.11822019044730074	0.0836112783082622	9.802628366368024	0.9993799351779047	-0.032766080224375584	-0.012889109765136927	0.0328777499326341	0.9994228131806506	0.008549506035007017	0.012601536540245513	-0.008967969714780855	0.9998803812436869
18														-0.13640376059923606	0.06632961492612512	9.802858799230302	0.9993799569222926	-0.03276770085456926	-0.01288330247648865	0.032879339977728	0.9994227463160316	0.008551207443937132	0.012595662135204126	-0.00896949980911586	0.9998804415371615
19														-0.11534008520681875	0.11412456124097531	9.789211915245891	0.9993812196731077	-0.03273729274344611	-0.012862636919446647	0.032848608156967246	0.9994238500329994	0.008540311901018477	0.012575639420785989	-0.008957547044060845	0.9998808007178214
20														-0.12823874808509428	0.0914621013106812	9.823175608441394	0.9993812113671016	-0.03272887842331097	-0.01288467630858513	0.03283994374532345	0.9994244374277966	0.008504820217756486	0.012598907144227883	-0.008922689576831531	0.9998808194727443
21														-0.11978051689990406	0.08108935607951866	9.802630609307236	0.9993810086423028	-0.03274025007725914	-0.012871503019180941	0.032851401277188594	0.9994239235434975	0.008520943788514467	0.012585110218801553	-0.008938516308673606	0.9998808518653514
22														-0.1290367445273639	0.09029853759749674	9.823175920615498	0.9993822481592808	-0.03270111465921145	-0.012874749090625043	0.03281219556120363	0.9994252775650156	0.008513188976215433	0.012588958914651113	-0.008930378723018002	0.9998808761294061
23														-0.11523999895769994	0.0748576348207005	9.836362400397	0.999382605826197	-0.03269240162591495	-0.012869112167132692	0.03280348917979183	0.9994255245226922	0.008517747951969723	0.01258325354078384	-0.008934640925738318	0.9998809098696988
24														-0.1298600745271434	0.052980082209749195	9.782303824649892	0.9993822638621991	-0.0326941963110082	-0.012891090149511257	0.03280535490088533	0.9994255480400539	0.0085077972862791	0.01260552924285716	-0.008925438499856305	0.9998807114751701
25														-0.1304088697893644	0.08849493950069987	9.823174214640636	0.9993827983971535	-0.03268041931502644	-0.012884582308663389	0.03279126264551059	0.9994261836278417	0.008487436197168186	0.012599815950553265	-0.008904699460504314	0.9998809683985042
26														-0.1359503900431107	0.0931477076475722	9.789443449862798	0.9993827837679695	-0.032689904387712465	-0.012861635172348822	0.03280091628286258	0.9994256148883888	0.008517053244572066	0.012575825984364731	-0.008933669799609379	0.9998810119932885
27														-0.12219629511273877	0.0778651416322084	9.802626936021516	0.9993833575315794	-0.03266271466821685	-0.012886107224895159	0.03277390476557397	0.9994265276021265	0.008513935140363521	0.012600629163892235	-0.008931013137370278	0.9998807234610614
28														-0.11377324598382722	0.06747194922353106	9.782079805167085	0.9993836285013528	-0.032658731267306944	-0.01287518370664735	0.032769502913332894	0.9994268885896073	0.008488465285909635	0.012590582285309779	-0.00890514660782482	0.9998810807299087
29														-0.13201401597191498	0.08622264805508464	9.823172981629767	0.999383259911043	-0.032666645843085346	-0.012883712932938364	0.03277743197941618	0.9994266702352084	0.008483559123269712	0.012599196895464158	-0.008900621996563069	0.9998810125038193
30														-0.13239470382274518	0.08562172763165513	9.823173113836477	0.9993838003286877	-0.032655848413916964	-0.012869157119162566	0.03276640713833954	0.9994270973863959	0.008475822853791651	0.012584999159117477	-0.008892276096228781	0.9998812655620637
31														-0.1379250616601367	0.0901624640749877	9.789443778795818	0.999383774861068	-0.03266215613700826	-0.012855119638631854	0.03277247951866429	0.9994269729655957	0.00846701216633118	0.012571202434157762	-0.008883088725649685	0.9998815207833632
32														-0.12398538622441267	0.07475298916354166	9.802628695166987	0.9993833878474468	-0.03268123904214305	-0.012836693859011549	0.032791492816281444	0.9994262863443265	0.008474441743732035	0.012552374016075313	-0.008890150654429328	0.9998816945658632
33														-0.12959124915110296	0.07940198224870747	9.76889737397082	0.9993830194324368	-0.03268915038592484	-0.012845229353809226	0.03279941867402494	0.9994260679115314	0.008469528531217026	0.012560995372644502	-0.008885619052236306	0.9998816265785201
34														-0.13899824348983622	0.08843974847733166	9.789444316269098	0.9993845487043436	-0.0326404754805543	-0.012850026125215408	0.03275049862686743	0.999427864547037	0.008446798603065766	0.012566966647005125	-0.00886244477289044	0.9998817572202927
35														-0.12523618207127193	0.07287818596545102	9.80262691364546	0.9993832379133912	-0.03268349457839537	-0.012842622780795124	0.03279336989587267	0.9994265153108286	0.008440105717720641	0.01255940558379533	-0.008856053059790757	0.9998819088550325
36														-0.1255791522252192	0.07233513976480715	9.802626547745897	0.9993832934377518	-0.03268306699775372	-0.012839389749259581	0.032792959558113836	0.9994264979020562	0.008443760693672546	0.012556058335837759	-0.008859594959841033	0.9998819195166073
37														-0.11715580306938125	0.0982531400806998	9.82297540935222	0.9993829249658539	-0.03269097624653504	-0.012847932080439481	0.03280088297196382	0.9994262794763114	0.008438836910256882	0.012564687141136382	-0.008855053031284563	0.9998818513568786
38														-0.1353799214434383	0.08101023362820817	9.823171538379045	0.9993828432392875	-0.03269305431881998	-0.012849001450085306	0.03280312303505604	0.9994261034656433	0.008450966254102882	0.01256533955389126	-0.008867238058589372	0.9998817351722691
39														-0.109003997100052	0.08749597391942864	9.802427653846696	0.9993832682687026	-0.03268852069324896	-0.012827459586898557	0.03279819036676328	0.999426405279758	0.008434402068097159	0.01254439369726722	-0.008849917766160302	0.9998821516270305
40														-0.10931885485840534	0.08696955053159096	9.802428831361699	0.9993838262684679	-0.03266965377344135	-0.012832050316322273	0.03277961364504831	0.999426846177167	0.008454352112537478	0.012548494821233326	-0.00886977241449147	0.9998819242365754
41														-0.15070586420851753	0.09417353462750352	9.809988836239853	0.9993829086337497	-0.032689128977219865	-0.012853901254421035	0.0327987894458014	0.9994265487363442	0.008415051506145056	0.01257144946446945	-0.008831451051314936	0.9998819751004074
42														-0.14234629592429024	0.08387209514445484	9.789436402807855	0.9993834712444413	-0.03266764963990941	-0.012864760799019116	0.03277773351100745	0.9994270194271153	0.00844115068662662	0.012581636987818069	-0.00885762417565141	0.9998816154448836
43														-0.1429186585145509	0.0834229947836152	9.789431902799492	0.9993832107731939	-0.03266631249822711	-0.012888368881655194	0.03277649484905295	0.999427134119036	0.008432376415941602	0.012605530931755787	-0.008849610973274143	0.9998813854530697
44														-0.09723353524801737	0.06973879233738933	9.815606308662474	0.9993838057156826	-0.032656690325463984	-0.012866602124312726	0.03276647016151867	0.9994276031004036	0.008415734913623664	0.012584407272213027	-0.008832142320457984	0.9998818059929074
45														-0.14364545992734012	0.08221466205223635	9.789431485703425	0.9993837118833265	-0.03265881078501671	-0.012868508088082523	0.032768761746021995	0.9994274247423791	0.008427984720495415	0.012585891940463117	-0.0088444757292298	0.9998816782865553
46														-0.12466127225230204	0.0616021588788483	9.8363394591922	0.9993837630070109	-0.03265666656309709	-0.012869979290322514	0.03276646223301783	0.9994276127223324	0.008414623038014732	0.012587819139106284	-0.008831141326372723	0.9998817718871541
47														-0.12664223055482904	0.09778771194519027	9.789249050954378	0.9993837371203322	-0.03266297669545342	-0.012855968761286802	0.032772537722144564	0.9994274879108527	0.00840578250093195	0.012574050685818275	-0.008821925050386047	0.9998820264850028
48														-0.12329654972382459	0.09277247707906963	9.734969448777129	0.9993838888480162	-0.03265767449153636	-0.01285764394516425	0.03276739702730027	0.9994275581232732	0.008417467303571721	0.012575388784090797	-0.008833592732081393	0.9998819066451661
49														-0.12722997423253063	0.09676599265556439	9.789251582303496	0.9993850385062554	-0.032636522381677115	-0.012821942781060988	0.032745839057224134	0.9994283248030472	0.008410327330905012	0.012540128958223996	-0.008825020578156277	0.9998824251768336
50														-0.12240836752442986	0.09078862994571875	9.822983189858794	0.9993844838104937	-0.03263875283292019	-0.012859445258074751	0.0327478694047745	0.9994286127528826	0.008368097770532573	0.012578973260235155	-0.008784066504808712	0.9998822978767843
51														-0.10525456183478106	0.07083476670588455	9.78187720235296	0.9993830370322535	-0.032673383584174306	-0.012883916227244349	0.03278316366137246	0.9994271581064937	0.008403559931892767	0.012601963043149629	-0.008820750780894717	0.9998816854423928
52														-0.12365529377874099	0.08982310049427976	9.822976444567603	0.9993839330083307	-0.03264506468947909	-0.01288620177631977	0.03275478558474871	0.999428140629999	0.008397364953377942	0.012604700158966071	-0.008814276390198326	0.9998817080363156
53														-0.11140634099924723	0.07510226650803088	9.748144581025977	0.9993842900984788	-0.0326363435331879	-0.012880597235477458	0.032746071235814224	0.9994283884405244	0.008401856806378092	0.012599028652155102	-0.00881847265458402	0.9998817425161148
54														-0.12438896352782633	0.08863731012386615	9.822977953778986	0.9993838387377387	-0.03265244443915021	-0.012874810366338278	0.03276180605168643	0.9994280832115076	0.00837678652009456	0.012593924489715106	-0.008793427108912863	0.9998820273940456
55														-0.11579419313990603	0.07828353848792041	9.80242769466536	0.9993833617707537	-0.03266959222049474	-0.012868331668597795	0.03277888362471142	0.9994275325653996	0.008375675408848572	0.012587335067601579	-0.008792320193404875	0.9998821201029211
56														-0.12511004372102716	0.08736899109078058	9.822980158442135	0.9993833976372333	-0.03266790171442807	-0.01286983778591284	0.03277705418157548	0.9994276937369686	0.00836359436974383	0.012589251218293632	-0.008780272728111176	0.9998822018440883
57														-0.11670678470758362	0.07716764341259416	9.802425720712092	0.999382960952071	-0.032671601330274094	-0.012894333064829597	0.03278117251428175	0.999427423583402	0.008379720641650398	0.012613171181745847	-0.008797241383458549	0.9998817512370055
58														-0.14029354510479927	0.10107378210394946	9.809801183484506	0.9993840068935227	-0.03264275269909763	-0.012886328479202626	0.03275168132894123	0.9994287690626429	0.00833444299631089	0.012606908248093051	-0.008751357960729735	0.9998822328645849
59														-0.11210418698028377	0.07071999680538146	9.83615657061813	0.9993838625467638	-0.032666825457393495	-0.012836424566329486	0.032775832816903994	0.9994276348607775	0.008375408034872505	0.012555479451985829	-0.0087909721378489	0.9998825324729911
60														-0.10344510247515992	0.06066249701548002	9.815603102252322	0.999383715620166	-0.032662056774147664	-0.012859976691818174	0.032771175768895315	0.9994278509904015	0.008367837440617238	0.012579308087328208	-0.008784117029661065	0.9998822932205841
61														-0.13225480888749602	0.08990990963123545	9.789250356318552	0.9993840727427717	-0.032653332037554765	-0.01285437882263082	0.03276245778598478	0.9994280993075095	0.008372315952037284	0.012573643381775433	-0.008788300257977794	0.9998823277119583
62														-0.12362557407360418	0.07967748903403796	9.768697879293624	0.9993836842203361	-0.03267061876204478	-0.01284065356173256	0.03277950535603643	0.9994276198205136	0.008362820607677448	0.012560085302293373	-0.00877857674157626	0.9998825835304819
63														-0.15748583504869856	0.1138301932852908	9.708624264039438	0.9993841185559806	-0.032657583993166164	-0.01284000723576334	0.03276567796021916	0.9994285950876516	0.00830022101692223	0.012561605227532257	-0.008715820606910554	0.9998831134413939
64														-0.13036000841537015	0.08567644151336097	9.965280051324848	0.9993839563803392	-0.0326598891818058	-0.01284676489285205	0.03276702658574986	0.9994292185348875	0.008219434741661254	0.012570986369764812	-0.008635321498116397	0.9998836939986145
65														-0.12336854718376347	0.1122611286877912	9.897676585736319	0.9993846868695918	-0.03264463270350034	-0.01282870243717507	0.03275241433918056	0.9994291707642171	0.008283234905767265	0.012550976277671185	-0.008698309100223905	0.9998833994087882
66														-0.11244690838138426	0.026332910903352855	9.652902387294903	0.9993840634225741	-0.03264960133736828	-0.012864575760429367	0.03275715345369382	0.9994293712489557	0.008240193112341823	0.012588195843569587	-0.008656524558299933	0.9998832941438596
67														-0.12723603454507992	0.11270820947797944	9.721657831557318	0.9993833682726804	-0.03268524751434753	-0.01282800899897275	0.03279256718095976	0.9994281556822306	0.008246767081518877	0.012551125751665778	-0.008662345210185367	0.9998837097472012
68														-0.09998371224525728	0.04903312083557376	9.937339047931552	0.9993838818472367	-0.03265741660947584	-0.012858843040657252	0.03276475347819717	0.9994292307756854	0.008227004353690746	0.012582830900162897	-0.008643252369207537	0.9998834764886462
69														-0.10333647772409027	0.01405222328459223	9.720346488619535	0.9993832285724832	-0.03267960408127296	-0.012853245704159971	0.032787193044686025	0.9994282986020732	0.008250813633575205	0.012576264162729398	-0.008667146615625322	0.9998833522712801
70														-0.16788924984090267	0.11811142053996375	9.817194943959175	0.9993839124940753	-0.03266144390092461	-0.012846226307406424	0.032768709269186194	0.9994290766016412	0.008229977887111571	0.012570089135161168	-0.008645861755634858	0.9998836141939904
71														-0.15057763698556173	0.13425990514684463	9.81705566823584	0.999383927585221	-0.03265429242729187	-0.012863221618640178	0.03276180952197552	0.9994292340280929	0.008238325489126213	0.012586863039818024	-0.00865467250055724	0.9998833269550624
72														-0.12788017818785308	0.07284854224313274	9.768696426206425	0.9993840503848709	-0.03264769374519252	-0.012870428487447485	0.03275460485327155	0.9994299059481241	0.008185289086552666	0.012595860321408057	-0.008601813160288713	0.999883669790201
73														-0.12117773272278883	0.1715697541561517	9.783064828472876	0.9993842317582986	-0.032644005149035815	-0.012865700163828653	0.032751245600442264	0.9994297748311036	0.008214687618496697	0.012590203512863832	-0.008630996980632927	0.9998834895459698
74														-0.1379378351634069	0.11732497488428273	9.830230159081664	0.9993833790137914	-0.032655445216682705	-0.012902854284128065	0.03276246930878883	0.9994297559625678	0.008172117313958668	0.0126286323791564	-0.00858980758240064	0.9998833596224761
75														-0.1329654764632624	0.03911654131306114	9.781992240388549	0.9993838038574426	-0.03265092554301347	-0.012881368274113661	0.032757554944355845	0.9994300530280161	0.00815547046371395	0.012607742918391852	-0.008572407223271229	0.9998837725720436
76														-0.13353028810348455	0.11043884484348669	9.86396479179402	0.9993842432701241	-0.032637555402590744	-0.01288115991454143	0.032743720533357674	0.999430804587617	0.008118842711969249	0.012608848838595086	-0.008535620580317784	0.9998840733366414
77														-0.14409466829921957	0.08421989955688389	9.755526546772685	0.9993844919905378	-0.032638075871617045	-0.012860527680201574	0.03274416937804431	0.9994307224302584	0.00812714182684985	0.012587952198694076	-0.008543246802612935	0.9998842715002138
78														-0.12489273364521881	0.02736862984480252	9.761430190049103	0.999384675404007	-0.032635792289332215	-0.012852067120709059	0.03274150307916298	0.9994310100482041	0.00810247679068745	0.012580323674087558	-0.008518287132635981	0.9998845804594554
79														-0.13438799065637594	0.07227141328989799	9.822980290805008	0.9993844825871094	-0.03263863441280981	-0.012859840891824799	0.03274403430747679	0.9994311696003044	0.008072511916302297	0.012589050058161036	-0.008488626216002647	0.9998847228773917
80														-0.09909058167204257	0.06909987816276152	9.781740724830094	0.9993843981947963	-0.03264609943801242	-0.012847444738481133	0.03275161686661202	0.9994307781531961	0.008090196086612603	0.012576018346343809	-0.008505990335086935	0.999884739302972
81														-0.15923438472611176	0.06021913185266662	9.701368699334603	0.9993851296388855	-0.032644968129992784	-0.012793307330787327	0.03274897534075274	0.9994315395927418	0.008006390036270874	0.01252466649452153	-0.008420434850640673	0.9998861080173719
82														-0.12611925656311856	0.09572351440775083	9.843438203002338	0.9993843931350759	-0.03267128017393962	-0.012783669654408273	0.03277387346421567	0.999431571433189	0.007899825361308163	0.012518305643683532	-0.008313932546245947	0.999887078899127
83														-0.16085301940728705	0.09626691480227977	9.972690104923949	0.9993841349960765	-0.03266989962961481	-0.012807356336727676	0.03277257840445216	0.9994316840725014	0.007890942702139485	0.01254228140607042	-0.008305813036380434	0.9998868459215454
84														-0.1462901645657843	0.07850969483063899	9.755541495839513	0.9993852547239921	-0.032636952999257264	-0.012803981380245234	0.032740362484071216	0.9994322593906806	0.007951575545188262	0.012537196842716349	-0.008365894343313564	0.9998864088021016
85														-0.1073369025229471	0.10740484567660505	9.701028938492033	0.9993856115007238	-0.03262821100048971	-0.012798412879379866	0.03273162890820158	0.9994325102607202	0.007955997924241561	0.012531559932400144	-0.008370022751598455	0.9998864449150202
86														-0.1331858168512537	0.09888284375156192	9.809709925480002	0.9993846608674761	-0.03264463859695545	-0.012830712905891916	0.03274831748623831	0.9994319700339045	0.00795518547670286	0.012563730521616292	-0.008370474599589483	0.999886037421444
87														-0.091155681499718	0.017553461212586344	9.808181879075079	0.9993850178101886	-0.032635896794027175	-0.012825147834579387	0.032739584176421796	0.9994322209790869	0.007959604058316291	0.01255809716813027	-0.008374599050687742	0.999886073653522
88														-0.11610779888958529	0.07840230540262197	9.768586888794848	0.9993851921630293	-0.03263626264911625	-0.012810622372213285	0.03273941116449034	0.9994324909536304	0.00792634738228466	0.012544665873111049	-0.008340886434912388	0.9998865240474103
89														-0.14846362102512833	0.11179243259894411	9.796552993041693	0.9993848902039771	-0.032648356381521824	-0.012803361182542149	0.032751117244917936	0.9994323143096576	0.007900217266149132	0.01253816378881384	-0.008314682148336479	0.9998868238503685
90														-0.1293314831701274	0.05464057703205015	9.802418740036265	0.9993846367699422	-0.03265887873599362	-0.012796305244807162	0.03276095720527273	0.9994323842595827	0.007850412485993566	0.01253265619112343	-0.008264800839319634	0.9998873064480225
91														-0.12084738711131644	0.07998284496502966	9.822884068991854	0.9993845098620943	-0.03266593326587026	-0.012788207519852135	0.03276730504008151	0.9994325762244635	0.007799314184075292	0.012526179310202319	-0.008213548879831428	0.9998878099300376
92														-0.14942087792175013	0.10892861077469594	9.796570700944715	0.9993856159991693	-0.032637445493904876	-0.012774493555272565	0.03273836054100647	0.999433738103814	0.007771929549633149	0.012513603919270519	-0.008185370576203546	0.9998881984629492
93														-0.1406917808992106	0.09854218826809058	9.776010692429763	0.999386037889455	-0.032632917693017745	-0.012753037067981952	0.03273344831404255	0.9994340286716289	0.007755236596633932	0.012492743217103985	-0.008167926054917143	0.9998886019706761
94														-0.12171784761470185	0.07741881679607972	9.82289386526806	0.9993862872711654	-0.03262255097937466	-0.012760014966847087	0.03272246863971313	0.9994348022989216	0.007701688116164058	0.012501554322525291	-0.008114500681728577	0.9998889268404803
95														-0.09178139201219085	0.1151848148347735	9.788992065695338	0.999385710735923	-0.032640428321614186	-0.012759452019418714	0.03273980023410753	0.9994345678392864	0.007658334579360532	0.012502266093993297	-0.00807137205686017	0.9998892670169206
96														-0.15072199453575838	0.10533138235099834	9.796590107577561	0.9993861259206684	-0.03263595282243186	-0.012738363342685802	0.032734651204893	0.9994350444940131	0.0076180343753797985	0.012482544923703529	-0.008030343742485308	0.9998898437586041
97														-0.14945842186806216	0.06750205031909992	9.843557412406962	0.999386657602422	-0.03262216164716969	-0.012731974541504161	0.032720551353334376	0.9994356628001413	0.007597462890734631	0.012476943752112817	-0.00800940027144435	0.9998900816499274
98														-0.1424361560238553	0.09408978961790697	9.776029300499488	0.9993866716133298	-0.03261863486877531	-0.012739908199340625	0.03271673125065687	0.999436004608564	0.0075688961112281485	0.012485835891217035	-0.007981062045103243	0.9998901972470425
99														-0.12339713340779668	0.03718552492191424	9.781850952953919	0.9993870281627306	-0.03260987712397826	-0.012734357228584684	0.03270798360345629	0.9994362576436051	0.007573289638080554	0.012480214287511358	-0.007985162572250027	0.9998902346908052
100														-0.09190447678413173	0.038197537705333094	9.794920096471492	0.9993872041955539	-0.032601757690244565	-0.0127413298246951	0.03269923934807818	0.9994369549210554	0.00751883529451444	0.01248902863525347	-0.00793085957734215	0.9998905568261524
101														-0.10131884374036783	0.046953918252233426	9.815487892599938	0.9993872864750928	-0.03259878976546023	-0.012742469846090107	0.03269612013276952	0.9994371533578441	0.007506012005916923	0.012490610882366554	-0.007918042295718734	0.9998906386430413
102														-0.1122637957714334	0.09299039953870313	9.789105921746778	0.9993877104047179	-0.03258191762581964	-0.012752369812717488	0.03267933527337221	0.999437696485199	0.007506789623402255	0.012500613509205704	-0.007918932262861698	0.9998905065924518
103														-0.098519327534286	0.07746871024713024	9.802258173712708	0.9993876827326783	-0.03258820983925225	-0.012738452876246585	0.03268540571525643	0.999437565217347	0.0074978320633744	0.012486947402651079	-0.007909602511779312	0.9998907511986842
104														-0.13970075760884856	0.08471812257315439	9.809751862622628	0.9993875030989982	-0.03259657242535834	-0.012731147460776573	0.03269369420820085	0.9994373041660092	0.007496492539879069	0.012479623735126148	-0.007908129203432153	0.9998908542855721
105														-0.13093202929949735	0.07452743759611181	9.789184225718582	0.999388646103045	-0.03257542613723125	-0.012695497323879687	0.03267217428022073	0.9994380624997461	0.007489209207716407	0.012444399066476784	-0.00789942015162203	0.9998913621454797
106														-0.1312760999303135	0.07388908915097164	9.78918445882162	0.999387628978626	-0.03259769615675045	-0.012718382355963639	0.032694450994018305	0.9994374392235239	0.0074751556856668825	0.012467554639144172	-0.007886398645604961	0.9998911764775819
107														-0.13550924265086778	0.07750744927961072	9.84347369459837	0.9993888820953633	-0.032567288877949636	-0.012697796632564363	0.03266374088697214	0.999438526789571	0.0074639935665899125	0.012447585125257402	-0.007874189725522819	0.9998915214965659
108														-0.13207504246882196	0.07244163464225965	9.789184532019954	0.9993891863344757	-0.03255167853327577	-0.012713868898993045	0.03264775811299182	0.9994393467005719	0.0074240256552422	0.012465076329894091	-0.007834570275413389	0.9998916148166708
109														-0.14675738024659363	0.08655178201995002	9.776035028996828	0.9993885461770288	-0.03256532151210565	-0.012729242121133317	0.032661244003349875	0.9994390714140456	0.007401734336240652	0.012481062066943167	-0.007812961400380193	0.9998915844849569
110														-0.1101222025998317	0.08232682690407946	9.822839094484205	0.9993895790812669	-0.03253877804764424	-0.012716019303789471	0.032634575806096786	0.99943995448332	0.0074001246162237605	0.012468106741776154	-0.007810589321278092	0.9998917646469193
111														-0.11015312330052687	0.045800872123583705	9.781759244898936	0.9993894407425065	-0.0325543306750122	-0.012687051930337463	0.03264983949998466	0.9994394937068244	0.007395025332810362	0.012439200657854256	-0.007804740440887501	0.9998921703432052
112														-0.1157811409202322	0.08651837652055379	9.789124292997737	0.9993888499014656	-0.03256864988917487	-0.012696839647011102	0.032664186929220455	0.9994390539579923	0.007391097063764934	0.012448999352498439	-0.007801311937706446	0.9998920751496991
113														-0.11112531952860644	0.08058442403571135	9.822842247096471	0.9993884837692923	-0.03257649700154669	-0.012705524484316276	0.0326720388696127	0.9994388348846743	0.007386013841423929	0.01245778412944524	-0.00779661256389007	0.9998920023918139
114														-0.13439415346073555	0.06856473472505704	9.789180887181827	0.9993888443856788	-0.03257361670173424	-0.012684526495932099	0.03266879860950714	0.9994390571817989	0.007370249450874234	0.012437335521282983	-0.007780133323095947	0.9998923853148426
115														-0.12601170220571792	0.09424405496717315	9.80969846512183	0.9993885888766503	-0.03257219795432785	-0.012708278544415258	0.03266745291667454	0.9994391672266469	0.007361286113450114	0.012461378056828903	-0.007771932432239859	0.9998921497457585
116														-0.14425307265277734	0.07704004870635896	9.809749279719094	0.9993889895487517	-0.03256429549446306	-0.012697016487096232	0.03265973849516621	0.9994392558503936	0.007383450862446278	0.012449459833730093	-0.007793620734940425	0.9998921293948101
117														-0.11259713724005975	0.07839722705958646	9.822843184785661	0.9993884018897277	-0.03259067012438604	-0.012675582398467684	0.03268598051524183	0.9994383782666723	0.0073861170747593465	0.012427745010826538	-0.007795913578809827	0.9998923816518548
118														-0.13596372944756208	0.10231115351259515	9.830273799437178	0.9993881074614054	-0.03260236784021033	-0.012668712480881101	0.032697324168023824	0.9994381860380439	0.007361880278621377	0.012421580292490124	-0.007771608597787716	0.9998926474591366
119														-0.14510743750373847	0.07533780833192648	9.809749900490342	0.9993884635885728	-0.03259359788055968	-0.012663183773121141	0.03268856486905447	0.9994384404807021	0.007366234879734973	0.012415980544164894	-0.007775671463107321	0.9998926854220029
120														-0.1327806113363089	0.09688190972536188	9.77598551378989	0.9993888222491958	-0.032588351844964975	-0.012648370938343959	0.03268310292872585	0.9994386787687944	0.007358135894168037	0.012401481617753887	-0.0077670267744807285	0.9998929325426644
121														-0.13667729355193678	0.06464913685401028	9.789175917141572	0.999389066482888	-0.03258884762061446	-0.012627779108872207	0.03268354065948136	0.9994386038400042	0.007366364388467569	0.012380628595597519	-0.0077745845615071665	0.9998931322248764
122														-0.11011924741152389	0.07121264759481963	9.768558747337595	0.9993891930719981	-0.03259271515181367	-0.012607763082043172	0.03268706013988422	0.9994386034540441	0.007350783988211904	0.012361103118726381	-0.007758404788517817	0.9998934994712315
123														-0.11431243543267594	0.07491966163364032	9.822850512485134	0.9993886532795097	-0.03260557898916155	-0.012617286354430443	0.032700244609081726	0.999438025660378	0.0073706761285449035	0.012369870600550793	-0.007778758439958625	0.9998932329096234
124														-0.14666838331765153	0.07265576626199978	9.809746918720279	0.9993886137451825	-0.03260606117435497	-0.012619171572540222	0.0327005937789918	0.9994381022017277	0.007358738608662845	0.012372141406577442	-0.00776689398044575	0.999893297044696
125														-0.11881740671978251	0.04211673693930648	9.836029740724788	0.99938813578451	-0.03262316687092338	-0.012612812393528563	0.03271763584136853	0.9994375534358195	0.007357519091082095	0.012365692787468791	-0.007765678691262441	0.99989338625493
126														-0.12063714410985307	0.07867733469808194	9.789131813612558	0.9993883469659153	-0.032618484943603816	-0.012608187368530954	0.03271296858560203	0.999437675938482	0.007361630322421973	0.0123609722535692	-0.007769578796207588	0.9998934143248852
127														-0.13000710578269184	0.08769406394024881	9.809707067785167	0.9993884292740405	-0.03261550512691746	-0.012609371851250438	0.03270983857670736	0.9994378731741347	0.007348749924233747	0.012362600594245253	-0.007756706161715764	0.9998934941362849
128														-0.11249182163076586	0.0678948880878435	9.768555336844605	0.9993881385073844	-0.03262100585440851	-0.012618184805767027	0.03271534322775822	0.9994377314498945	0.007343519032415298	0.012371537019942938	-0.007751834062731023	0.9998934213907145
129														-0.08993300834374271	0.07872739106436985	9.802239471571228	0.999388381951812	-0.03262150220115897	-0.0125976034974743	0.03271578150163811	0.9994376567143299	0.007351733272286359	0.012350694736607735	-0.007759377262999204	0.9998936205437127
130														-0.1310216267793981	0.08622584589602558	9.809706583049104	0.9993883465339757	-0.03262998125626161	-0.012578439303144517	0.03272453232856651	0.9994371190797512	0.007385796466506111	0.012330360739389607	-0.0077929024621166834	0.9998936107782934
131														-0.16318908575060387	0.08387399780213207	9.79659757482437	0.9993890507823153	-0.03261116320478018	-0.012571285171142506	0.03270509480753181	0.9994380917237649	0.007340135229682927	0.012324850914041582	-0.0077467958531813865	0.9998940369878981
132														-0.11408390513681888	0.10166597354950618	9.809679180356557	0.9993887975366926	-0.032603551390735	-0.012611098083636878	0.03269794902936062	0.999438231661961	0.0073529056627542	0.012364282730378756	-0.007760768591043686	0.9998934418143961
133														-0.1412289681002585	0.05816764403942053	9.78915196755155	0.9993891532712665	-0.03259477763028172	-0.012605585863970021	0.03268918547775393	0.999438486523995	0.007357228243554141	0.012358700439060585	-0.0077648004391120875	0.9998934795254938
134														-0.1417811517123063	0.09357575001242024	9.830278649794225	0.9993892487298173	-0.03259348646508616	-0.012601355613623676	0.03268793056013517	0.9994384863463677	0.007362825909704527	0.012354299613759613	-0.007770241291689744	0.9998934916436459
135														-0.14185697220982338	0.05708611369089715	9.7891492545782	0.9993896657152588	-0.032588963342720684	-0.012579965412893638	0.03268303389074277	0.9994387700383354	0.007346035662547923	0.012333505472466127	-0.007752703561060114	0.9998938844848759
136														-0.10671026876720403	0.08976612102058219	9.789106802756654	0.9993894218852595	-0.03258713578607895	-0.01260404717171343	0.03268098503482016	0.9994390790972334	0.007313028813582735	0.012358666635239627	-0.007720476315233628	0.9998938231654726
137														-0.14276786165404215	0.05575156601042697	9.7891437023957	0.9993896035067928	-0.03258337879958443	-0.012599358258983147	0.03267755385243635	0.9994389763485199	0.00734234496900264	0.012353051313604152	-0.007749579435395704	0.9998936674176
138														-0.12043864169206184	0.06647829985606145	9.822838069759685	0.9993887256146113	-0.032595538778109424	-0.012637482588248533	0.03268949031971063	0.9994388931578929	0.007300415465157897	0.012392430634910393	-0.007709065772915411	0.9998934933120968
139														-0.1387134062000588	0.04916464716725473	9.822850610529404	0.9993887953033567	-0.032601053367948364	-0.012617731230496794	0.032695263733788206	0.9994384612242517	0.007333618143684615	0.012371562208666488	-0.007741675852134956	0.9998934997806102
140														-0.1225421808115854	0.1026429222072649	9.775968967456418	0.9993894013971708	-0.03259296842914278	-0.012590583146981353	0.03268698732031956	0.9994387205782059	0.007335166591145055	0.012344441458624872	-0.007742235980353793	0.9998938306375827
141														-0.12138150652847918	0.0649309861447497	9.822836810040513	0.9993894833840086	-0.03258998519737049	-0.012591797579430406	0.032683853941979	0.9994389177188056	0.0073222565213042524	0.012346100313279535	-0.007729334634984507	0.999893909969031
142														-0.14101548612792317	0.08466454737016987	9.775983639543512	0.999389363263279	-0.03259271347256705	-0.012594269518882168	0.032686454547815075	0.9994389197521708	0.007310360709888643	0.012348938631020767	-0.007717558753272373	0.9998939658791718
143														-0.1222953689051521	0.06368653480927898	9.822833621979527	0.9993885500084511	-0.03261135203255153	-0.01261054442184886	0.032705252377237704	0.9994382854419805	0.007313006203769764	0.01236497387573518	-0.007720965704119202	0.9998937414093806
144														-0.13685172102072626	0.07802264109730561	9.809695659744959	0.9993883363983583	-0.03262055705650512	-0.012603663286741812	0.032714087026247944	0.9994381840500505	0.007287302160406221	0.012358866491768001	-0.007695162120532531	0.9998940158331672
145														-0.1144590676386513	0.08875235109848478	9.84340379722994	0.9993879090731487	-0.032624123743636435	-0.012628291585155682	0.03271804125943999	0.9994379380224924	0.007303274436465843	0.01238293077366579	-0.00771197713356634	0.9998935885553751
146														-0.12870327254202327	0.06750196337247888	9.789112525719156	0.9993889114389188	-0.03260668838965493	-0.01259394954702971	0.03270058830653447	0.9994383621940013	0.007323366669719146	0.01234808557387454	-0.007730721003409361	0.9998938747364282
147														-0.12897840972250418	0.06690905684402143	9.789112978302844	0.9993887196322254	-0.03260949859687717	-0.012601891648540042	0.03270308752490432	0.9994385008577898	0.007293220788662545	0.012356987424114552	-0.007700883351538156	0.9998939950101743
148														-0.12072595566337406	0.09256553392742452	9.809689779608544	0.9993887805534852	-0.0326008135137025	-0.012619519089954833	0.0326946559944363	0.9994387069644758	0.00730277280089906	0.012374359507562932	-0.007710900039610969	0.9998937029741491
149														-0.11601492114126336	0.050743978281031964	9.80224149763899	0.9993885268184324	-0.03259936095415339	-0.012643343270830694	0.03269327504711875	0.9994388181316312	0.007293735554666774	0.012398476937780819	-0.007702627930050055	0.9998934679717606
150														-0.09872557489602117	0.0667934313856119	9.802243444184347	0.9993890364699123	-0.032585881716268396	-0.012637804259996424	0.03267950199167818	0.9994394158442264	0.007273527791094432	0.012393705390903906	-0.007682081080363986	0.9998936851970606
151														-0.14509091523603865	0.07947499268747574	9.77596756869547	0.9993889445004881	-0.032587909289736934	-0.012639848825163887	0.03268169508764431	0.999439256170997	0.007285604337427542	0.01239533849466665	-0.0076942441140878184	0.9998935714320373
152														-0.10843218772093388	0.07534797210032147	9.822822887226204	0.9993890290613051	-0.032592870366943874	-0.012620356300250046	0.032686619616619006	0.9994390284127247	0.007294750404707668	0.012375519784644469	-0.0077028103100178335	0.9998937509672653
153														-0.1587377791141609	0.09204950914605657	9.850840057441049	0.9993881150135868	-0.032612284347842246	-0.012642566163773178	0.032705714594972415	0.999438692020826	0.007255144694116815	0.012398862948758941	-0.00766418954070465	0.9998937585545087
154														-0.1233605928893921	0.08887132279102176	9.809691164971463	0.9993893719632808	-0.032581520727447195	-0.012622508226409906	0.03267467008758134	0.9994397810296716	0.007245000347113443	0.012379383728868508	-0.007653012638751182	0.9998940855190835
155														-0.13272364290997793	0.0979670722392025	9.830271379491986	0.9993896660124484	-0.032568469799339195	-0.01263290316819099	0.032662012826649864	0.9994400102838613	0.007270403146125618	0.012389042967038213	-0.007678581817299613	0.9998937698553962
156														-0.14207683762513573	0.07122857949659347	9.809673059254864	0.9993894682550902	-0.03256511361838109	-0.012657176455652862	0.03265873567072175	0.9994401801702483	0.007261766014623426	0.012413610481948015	-0.007670699856150243	0.999893525650866
157														-0.10677021296638593	0.06825682772051064	9.768525501260434	0.999388990519298	-0.032582214112486366	-0.012650887413384214	0.03267577308070202	0.9994396324865922	0.007260500578041909	0.012407235082664383	-0.007669441869743337	0.9998936144305602
158														-0.10210000600476014	0.062129919006591934	9.80223954636532	0.9993887036776158	-0.032587613423921614	-0.012659637155464521	0.03268088673831177	0.9994396714200776	0.007232069809216113	0.012416867703757314	-0.007641377039564372	0.9998937097278725
159														-0.10247457551904625	0.061282394607367924	9.802240972524654	0.9993888469057842	-0.032588897544387575	-0.012645016297682372	0.032681636614280425	0.9994398928325418	0.007198002715335211	0.012403358760407128	-0.007606863461326068	0.99989414055676
160														-0.13469629903194996	0.05891648972128071	9.789087335457568	0.9993886787158063	-0.03259296359755073	-0.012647829007515805	0.032685886291557005	0.999439659727899	0.007211060970237807	0.01240571207186557	-0.007620058195959801	0.9998940108936946
161														-0.1122916688857385	0.06969499158247834	9.822821262114646	0.9993883125176407	-0.032600780722187875	-0.012656614849407671	0.03269370659840816	0.9994394412220233	0.007205891941089193	0.01241460236977514	-0.007615275839605187	0.9998939369862619
162														-0.12666250140430002	0.08422468949811912	9.80969008101504	0.9993894165605752	-0.03258047845605872	-0.012621667492363861	0.03267336696620531	0.99943997235903	0.0072244544481431085	0.0123792228271885	-0.007632435689601621	0.9998942447917376
163														-0.12694199560556632	0.08365739141848558	9.809691325565538	0.9993900574348727	-0.032557403447471066	-0.012630462425419306	0.03265005256418491	0.9994409121236597	0.007199808399009666	0.012388993820213638	-0.007607802191506254	0.9998943115039395
164														-0.10067794675518786	0.09021968269103496	9.789136085279203	0.999390040033747	-0.03255114604910782	-0.012647955259076766	0.03264404114008114	0.9994410427318011	0.007208930656841198	0.01240622663788812	-0.007617413869556238	0.9998940246578882
165														-0.1188571603618386	0.07306986219285483	9.789105716346942	0.9993911160298438	-0.03252575913540548	-0.012628230014091775	0.03261867249191881	0.9994417720294931	0.007222639919830566	0.012386258736525742	-0.0076301582691434494	0.9998941750401887
166														-0.13319074524140959	0.08768954010036135	9.775975254255416	0.9993909710409431	-0.032535187087638154	-0.01261541132949079	0.032628220545581246	0.9994413332214404	0.007240212191489003	0.012372801860078853	-0.007647421115726524	0.9998942097664177
167														-0.12846714622872574	0.08171264292557623	9.809687861970822	0.9993910523756925	-0.03253219775309962	-0.012616677088627288	0.032625080282426305	0.9994415295782256	0.007227246425960348	0.012374512837712489	-0.0076344655143328905	0.9998942875966136
168														-0.10571964160069852	0.05666798959553912	9.802234270688729	0.99939155490669	-0.03252099959457544	-0.012605735462834363	0.03261408084970856	0.9994417229015001	0.007250120965231952	0.012362916788444778	-0.007656834140259668	0.9998942599992419
169														-0.1292035210887905	0.08052340923724209	9.809688028064892	0.9993915355406615	-0.03251880181039932	-0.012612938535312689	0.03261125490384563	0.9994422141717366	0.0071948999363449515	0.01237193369186927	-0.007601845849106804	0.9998945680402567
170														-0.12060282219615233	0.0701977336552993	9.789105383335585	0.9993919731633158	-0.032507592956172275	-0.012607155782740643	0.03260007417008363	0.9994425366222837	0.007200774550046433	0.012366047907052523	-0.007607390499466235	0.9998945986797556
171														-0.11196835878365498	0.09615291450507106	9.809728758797396	0.9993918176753865	-0.03253166355778931	-0.012557293882459405	0.032624271519006966	0.9994414508755238	0.007241766337202632	0.012314693310909564	-0.007647034588082684	0.9998949300754892
172														-0.14781839182608278	0.062207253831802506	9.809649579780954	0.9993917233928855	-0.03252558593983669	-0.012580519586597918	0.0326179596296827	0.9994418980294202	0.007208409876438308	0.012339040618900055	-0.00761437604933206	0.9998948791517961
173														-0.112488570256681	0.05917146645498871	9.768520583828474	0.9993920780959576	-0.03251679614478275	-0.012575062923218965	0.0326091803214985	0.9994421538172277	0.007212664690793093	0.012333515224957927	-0.00761834244835848	0.9998949171090611
174														-0.13080496593730598	0.07777932071679665	9.809688941080937	0.9993923847182735	-0.03251531328773724	-0.012554511895061939	0.03260765121339983	0.9994421389638377	0.007221630406962926	0.012312694646916995	-0.007626615578997332	0.9998951106417826
175														-0.13104787545660035	0.07726919837364044	9.809689731110987	0.9993931849871758	-0.03249572221384946	-0.012541524587898253	0.03258791653828136	0.9994428082142516	0.0072180887016466315	0.01229997954805348	-0.007622410813591807	0.9998952991971242
176														-0.12237417954676169	0.06709131159379926	9.789105184373438	0.9993924490745715	-0.03251795779272728	-0.012542533783893037	0.03260994782175316	0.9994422145636951	0.007200767395160775	0.012301383490982936	-0.007605403934511379	0.9998954114282156
177														-0.1407234385402886	0.08557992313913466	9.830275758594242	0.999392690270488	-0.03251845334740456	-0.012522013648351912	0.03261038745575182	0.9994421414449427	0.007208920441576453	0.012280605192847079	-0.007612890110851972	0.9998956098714794
178														-0.13205694088120923	0.07564873956638245	9.809688829166662	0.9993921069055081	-0.03253266503834426	-0.012531654339036287	0.032624939292197716	0.9994415101777665	0.0072305649686888705	0.012289425989467842	-0.007635014020216992	0.9998953328072699
179														-0.1144408276623547	0.05616610225772091	9.768515649959024	0.9993924614173189	-0.03252387309713246	-0.012526202177615103	0.03261615744076827	0.9994417660830897	0.007234810468395671	0.012283905569153576	-0.007638971624257723	0.9998953704145708
180														-0.11508342480599412	0.0913802068356119	9.809738331357858	0.9993926056200939	-0.03251894044590707	-0.012527503508488174	0.03261109031039684	0.9994420163080153	0.007223076002393547	0.012285626587471059	-0.00762722429490318	0.9998954389479475
181														-0.12423532062114412	0.06455083073677727	9.789098821851036	0.9993929599898403	-0.03251014767535477	-0.012522053380858149	0.03260230762734207	0.999442272176396	0.007227317915793306	0.012280108310539807	-0.007631178481101009	0.9998954765648618
182														-0.1386254724260869	0.07901548168902277	9.775973657588867	0.9993928753878716	-0.032517706163781794	-0.012509173026542452	0.032609680378065796	0.9994420833746813	0.007220161031204102	0.012267410876074076	-0.007623697627927999	0.9998956894920965
183														-0.14249763054169548	0.04663413914721085	9.789043099110684	0.999393174350908	-0.03252249096680794	-0.0124727960830407	0.03261402938589292	0.9994420350949017	0.00720718895111773	0.012231440962999114	-0.0076096035819808805	0.9998962375093196
184														-0.10711427004964985	0.07935271632108644	9.789161896339031	0.999392841806199	-0.03253528230123316	-0.01246608006188108	0.03262646246909004	0.9994418105028071	0.007182016821514571	0.012225452682139188	-0.007584380294429005	0.9998965023852553
185														-0.10241230839962151	0.0733392493687737	9.822872357540016	0.9993930234230485	-0.032531485476325714	-0.012461427929471858	0.03262298788954192	0.9994417131638426	0.007211286243258426	0.012219877024610921	-0.007613438173848637	0.9998963497106469
186														-0.12078170943393822	0.05628700432740304	9.82280651997049	0.9993927043820787	-0.03252582004065826	-0.012501738221487507	0.03261778298516931	0.9994417924386206	0.007223832792258352	0.01225979857127708	-0.007627224774504891	0.9998957559572057
187														-0.11251858444235548	0.08197533689297214	9.843454664710968	0.9993931171643785	-0.032521317617337585	-0.0124804352848278	0.032612911107467286	0.9994420733610023	0.007206942830134631	0.01223909284068731	-0.007609592386760305	0.9998961439620336
188														-0.14967252717690493	0.08526876439264298	9.796557992243175	0.9993937364775012	-0.032506870520013706	-0.012468474587324854	0.03259864008505048	0.9994423807716428	0.007228843760682375	0.012226534838008766	-0.007630916491882229	0.9998961350857145
189														-0.08603286505698195	0.05239935120657338	9.7816938008288	0.9993938177219135	-0.03250387263368815	-0.012469777986488625	0.03259549291308535	0.9994425774228076	0.007215835101273669	0.012228284465628882	-0.007617919549900017	0.9998962127944877
190														-0.1363396275756244	0.0691764099207525	9.80967801830458	0.9993942416949133	-0.03249325623440316	-0.012463465261921812	0.03258488728236748	0.9994428881681613	0.0072206932409739615	0.01222189788228969	-0.007622439856782182	0.9998962564300284
191														-0.11894040534995048	0.08544302825213276	9.809745833305229	0.9993941505754619	-0.032495255050858145	-0.012465560345628934	0.032587049134731934	0.9994427307568198	0.007232714984118213	0.012223584754130224	-0.0076345488753822134	0.99989614342652
192														-0.12846913066951257	0.09450223672425435	9.83033150461209	0.9993933538484562	-0.03251340789547954	-0.012482090792684619	0.03260536669057779	0.9994421111083887	0.0072357864935568734	0.012239867095177678	-0.00763838007888773	0.9998959149847862
193														-0.1232678772961387	0.01696672441877048	9.781542939600442	0.9993927608554863	-0.032539792515739935	-0.01246079663107168	0.03263162176794046	0.9994412353568211	0.007238392723892309	0.012218298181105498	-0.007640613291079358	0.9998961617178524
194														-0.11098853841227292	0.07435320570455746	9.789157986296622	0.9993931738104181	-0.03253509531380261	-0.0124399241983832	0.03262656920603993	0.9994415163293934	0.007222355505426207	0.012197996679095609	-0.007623844838731482	0.99989653758121
195														-0.13808689613017736	0.06655631492936512	9.80967170493566	0.9993935278382614	-0.032526297614181784	-0.012434487464628802	0.032617781010378794	0.9994417727194359	0.007226569406750563	0.012192492647252702	-0.007627772082678059	0.9998965747596605
196														-0.11168742256071192	0.07312655857087727	9.78915927891809	0.999394112857168	-0.03250483993239289	-0.012443575346514349	0.03259609422072374	0.9994426561694767	0.007202199001394036	0.01220253367086376	-0.0076034472360566275	0.9998966375391711
197														-0.14793225708390662	0.07486190335119806	9.830257384213741	0.9993939069471152	-0.03251613003445184	-0.012430609179133356	0.032607480409496285	0.9994421698626099	0.007218124525329057	0.012188969535036648	-0.00761908051548609	0.9998966839797867
198														-0.1087003465730832	0.10378647905155838	9.776120602561996	0.9993939751931167	-0.03251356806905952	-0.012431823644127775	0.032604781702977266	0.9994423442467729	0.007206159630224173	0.012190593004495721	-0.007607129414812595	0.9998967551823863
199														-0.1305639593380705	0.05479728569528268	9.789075914838252	0.9993937690367896	-0.032524857598991354	-0.012418858587064813	0.03261616706920694	0.9994418578157646	0.007222083597333569	0.012177029857636032	-0.007622760913122532	0.9998968014049789
200														-0.1083097444563211	0.06538983059994286	9.822865241422301	0.9993933793418519	-0.03251923320097151	-0.012464862602297797	0.03261052831040806	0.9994422570368446	0.007192238345158144	0.0122240243369115	-0.007594361139577225	0.999896444092033
201														-0.12793221036102423	0.08528271800069107	9.77603629132873	0.9993927856427707	-0.0325456184344589	-0.0124435817151636	0.03263678488406786	0.9994413812836757	0.00719483496751512	0.012202470143967747	-0.007596584660050062	0.9998966904755153
202														-0.14096734262287455	0.06251076825979573	9.80965734921467	0.9993922301325731	-0.03256470326802439	-0.012438265622960284	0.03265582431617705	0.9994407628734123	0.0071943481457667985	0.012197027870459808	-0.00759615745472936	0.9998967601222888
203														-0.1327100247138513	0.08815296170046015	9.830334155250206	0.9993919811140205	-0.03256319647344018	-0.012462195650261824	0.03265438728699532	0.9994408757313232	0.0071851867280443606	0.0122212550871091	-0.007587763362024378	0.9998965280324049
204														-0.11509200361376301	0.06854344543680496	9.789153004824092	0.9993926247523047	-0.03254804622699389	-0.01245015170611824	0.03263912534264643	0.9994413857783538	0.007183584781399015	0.01220938522477304	-0.007585583711884026	0.9998966895795706
205														-0.14223664824206994	0.06077438026567311	9.809649938068317	0.9993921453740489	-0.03256513320289638	-0.012443948896302088	0.032656149941190614	0.9994408391658478	0.007182261376795402	0.012203099429023721	-0.007584267067010881	0.9998967763011248
206														-0.12985442028293168	0.08254805726537094	9.776034421708443	0.9993920208503027	-0.03256816326586258	-0.012446019533829311	0.03265935891042056	0.999440638224955	0.007195619504604562	0.012204709595425635	-0.0075977237369380425	0.9998966544887069
207														-0.13038772647812635	0.08203085480672233	9.776031678707643	0.999391771688838	-0.032566652298638456	-0.01246995744601747	0.032657917673918964	0.9994407512731504	0.007186453072623192	0.01222894491971531	-0.0075893249120768955	0.9998964221625809
208														-0.13454062245999465	0.049734694133998385	9.789049097837273	0.9993918961965634	-0.03257012806476995	-0.012450886493831076	0.032661364404874	0.9994405705560264	0.007195915637158653	0.012209549207477311	-0.007598202714429228	0.9998965917651991
209														-0.11208561038191564	0.060420572768278495	9.822854701047156	0.9993923656999479	-0.03255202609271439	-0.012460536823136515	0.03264333817667728	0.9994411575457801	0.00719618483880524	0.012219322949516592	-0.007598565707448253	0.9998964696136521
210														-0.11752237858880912	0.06520653219898256	9.78914692811484	0.9993930817913818	-0.03253272896752675	-0.012453498040744783	0.032623434777335994	0.9994421317042955	0.007151005363117005	0.012213908909693611	-0.007552941168834119	0.9998968814377044
211														-0.13178379856949812	0.07958116945110888	9.77603320453868	0.999394038309063	-0.03251663671273143	-0.012418716890061668	0.03260729273711699	0.9994425327790681	0.007168551633159272	0.012178696673257527	-0.007569148502543694	0.9998971883840294
212														-0.10936010639268919	0.09014789372768567	9.809845589357293	0.9993927082479682	-0.03254604098405947	-0.012448691379198743	0.03263653300387703	0.9994418083450122	0.0071364168556732974	0.012209480508091286	-0.007538365095630089	0.9998970455188908
213														-0.14169797739154033	0.08774370018217374	9.796624307674204	0.9993926740588222	-0.03255233777940668	-0.012434964521530673	0.03264261511008262	0.9994416749529313	0.007127274798503573	0.012196012312691355	-0.007528855980412399	0.999897281530105
214														-0.12425526245731178	0.10394236824170831	9.796733014167902	0.9993925608545703	-0.03255475385065086	-0.012437737345170924	0.032645215044944956	0.9994414947430476	0.007140624654184645	0.012198329525522182	-0.00754231976955252	0.9998971517957637
215														-0.14624465608721743	0.054960882284134496	9.809625299308625	0.9993921966832482	-0.032562536407922255	-0.012446623289614218	0.03265300078134212	0.9994412779811046	0.007135363163063661	0.012207323564340414	-0.0075374458656677695	0.9998970787842199
216														-0.11111666610660571	0.0877715378163735	9.80984739722434	0.999392257712501	-0.032560119610241696	-0.012448045440049398	0.03265044926420003	0.9994414462383541	0.00712346150643761	0.012209151778755156	-0.007525566553725563	0.999897145940966
217														-0.134225470489538	0.07602925002779228	9.776028254769582	0.9993916621886054	-0.03258650553260737	-0.012426793837095365	0.03267670804881081	0.9994405696195027	0.007126047272972775	0.01218762893220437	-0.007527778943168368	0.9998973918583813
218														-0.129418289053106	0.06986697640148845	9.809736498583733	0.9993920298134029	-0.03258301051158465	-0.01240637624162538	0.03267287415096747	0.999440803237677	0.007110845121511772	0.012167745894858431	-0.007511873909288562	0.9998977536279443
219														-0.1296949332240207	0.06927140893503238	9.80973706795302	0.9993923840713727	-0.03257420243213749	-0.012400967544868522	0.03266407574653343	0.9994410611412977	0.007115016541231348	0.012162270173100112	-0.007515759487064334	0.99989779104845
220														-0.11240016916122254	0.08543012897478831	9.809853445581636	0.9993921239629344	-0.032572464157940594	-0.01242646931088864	0.03266242322677431	0.9994411769401895	0.007106331357579666	0.012188054389846475	-0.007507890188882713	0.9998975362081366
221														-0.12163954589152447	0.05866943885706782	9.789137992697494	0.9993924781690088	-0.03256365605610438	-0.012421066116358036	0.032653624885282534	0.9994414348034167	0.0071104978685751375	0.012182584334141034	-0.00751177091952961	0.9998975737227259
222														-0.11321584008435465	0.08443776167661415	9.809852655282118	0.9993922333315832	-0.03257598621059918	-0.012408427737512297	0.0326660819280821	0.9994408982422782	0.007128675342301187	0.012169266534103048	-0.007529677488110434	0.9998976012117176
223														-0.12227336982865278	0.05780220837575816	9.789135255475585	0.9993925874863364	-0.03256717722704087	-0.012403025631974018	0.0326572825224929	0.9994411560782023	0.0071328420221114346	0.012163797746221101	-0.007533558556806317	0.9998976385209938
224														-0.1139280807633068	0.08357615286187356	9.809851788267906	0.9993934002887748	-0.03254118910344938	-0.01240574346719833	0.03263152764664896	0.9994418716065988	0.007150432360664386	0.012166135897908234	-0.007550913271386391	0.9998974791677802
225														-0.11431195589751819	0.082972355272508	9.809852450256905	0.9993922582029807	-0.03257917875808141	-0.012398038368886094	0.03266907288062836	0.9994408728750054	0.007118518382932466	0.012159190806447078	-0.007519224580828272	0.9998978024481483
226														-0.11832858531479545	0.050672509352135464	9.822836602177468	0.9993923389841035	-0.03258393472834121	-0.012379013591626338	0.03267409947204502	0.9994404654179845	0.007152573576916881	0.012139028114860667	-0.007552700358249455	0.9998977951339452
227														-0.11486172271104285	0.08184955819254201	9.809855462072239	0.9993930369609139	-0.032565160736097415	-0.012372064511352174	0.032654714348746755	0.999441426863695	0.007106609561702086	0.01213372592580999	-0.007506302344887391	0.9998982088794157
228														-0.1150976528657585	0.08118831167958318	9.809858187627011	0.999392778609471	-0.032583441042308196	-0.012344773512843746	0.032673038891604826	0.9994406819817672	0.007127112276908699	0.012105643015910446	-0.007526125806974654	0.9998984002575007
229														-0.12422629877463381	0.054540724064786196	9.78912938365152	0.9993933664203833	-0.03255601558545849	-0.012369519155293857	0.03264575338225679	0.9994416000561199	0.0071234025134197625	0.012130702413243325	-0.007522893490054819	0.9998981208765716
230														-0.11606138191538544	0.08015711201445606	9.809855315137103	0.9993930061005335	-0.032563498090012494	-0.012378931677711967	0.03265324906130705	0.9994413892309342	0.007118624718381937	0.012140209350746717	-0.007518516095790518	0.9998980384182369
231														-0.1393057951176161	0.0685278507974787	9.776012642985775	0.9993929152496261	-0.032565468848438535	-0.012381081840255914	0.03265538132664498	0.9994412343017411	0.007130585377326636	0.012141952860439781	-0.007530565456412778	0.9998979265728285
232														-0.1259709035938626	0.08865163329167834	9.83044865370497	0.9993924221462293	-0.03258271702578923	-0.012375504349766153	0.0326725632509669	0.9994406874970961	0.00712851919713726	0.012136316051640353	-0.0075285275153732486	0.9998980103521286
233														-0.10335237165846992	0.06337749708028491	9.82296218020123	0.9993915118552964	-0.032602092754476654	-0.012397966753179323	0.032691625079442184	0.9994403472466026	0.007088719577959896	0.012159921103758258	-0.007489715856977909	0.9998980150370994
234														-0.13186502628947613	0.09293977935827076	9.796744098277747	0.9993916051736199	-0.032606566036601746	-0.012378665509533426	0.032696352535071214	0.9994399592473268	0.007121544116606447	0.012139523853863673	-0.007521948617423495	0.9998980209249336
235														-0.14128135074267295	0.10192027276464433	9.81734000800476	0.999392248106854	-0.032583467530515976	-0.012387577148764671	0.032673017802843936	0.99944089924982	0.007096676290086474	0.012149416923615267	-0.007497102800351818	0.9998980873659162
236														-0.1272197913898629	0.050544642326856466	9.789112384702875	0.9993928664450272	-0.032574840374390804	-0.012360350859690915	0.032664207987825225	0.9994411743897684	0.007098482297533483	0.012122211651336482	-0.007497913642024709	0.9998984114777344
237														-0.12367057596460311	0.08175015748502046	9.776151795177922	0.9993928302305998	-0.032581139645364486	-0.012346668501299134	0.032670293711718514	0.999441040680222	0.007089295650839314	0.01210878988428485	-0.00748836053113245	0.9998986456956996
238														-0.11900423456651898	0.07559478269121667	9.809856273853079	0.9993931473180064	-0.032573258673817086	-0.012341795379067566	0.03266244352420911	0.9994412575979219	0.007094885066910499	0.01210379596812603	-0.007493692711435345	0.9998986662120863
239														-0.1334342428591482	0.09008692371059718	9.796749502135125	0.9993932282771436	-0.03257024690102521	-0.012343188024008222	0.03265928314735182	0.9994414539606624	0.007081760324871816	0.012105639102949648	-0.007480582985575721	0.999898742063468
240														-0.1016161193841047	0.05559182907091776	9.768660759572214	0.9993938064661435	-0.03255692848381845	-0.012331504563993937	0.03264615258675722	0.9994417210500638	0.007104572173478706	0.012093317096414745	-0.007502841607386766	0.9998987243963359
241														-0.14301943481655863	0.09854251601426887	9.817349325602432	0.9993932614923463	-0.0325876525149826	-0.012294461649624938	0.032676376228498595	0.9994408651850645	0.007086002731026285	0.012056671193366836	-0.007483441834694022	0.9998993123200167
242														-0.10642989280405468	0.05805676909706822	9.822962210311042	0.9993926584512185	-0.03258064104414774	-0.012361879426658104	0.03266926228768636	0.9994414512791632	0.007035962377609352	0.01212573855009218	-0.007435542626680011	0.9998988344679987
243														-0.1211097934188928	0.07247806364192955	9.809854026411521	0.9993918880250541	-0.032612004731454404	-0.012341446313700103	0.032700810069216414	0.9994402246481562	0.007063595122930824	0.012104179878677488	-0.007462874958034136	0.9998988920520044
244														-0.12632083663107566	0.07764745673926457	9.776151356269084	0.9993918242287265	-0.03261905638775825	-0.012327969222456492	0.03270765830102139	0.999440060823618	0.007055062674802993	0.012090936822315046	-0.007453990961492979	0.9998991185442179
245														-0.13084058688935848	0.08083377016250948	9.830452440718943	0.9993920231624323	-0.03260672946763663	-0.012344441369471097	0.03269524680155369	0.9994405873273727	0.007037985457578861	0.01210805004472008	-0.007437311082639683	0.9998990356670887
246														-0.14533781864588396	0.0952842433747498	9.8173474416799	0.9993915458806889	-0.032623593699962296	-0.012338523262790207	0.032712065227981875	0.9994400385099974	0.007037770361043075	0.01210201680410724	-0.007437106778465498	0.999899110226646
247														-0.09567241879760609	0.07742055924566502	9.78941765179334	0.9993915089093024	-0.03262989229481598	-0.01232485492070301	0.03271815120474395	0.9994399040554329	0.007028567664213402	0.012088610413574438	-0.007427537310281456	0.9998993435280239
248														-0.12282041488273017	0.06969207838939107	9.809852946783465	0.9993921578749095	-0.032614634109965575	-0.01231261223320086	0.03270307548391665	0.9994402375783568	0.007051266780596662	0.012075745609499535	-0.007449641010878726	0.9998993345416246
249														-0.11420622646468337	0.0596131073047477	9.789252282835701	0.9993912480951821	-0.03263400049245622	-0.012335122318505407	0.03272212847798061	0.9994398942349425	0.007011427780224771	0.012099402407749447	-0.007410791017505806	0.9998993372524407
250														-0.12851139784282228	0.0739471219998986	9.77615149508523	0.9993921795309302	-0.03262424309019146	-0.012285367524393851	0.032711980630802745	0.9994402387911967	0.007009665341922112	0.012049805626122045	-0.007407283428346225	0.9998999621645082
251														-0.12375519463774835	0.06786826656550357	9.8098539868257	0.9993916443527173	-0.03263697322083732	-0.012295087513110155	0.03272502157223879	0.9994396731613256	0.007029414931542084	0.012058779418713812	-0.007427495551370478	0.9998997040447437
252														-0.09238554014955472	0.06899952316416844	9.82312457815701	0.9993917518157135	-0.032633317580007995	-0.012296055727004828	0.032721219416040864	0.9994398870990376	0.007016685498887922	0.012060190821316933	-0.007414759550068706	0.9998997815472149
253														-0.1245646374872169	0.06672501636244503	9.80985158521151	0.9993917141251085	-0.03263961550688706	-0.012282395435726961	0.032727305360320244	0.9994397524610832	0.007007473466276535	0.012046793014298117	-0.0074051806251295635	0.9999000140403935
254														-0.14383780531687695	0.08696584132109592	9.7630489892095	0.9993923139886909	-0.032625517176730574	-0.01227103782413219	0.0327133952856102	0.9994400485467453	0.007030158587628393	0.012034804078913811	-0.007427313769502915	0.999899994249901
255														-0.12516709822708896	0.06584368879957134	9.809849871372881	0.9993926678166932	-0.03261669562174905	-0.012265670831655803	0.03270458276883003	0.9994403081078637	0.007034258679839371	0.012029371560854749	-0.007431130195086513	0.9999000312650631
256														-0.12563291413637825	0.06537003612103243	9.809847085260765	0.9993926699591974	-0.03261006538749586	-0.012283113092768947	0.032698186381424035	0.9994404562965806	0.007042934406064386	0.012046569602677897	-0.00744029254167565	0.999899756079429
257														-0.14388518954978535	0.048008215975817385	9.809666301561082	0.9993915229137827	-0.03264806190047346	-0.012275503338481018	0.032735743185426	0.9994394516199733	0.007010967384404053	0.012039727827822394	-0.00740854909615878	0.9999000741844767
258														-0.12281277255381438	0.09580746890232003	9.796925398343982	0.9993921412364145	-0.03261982145511172	-0.012300214759552277	0.03270764851027373	0.999440392354184	0.00700798543401569	0.012064732231710036	-0.007406036669610862	0.9998997914076319
259														-0.13203261828988966	0.0691216018066676	9.776139882696233	0.9993924951418941	-0.03261099924144341	-0.0122948518711633	0.03269883547943597	0.9994406520410303	0.007012075733281265	0.012059303974444349	-0.007409843201787095	0.9998998286885427
260														-0.12725226501069178	0.06308318661571219	9.809841183328412	0.9993920430517311	-0.032641127128414285	-0.012251575599623272	0.03272894391507669	0.9994394911731128	0.007037024501355386	0.012015012072001903	-0.0074337274240860425	0.9999001846091906
261														-0.11453664399512967	0.08500383097323568	9.776326777593276	0.9993928410477427	-0.032621531960616804	-0.012238664758197458	0.03270920697850774	0.9994401636128979	0.007033287727699283	0.012002376487938922	-0.007429334422808058	0.9999003690111709
262														-0.12385283383222961	0.09378567591882662	9.79693186766787	0.9993923919202391	-0.03264362283113225	-0.012216417658334637	0.032730884929209454	0.9994395997460946	0.007012533858564965	0.011980657064407551	-0.007408127146955015	0.9999007868326139
263														-0.13287629811325463	0.06692808135467677	9.776143716004585	0.9993924732038844	-0.032640600930140436	-0.012217842458589305	0.03272771556400803	0.9994397958877437	0.0069993592440100874	0.01198253468115068	-0.007394969018504282	0.9999008617337173
264														-0.12458329047620782	0.09244404484923978	9.796935357299041	0.9993933566451074	-0.032612133332375566	-0.01222159781435122	0.032699189531793675	0.9994407791456386	0.006992280366369091	0.011986730062374442	-0.007387674889262116	0.999900865367233
265														-0.12867222606979575	0.060112187788765814	9.809841317058385	0.9993935901505073	-0.03261262741950036	-0.012201167930857315	0.03269962879289393	0.9994407085638873	0.0070003101447081465	0.011966045415552696	-0.007395038749865687	0.9999010586848087
266														-0.10199766539137231	0.06702652609323227	9.78943047412914	0.9993928219113973	-0.03264354721697527	-0.012181393067617122	0.0327307577177297	0.9994394816619997	0.007029935591275595	0.01194508313901423	-0.007424373393580891	0.9999010919428558
267														-0.11142828381736768	0.07591695650794464	9.81003390575768	0.9993926308235809	-0.032646327288562774	-0.012189617306964814	0.032733235052102544	0.99943961419254	0.0069994932452955225	0.011954278671087618	-0.007394247577351831	0.9999012052819115
268														-0.10283552231283345	0.06577382747207285	9.789430207388278	0.9993922558648625	-0.03265451982489731	-0.012198411878061729	0.03274144986738875	0.9994393703606363	0.006995886914191783	0.011963125758877506	-0.0073910288959169144	0.9999011232686645
269														-0.12633377261396064	0.08982125484247455	9.796937337010817	0.9993920449004041	-0.032665783121773	-0.012185532521423155	0.03275280798206304	0.9994388870944331	0.007011742488981406	0.01194965100241339	-0.007406590071211532	0.9999011692484603
270														-0.12167918523703777	0.0838089370162178	9.830636137692407	0.9993926898492204	-0.03265038580107301	-0.012173897608429173	0.03273758258909507	0.9994392336000544	0.007033422151254451	0.01193742694895372	-0.007427694660974414	0.9999011587101304
271														-0.13082125102636852	0.05715445698742687	9.809830574393597	0.9993928918698676	-0.032638038933177314	-0.01219040994305951	0.03272515287808144	0.9994397611546237	0.007016280517127588	0.011954582765184242	-0.007410953905215455	0.999901077963778
272														-0.1223033413667169	0.047022861522528686	9.789223041136168	0.9993931239655064	-0.03262473578858488	-0.012206981002322764	0.03271176908906123	0.9994403180933337	0.0069993380086928805	0.01197179742269214	-0.007394402222020624	0.999900994540084
273														-0.12321269038043413	0.08194807213138872	9.830632727027966	0.9993927612389216	-0.032632480041643465	-0.012215974360493445	0.03271951589561876	0.9994401020917424	0.0069939695741858855	0.01198090408946019	-0.007389423332035272	0.9999009222718117
274														-0.14629637875154342	0.07029369015514762	9.796727888043957	0.9993940016729277	-0.03260212722190587	-0.012195520521011277	0.03268890058890587	0.9994411681512624	0.006984782224811736	0.011960986517021589	-0.007379207616409836	0.9999012361710995
275														-0.11831755468977356	0.03970560596966076	9.822917526502785	0.9993938216207937	-0.03262623345804494	-0.012145706917495511	0.032713128959493964	0.9994400878986435	0.007025802077400215	0.011909680930405604	-0.007418867264780564	0.9999015551086231
276														-0.10201947955628933	0.0933757507087377	9.776541457466282	0.9993938240228398	-0.03261132966913774	-0.012185470127008824	0.03269806625368797	0.9994408467112513	0.006987874381134795	0.011950772706182649	-0.007382079809098807	0.9999013370975246
277														-0.1203136574258303	0.07598837436479774	9.776331619500501	0.9993940566221198	-0.03261182419641102	-0.012165052855021261	0.0326985056980948	0.9994407762623744	0.006995889448373449	0.011930101151907384	-0.0073894293855873636	0.9999015296617264
278														-0.12975917757235614	0.08501718716977828	9.79693543467464	0.9993934841447253	-0.032625371305816	-0.012175754441684828	0.03271238388748314	0.999440174557871	0.007016938087955254	0.011940007934021796	-0.00741098015716555	0.9999012519162308
279														-0.12113218728980121	0.07521612953191978	9.776327484268206	0.9993933940425961	-0.03262730690513606	-0.012177963217961546	0.03271447794957104	0.9994400224689535	0.007028827764612961	0.01194181211152621	-0.007422959744982072	0.999901141509558
280														-0.12534306173932486	0.04299013682296825	9.789203130636439	0.9993932943538851	-0.03262931388700787	-0.012180766632379552	0.03271666296404637	0.9994398583527869	0.007041981273680136	0.011944168660328427	-0.007436222900436821	0.9999010148129611
281														-0.13089669671982668	0.08371263705325535	9.796931536302491	0.9993944130944841	-0.032608279729304086	-0.012145252925621132	0.03269527258182849	0.9994406122307055	0.007034328305724663	0.01190908167457872	-0.0074271607635920485	0.9999015006772718
282														-0.11716095805788211	0.06813405366534339	9.81002425545851	0.9993938848308197	-0.03262047334267154	-0.012155973085821385	0.03270778837317466	0.9994400596378364	0.007054627619837676	0.011919041173633866	-0.007447946698185424	0.999901227395728
283														-0.12251079446022461	0.07340359505767004	9.776324082754641	0.9993942379223082	-0.032611642492633784	-0.012150637087068247	0.03269896563857402	0.9994403197282427	0.007058678890232611	0.011913641502762765	-0.007451716274839132	0.999901263660919
284														-0.1319602211359665	0.08233138397189829	9.79692897395662	0.999394532717977	-0.032604327650999215	-0.012146019588418759	0.03269168556555879	0.9994405166449488	0.007064515790887082	0.011908890305087176	-0.00745731231097007	0.9999012785394352
285														-0.1324221345881271	0.08183095355180824	9.79692693494757	0.9993937274372781	-0.03262282844173368	-0.012162591150109894	0.03271034004792877	0.9994398889530228	0.007066967066455317	0.011925234294234498	-0.00746052505060529	0.999901059781915
286														-0.11879297141976784	0.06621455745873593	9.810017772079327	0.9993931088551227	-0.03264942853788944	-0.012142025738815827	0.032736829587654316	0.9994389968821579	0.007070466726803506	0.011904367326393136	-0.007463667150617386	0.9999012849832842
287														-0.14214182426982327	0.09017328880686384	9.817533579370306	0.9993930681231763	-0.03265573064494496	-0.012128422955552968	0.0327429203025909	0.9994388628403036	0.007061204892817439	0.011891028441735481	-0.007454039208708991	0.9999015155214398
288														-0.11933742045027768	0.0649398697642589	9.810019686873792	0.9993927312920696	-0.03266820319259825	-0.012122588038239821	0.03275505115630588	0.9994386426071156	0.007036070451218984	0.0118859271546458	-0.007428873657146531	0.9999017634607217
289														-0.11975579976194282	0.06425022284091918	9.810019128815854	0.9993923689288912	-0.032675936752196946	-0.012131615064175682	0.03276278801686626	0.9994384269485966	0.0070306799014239404	0.011895068224301772	-0.007423873374514625	0.9999016918957874
290														-0.1024542419175687	0.08049395682535719	9.810247138351297	0.9993917928655258	-0.03268990553614494	-0.012141434390883915	0.03277707930730847	0.9994378110446334	0.007051590345065416	0.011904092788307268	-0.007445262275442641	0.9999014254637992
291														-0.14360638485129743	0.052130810516105935	9.776082093322431	0.999391006396563	-0.03269991914574484	-0.01217914699504969	0.03278684997432138	0.9994377992953203	0.007007696375348323	0.011943148765154853	-0.007402744598422807	0.99990127541172
292														-0.11749000085952438	0.09425407330095327	9.797157841152385	0.9993924178746066	-0.0326722151200161	-0.012137604949067899	0.03275896222701717	0.9994386400213379	0.007018206758710859	0.011901491022435326	-0.007411557963784921	0.9999017068292227
293														-0.1036492607096072	0.07855086120742755	9.810250337389666	0.999392942350184	-0.03265842408716554	-0.012131533983157347	0.03274487486848223	0.9994392494129144	0.006997135327942646	0.011896215805418806	-0.007390133225656248	0.999901928181168
294														-0.13588612113442322	0.07642082306348466	9.79692319544135	0.9993923873903608	-0.032671444566273196	-0.012142188276747023	0.03275822037993926	0.99943866742256	0.007017767319925967	0.01190609187493391	-0.0074112597154752605	0.999901654266906
295														-0.108331185597409	0.045687910063756984	9.823097753227877	0.9993924683771609	-0.03266841466905162	-0.012143674650455152	0.0327550436896212	0.9994388644156031	0.007004527717161194	0.011908033586458356	-0.00739803883879817	0.9999017290501317
296														-0.11885693745699297	0.09204082330211999	9.797162396283703	0.999391861454121	-0.03269494748941126	-0.012122197322768376	0.03278144068716556	0.9994379860581136	0.007006366431749051	0.011886311696289072	-0.0073994886827898	0.99990197677647
297														-0.13162143397924359	0.033485277431170773	9.789157855912194	0.9993923860708993	-0.03268115714824758	-0.012116131023000175	0.032767354275753474	0.9994385955883691	0.006985280389237673	0.011881041927466711	-0.007378049593256591	0.9999021978308267
298														-0.11037509224125117	0.08139913578240657	9.776557743171384	0.9993927656390471	-0.03267100234663187	-0.012112208469265102	0.03275723856714845	0.999438886862102	0.006991047796818898	0.011877007610988751	-0.00738356509478036	0.9999022050464235
299														-0.12377668420387299	0.05841842000927431	9.810005682420302	0.9993925254942726	-0.03266939652374324	-0.012136330456674069	0.03275569919768238	0.9994390028650707	0.006981670440784514	0.011901435050031236	-0.007374963243786836	0.9999019780763023
300														-0.11126341458018735	0.08029177894283553	9.776556830429183	0.9993939937761855	-0.03263474649536499	-0.012108613680743823	0.03272091677548118	0.9994400988866897	0.006987871116183122	0.011873786652044409	-0.0073798413633095715	0.9999022707904981
301														-0.12441729448782449	0.05738139783774332	9.810003697459864	0.9993943467194875	-0.03262590833479953	-0.012103299155930305	0.03271208665416725	0.9994403598500283	0.006991887411556733	0.011868408985998842	-0.007383576922799051	0.9999023070580275
302														-0.11603700266237456	0.08292478181118018	9.83086343022606	0.9993943184576557	-0.03263119340452662	-0.012091379224638474	0.03271719645961503	0.9994402441778516	0.006984509541749524	0.01185669812302709	-0.007375875182797963	0.9999025028346047
303														-0.12990428658781492	0.061951612921312765	9.776307914057394	0.999395113702122	-0.03261159572853385	-0.01207851532106944	0.03269745767511273	0.999440916871122	0.006980683734058454	0.011844111191087671	-0.007371397957606772	0.9999026850260198
304														-0.12521770887326727	0.05577055034048129	9.81000280242018	0.9993948440672035	-0.03262979877189016	-0.012051634079906481	0.03271569697941953	0.9994401817343422	0.007000450412331122	0.011816464066750567	-0.007390491656896917	0.999902871188011
305														-0.11262423342189753	0.07776729588294123	9.776561656810667	0.9993953195107637	-0.03261162262776864	-0.012061401641719127	0.03269759270343515	0.9994407739023006	0.0070004923377609985	0.011826359176818594	-0.007390638074942781	0.9999027531202553
306														-0.12596590015747028	0.054821823189966354	9.809998572470427	0.9993956514630924	-0.03260336104824412	-0.012056230132963608	0.032689350617082204	0.9994410090841287	0.0070054062788751275	0.011821091019639825	-0.007395282905776725	0.9999027810731647
307														-0.09926123006021546	0.06170190265022905	9.78964582630338	0.9993965940587103	-0.032587294704897664	-0.01202148109285882	0.03267323171546652	0.9994414140154663	0.0070228114052267405	0.011785911637087967	-0.007411354436410345	0.9999030773591514
308														-0.14045547501279831	0.0690208051904204	9.796913681808958	0.9993953730205782	-0.03262146948150335	-0.012030299826958685	0.03270735778255472	0.999440366623926	0.007013010018237539	0.011794792577367931	-0.007402249083845303	0.9999030400876663
309														-0.10910968790493804	0.07006680735130676	9.810255388211916	0.9993952834075727	-0.032623384136150735	-0.01203255210678894	0.03270942896373254	0.9994402156439536	0.007024856613055898	0.011796641876567145	-0.007414186474091983	0.9999029298283725
310														-0.113308023466901	0.03778008126993241	9.823075202652973	0.999395626227728	-0.03261449792552576	-0.012028167023880501	0.032700579248219605	0.9994404638504962	0.0070307421469509935	0.011792132704451726	-0.007419820979772992	0.9999029412212516
311														-0.1007473196200434	0.059850152824168876	9.789642141700574	0.9993958081455246	-0.03261060514363026	-0.012023605670504811	0.03269699571774026	0.9994403758189708	0.0070598621706405365	0.011786650592413225	-0.007448732442543611	0.9999027909016015
312														-0.11018338049366691	0.06892796963534875	9.810251454970265	0.9993955259829927	-0.03262381319840584	-0.012011222151503766	0.03271032163628967	0.9994398139142029	0.007077656504379339	0.011773593488299722	-0.007466269184741755	0.9999028139378512
313														-0.11531390959743804	0.07428018622444676	9.776557417034418	0.9993965911436344	-0.032598410651318965	-0.011991548419268869	0.03268492895374149	0.9994405494524307	0.007091088034494112	0.011753681541226408	-0.007478752117301983	0.9999029549096232
314														-0.11093843314360963	0.06812845063266525	9.810248533022502	0.9993962982679362	-0.03259256854877621	-0.012031769767543785	0.03267954573987561	0.9994406301884856	0.0071045069271243174	0.011793485429729177	-0.0074934106944370546	0.9999023764836158
315														-0.12565560029231765	0.08273968848147234	9.797160525383205	0.9993960600715283	-0.03259094626371994	-0.012055925312565746	0.03267799331656878	0.9994407477299435	0.00709510604671352	0.011817946789063224	-0.007484784475664241	0.999902152280434
316														-0.11212712854102697	0.06722831470132304	9.810241225510946	0.9993956357392687	-0.03260802304398302	-0.01204492002738465	0.03269549065807827	0.9994398726388004	0.007137637589999385	0.011805429087099552	-0.007527138427166591	0.9999019822118406
317														-0.12651756917794915	0.08212631193089769	9.797154591173365	0.9993951040342874	-0.03262068684709618	-0.01205474271477624	0.0327084616346557	0.9994393074080319	0.0071573280802055255	0.011814506751871673	-0.007547290730926432	0.9999017230872407
318														-0.10387382628802634	0.05735168951503886	9.789624422822824	0.999394893580372	-0.03262573670888794	-0.012058523528155594	0.03271397754841711	0.999438861223885	0.007194327520045963	0.011817036787554722	-0.00758445645424582	0.999901411971128
319														-0.12251439288421556	0.07591371257156818	9.830841479659307	0.9993950756617435	-0.03262184187947823	-0.012053969281876863	0.032710391953164254	0.9994387685717788	0.0072234433614976135	0.011811562188316919	-0.00761336378460382	0.9999012569701845
320														-0.10507146399686586	0.09236619295636132	9.831114772262332	0.9993953106373348	-0.03261607236550735	-0.012050099566158254	0.03270493202023666	0.9994387391687805	0.007252176933242128	0.01180679878959738	-0.007641889306142715	0.9999010956240499
321														-0.14599121804518422	0.0645450917278907	9.7968632615062	0.9993946084059587	-0.03263367893146951	-0.012060667000574147	0.03272314960185631	0.9994378167489325	0.007296981037538692	0.011815759359241661	-0.007687226517114645	0.9999006422536388
322														-0.15577271123185563	0.07370105607117108	9.817464242133685	0.9993952007626172	-0.03260024531504383	-0.012101929517518028	0.032690250955445734	0.9994387582489969	0.007315463223430507	0.011856651513728082	-0.007706653949824655	0.999900008650755
323														-0.11536288134766436	0.06559464868959056	9.810214767715859	0.9993952603537705	-0.032605696902697025	-0.012082305736437666	0.032695943192336076	0.9994383293233927	0.0073485493826399625	0.011835914885754844	-0.007739147805477006	0.9999000033553666
324														-0.1345749450337128	0.086210600650739	9.763431960159018	0.9993947327621028	-0.03261807564583537	-0.012092529451170717	0.03270864802113388	0.9994377604607267	0.0073693493522877405	0.011845356558349937	-0.007760419216063721	0.999899726683429
325														-0.11615557813098136	0.06502658608437867	9.810209196261784	0.999394914886393	-0.0326141814619514	-0.012087980260843416	0.03270506305341862	0.9994376627230952	0.0073984580331847025	0.011839888086107335	-0.007789319492984539	0.9998995667325519
326														-0.1305431232276238	0.07995509429526809	9.797119738638676	0.9993946913687546	-0.03261990913751253	-0.012091004582411066	0.03271124910579008	0.9994371879776565	0.007435150923366775	0.01184166567212596	-0.007826162225172748	0.9998992579949915
327														-0.1492648763114147	0.09834009012149615	9.838333927971034	0.9993943291537642	-0.032627630051801665	-0.012100107954062845	0.03271897702962254	0.9994369755337922	0.007429702416724182	0.0118508817153931	-0.007821105616779102	0.9998991883732574
328														-0.09960808658654563	0.08077942168813683	9.810486750474078	0.9993939002781366	-0.03264494168120821	-0.012088832428497667	0.032736699966918636	0.9994360811266604	0.0074718282541437015	0.011838097910126072	-0.007863048061279139	0.9998990108571245
329														-0.11774107090237255	0.06389035840039321	9.810197761104385	0.9993940824700385	-0.0326410474924533	-0.012084284938090727	0.03273311426553523	0.9994359805716219	0.007500931230184272	0.011832630914085516	-0.007891942564156679	0.9998988479282367
330														-0.13216315144683072	0.07876265752270617	9.797107677918106	0.9993944064479872	-0.03262701091735518	-0.01209539247289785	0.03271946736461278	0.9994362353781658	0.007526477827956406	0.01184300704427247	-0.007917674640793595	0.9998985216572884
331														-0.16453175212558332	0.07674875348792001	9.783726528446984	0.9993941666409977	-0.032625381861036036	-0.012119576822953977	0.032717917793406874	0.9994363571065162	0.007517043895057174	0.011867499282063277	-0.00790901713728875	0.9998982997828892
332														-0.10626963362489025	0.08527618671505159	9.776783562351685	0.9993946517725846	-0.032614178836654704	-0.012109721184474728	0.03270720317672548	0.9994363471353547	0.007564845345143991	0.011856174286480878	-0.007956341090617746	0.999898058687854
333														-0.12482242172052035	0.10380500202560969	9.817998651663617	0.9993944389604918	-0.03262544287336076	-0.012096935651715155	0.03271855311610414	0.9994358558985283	0.0075806481494419915	0.011842789233678685	-0.007971851835931203	0.9998980937682966
334														-0.13389030078994943	0.0773697926009564	9.79709532526582	0.9993938518183046	-0.032639445675041234	-0.01210766425853734	0.03273288241340595	0.9994352326897067	0.007600925429250875	0.011852736252932044	-0.007992636892598437	0.9998978099780099
335														-0.1165852607276262	0.09363212234659658	9.797387547275434	0.9993943267547573	-0.03262126241025235	-0.012117462158646602	0.03271477656973195	0.999435825611592	0.007600912975898857	0.011862674420099906	-0.007992729373382246	0.9998976913828564
336														-0.14396088208659488	0.08592012225041833	9.817696996184015	0.9993944747284366	-0.03261838122231958	-0.01211301319687168	0.03271222376199363	0.99943567522282	0.007631612441094228	0.011857246679453768	-0.008023234905026417	0.9998975114494691
337														-0.12980355524951845	0.034976655641061526	9.789268244812389	0.9993947040914765	-0.03261890317136622	-0.012092666778166209	0.03271267658793528	0.9994355996614716	0.007639562799553346	0.011836647513712694	-0.008030522100847686	0.9998976970122616
338														-0.10367790145487732	0.07734957363652632	9.810472227458153	0.9993941910948942	-0.032630460156710506	-0.012103878541331579	0.03272455827130469	0.9994350594234063	0.007659326424719871	0.011847113223480355	-0.008050780415199264	0.9998974101591505
339														-0.1348832757035057	0.037765678175278414	9.843563610403034	0.9993945432013361	-0.03262162934136499	-0.012098608122739062	0.03271573159366889	0.9994353180173389	0.007663289494194243	0.01184178726730169	-0.008054464519470365	0.9998974435789006
340														-0.1223868896538636	0.0598827980122693	9.810166184398135	0.9993943776339249	-0.032619827472776225	-0.012117128758323825	0.03271447979855034	0.9994350992264855	0.00769709332508428	0.011859205926609367	-0.008088837357193462	0.9998969596638441
341														-0.11372207600172093	0.050281512283820516	9.789553839922595	0.9993945597972823	-0.032615930654750054	-0.012112593245084253	0.03271089101242911	0.9994349922285034	0.007726183947102239	0.011853752855923272	-0.008117719922244908	0.999896790257122
342														-0.12322396136865477	0.05940645478069102	9.810158601069531	0.9993947493477487	-0.03261142136797412	-0.012109094619770213	0.032706701279294266	0.9994349018196919	0.007755560333705343	0.011849331946448194	-0.008146914816246329	0.9998966052104584
343														-0.12835256932968747	0.06507658301563837	9.776460525964461	0.999394638675316	-0.03262181359000547	-0.012090221881059605	0.03271762874077786	0.9994340907993006	0.007813764634000355	0.011828480739932083	-0.008204597873988884	0.9998963804400488
344														-0.12384257293022143	0.05911194431302826	9.810152590997449	0.9993945022780307	-0.032624751812100124	-0.01209356794521223	0.03272074383156793	0.9994338900961673	0.007826381689535259	0.011831387896417923	-0.008217353371995938	0.9998962412990678
345														-0.13033103095657134	0.13782383901950493	9.771501921732845	0.9993949815582746	-0.03262795580907764	-0.012045220456974974	0.03272439451591522	0.9994332071829104	0.00789799871159295	0.011780697759597693	-0.008287392822984933	0.999896261759436
346														-0.13438315266536724	0.1058946431269594	9.784280549233333	0.9993944940356064	-0.03263894167250169	-0.012055902198253764	0.032735705159693686	0.9994326785407214	0.007917996755310755	0.011790627591966082	-0.0083078608208455	0.9998959748641704
347														-0.0982661350669743	0.10110543198994654	9.831371985807925	0.9993951392070133	-0.03261582505720998	-0.012064977630811137	0.03271236605946689	0.9994336417915598	0.00789282978732807	0.011800713376145449	-0.00828272968880237	0.9998960643750512
348														-0.1487958025147453	0.11757331836873462	9.85919113868117	0.9993952530104446	-0.03261095797699569	-0.0120687066420364	0.032707388440268034	0.9994338991104544	0.007880866087613592	0.011804871943665184	-0.008270836033684748	0.9998961137386708
349														-0.1174727333130929	0.0852193797879235	9.743066706792378	0.9993953324577226	-0.03260793763128152	-0.012070288528166323	0.03270422365640975	0.9994341077031668	0.007867535484954578	0.011806913938462381	-0.008257527657231655	0.9998961996228611
350														-0.1351532777805211	0.06559408691644848	9.830750119911778	0.9993950337935542	-0.03261947913225375	-0.012063830648797283	0.03271539828482862	0.9994339510521519	0.007840931025812457	0.011801234844177574	-0.008230860552030888	0.9998964865378452
351														-0.11337299763231776	0.07806712954379086	9.77676399417443	0.9993953853661722	-0.03261064944402701	-0.012058575854528774	0.032706571515203696	0.9994342090041174	0.007844874252381584	0.01179592677671022	-0.008234525800165706	0.9998965189940036
352														-0.12195623841497559	0.049129296134161636	9.843833479102697	0.9993951867825088	-0.03261365132600188	-0.012066912742696433	0.03270928926665038	0.999434354250035	0.00781498179687731	0.011805212053345922	-0.008204955332048392	0.9998966524978339
353														-0.14110295229216444	0.06945726277511861	9.797053390778874	0.9993962518009986	-0.03258827536481352	-0.012047248435321498	0.03268390848060244	0.9994350799923878	0.007828346379749175	0.011785330396169302	-0.008217371195024371	0.9998967850723878
354														-0.11450336788920346	0.07641966374199559	9.776763837014414	0.999395695871004	-0.032601342151162095	-0.012058008312067518	0.032697316608038644	0.9994344736095029	0.00784974187657557	0.011795277069433669	-0.00823926276059004	0.9998964876366037
355														-0.11025304192694431	0.07011579835910853	9.810454906511763	0.9993946195274963	-0.03262560022982532	-0.012081583883531715	0.03272159363104241	0.9994337960981878	0.007834827822680484	0.0118191272831845	-0.00822541344916748	0.9998963200271589
356														-0.1247180019264556	0.084685921690246	9.797368807475321	0.9993949839585925	-0.03261611050569564	-0.012077059819559297	0.03271211899410617	0.9994340712960592	0.007839285904953175	0.011814538049386501	-0.008229609229143857	0.9998963397385829
357														-0.1482978858501846	0.10860442794449442	9.804892811384633	0.9993951864906967	-0.03260372594558867	-0.012093728692648553	0.032699665947543206	0.9994346146883024	0.007821944116664868	0.011831866553740618	-0.008212674187503917	0.9998962740787392
358														-0.16660910221401576	0.09135079788342829	9.804561912845834	0.9993950763441782	-0.032606033227534345	-0.01209661011104077	0.03270215662877321	0.9994344275415151	0.007835432125332057	0.01183428624129027	-0.008226277525614317	0.9998961336195026
359														-0.12610967555567434	0.08311149598524384	9.797364475358663	0.9993949861068678	-0.03260793586282836	-0.012098936449882887	0.032704218027281566	0.9994342675990222	0.007847220656341553	0.011836210021652376	-0.00823815923437719	0.9998960130257304
360														-0.13176416954861656	0.12367739512058708	9.805223952164305	0.9993951473513326	-0.03260780004517895	-0.012085976453004025	0.03270357093029473	0.9994345567671282	0.007813014021604	0.01182437732043938	-0.008203542887571642	0.9998964376299558
361														-0.11761968567434532	0.07255478170777672	9.776756287725028	0.9993953294691479	-0.03260389163797072	-0.012081460396503615	0.03269996892599077	0.9994344469611912	0.007842082607082301	0.011818945278325802	-0.008232404110375548	0.9998962646470236
362														-0.10016581877505454	0.0888779639721762	9.77709026476831	0.9993957081225212	-0.03259352267975462	-0.012078115151325676	0.0326896250101494	0.9994347501480517	0.007846566968862987	0.011815540740066728	-0.008236654407303852	0.9998962698806283
363														-0.13628211191254247	0.05468747999139484	9.77641684654688	0.9993958072629006	-0.03258202097459662	-0.012100922879960486	0.032677602843014554	0.9994356108897845	0.007786780965051368	0.011840384190135583	-0.008177505400452194	0.9998964614937167
364														-0.1048557269547234	0.05557322030405291	9.789837308727622	0.9993957789147709	-0.03259509488743194	-0.012068010466406135	0.032690864221076366	0.9994348755069589	0.00782540841545291	0.011806120608274696	-0.00821519383026358	0.9998965577031025
365														-0.11429362179012457	0.06454541624392891	9.81044689427103	0.9993954165021363	-0.03260280261393189	-0.012077199022855024	0.03269858269208631	0.9994346661027792	0.007819902937641968	0.011815420620927879	-0.008210082444308587	0.9998964898337265
366														-0.11956117027467027	0.06986012068629699	9.776752364677955	0.9993953033793667	-0.032604894115769674	-0.012080913167637663	0.03270085933741353	0.999434489216389	0.00783297921428488	0.011818687823072705	-0.008223298880386932	0.999896342614406
367														-0.11995646279676343	0.0695284630596043	9.776749886145303	0.9993954854767502	-0.0326009815246631	-0.012076407260460085	0.032697252923458785	0.9994343790012936	0.007862043090641733	0.011813266269380514	-0.008252155714012978	0.9998961689426165
368														-0.11177208078862792	0.09531368102278194	9.797701187525108	0.9993945648466969	-0.03262230209839717	-0.012095005609020661	0.032719055093170774	0.9994334475374882	0.007889700700330444	0.011830772954096661	-0.00828066115305118	0.9998957262945856
369														-0.15796855468353296	0.10848147608766819	9.771189524732005	0.9993959228292366	-0.03258264053248635	-0.012089705051387591	0.0326791611464479	0.9994348774227346	0.007873894701359092	0.01182632060546554	-0.008264219680912326	0.9998959149901567
370														-0.14442805050674232	0.09252855205486578	9.784272963927737	0.9993948857945933	-0.03261139209788979	-0.012097906969773137	0.032707565587924085	0.9994342245679341	0.007838744517061449	0.011835429900229148	-0.008229694267092082	0.9998960919672337
371														-0.12209292524295844	0.10277106506812621	9.818317038886736	0.9993958277313625	-0.03259538500148617	-0.012063183234533325	0.03269147664255392	0.9994346148697542	0.007856077588432778	0.011800291016512577	-0.008245694437160174	0.9998963754585645
372														-0.16326655855121175	0.1100519119133721	9.825498803324942	0.9993950277848864	-0.03261934107408015	-0.012064701684623114	0.03271523644518818	0.9994339769156202	0.007838309190316419	0.011802192304040433	-0.008228266799295914	0.9998964965846706
373														-0.1314057697191894	0.07550555257574107	9.79735644400976	0.9993951068537537	-0.03261631510917408	-0.012066332726799365	0.032712065805467955	0.9994341855603226	0.007824927099574806	0.01180428513352254	-0.008214908524992126	0.9998965817175358
374														-0.11776494290986506	0.05977403896329568	9.810436068906652	0.9993953636074959	-0.03261515872598347	-0.012048179162042866	0.032710876553720944	0.9994341471717434	0.00783479560537265	0.01178582856353381	-0.008224164904088505	0.9998967233453173
375														-0.09582207888657901	0.07241974065865195	9.756489758941537	0.9993953185150525	-0.032621500648553396	-0.012034742441506707	0.03271699772749732	0.9994340203238581	0.007825412384610103	0.011772654326697454	-0.008214421143738838	0.9998969586389278
376														-0.10061661909614081	0.07526019562232629	9.810793751993959	0.9993954744463278	-0.03261062528107784	-0.01205125615761645	0.03270606110966021	0.9994345086310674	0.007808746638755731	0.01178979316572318	-0.008198175172209624	0.9998968900346452
377														-0.11904228494109902	0.0580272070848154	9.810431141589111	0.9993950666035928	-0.03261387301737827	-0.012076263296531546	0.03270969866466569	0.9994342673723556	0.00782437314741864	0.011814248248094177	-0.008214650856220524	0.9998964661651942
378														-0.12477763699613104	0.09871519893899938	9.818324904405353	0.9993963062701082	-0.032583151592389496	-0.012056585170411367	0.03267867854252773	0.999435372205781	0.007812858158580597	0.011795210145569914	-0.008202134856202208	0.9998967936749384
379														-0.11044415799842254	0.04767122241678474	9.789817525814302	0.999397246232691	-0.03256714551237455	-0.012021865732483508	0.03266259079078143	0.9994357625336543	0.007830180815721574	0.011760075907408053	-0.008218126425698013	0.9998970762096984
380														-0.11607319895685224	0.08858710951758257	9.79771430441203	0.9993971562538195	-0.032562572979933264	-0.01204171552170987	0.03265856634854481	0.9994356374001188	0.00786287089278819	0.011778884320552794	-0.008251395975559508	0.9998965808265463
381														-0.15751019199222419	0.09597340118044934	9.804880920062658	0.9993972350094391	-0.03255954560744602	-0.012043365199385047	0.03265539461327967	0.9994358463577131	0.007849472459599178	0.011780995634499705	-0.008238021915463915	0.9998966662294566
382														-0.1261347350268234	0.0970007369069791	9.818324650510883	0.9993965866269069	-0.0325810585355308	-0.012038989292758765	0.032677164978126304	0.9994349393235901	0.007874322081520587	0.011775632784660067	-0.008262970649561932	0.9998965235405936
383														-0.14908714911473236	0.08576062653614829	9.784264740401476	0.9993969374420303	-0.03257222012421317	-0.012033781935470817	0.03266832896970331	0.9994351975383637	0.007878210696567762	0.01177037441281733	-0.0082665831896905	0.9998965555939027
384														-0.14072270495536146	0.11130715778192764	9.805247698816382	0.9993971885788283	-0.03257166022845873	-0.012014425108865886	0.03266771183761056	0.9994351487084397	0.007886959454343777	0.01175074738174327	-0.00827468888245736	0.9998967193964933
385														-0.14486456515236126	0.07881168059357137	9.817955829003155	0.9993968711391394	-0.03258381605184136	-0.01200786778734813	0.03267950034774838	0.999434973592146	0.007860268308931991	0.011744965488249898	-0.008247938673793125	0.9998970083430161
386														-0.1220952686199414	0.053655221217560466	9.81041850546311	0.9993972072753333	-0.032575065739647	-0.01200363204705677	0.032670780032901414	0.9994352149567013	0.007865827133445264	0.011740622739242658	-0.00825325369228102	0.9998970154876875
387														-0.12244491009239034	0.05291336338055442	9.810418180175738	0.9993978952107807	-0.032556396913607275	-0.011997002469921495	0.03265151078971411	0.9994362090578035	0.00781939046947347	0.011735667488848798	-0.0082064026326139	0.9998974592749104
388														-0.11358565390012224	0.04290374658587337	9.789803635475154	0.9993977905443209	-0.03256360846735625	-0.011986144447444164	0.032658812349836204	0.9994358510404461	0.007834643001305897	0.011724258229349036	-0.00822137814751575	0.9998974700989735
389														-0.11397500589671687	0.04242164680373184	9.789801212794035	0.9993974289527623	-0.03257130158648939	-0.011995387262236241	0.03266651667290515	0.9994356427213005	0.007829096162427948	0.011733613725867906	-0.008216226093754221	0.9998974027057521
390														-0.1327856640929288	0.060567718220959924	9.831026839779561	0.999397396230494	-0.032570692644874985	-0.011999766178635575	0.03266608174540163	0.9994355647433476	0.00784085642949772	0.011737610962695011	-0.008228116842774165	0.9998972580130968
391														-0.13791692013928508	0.06605904959178409	9.79733519611491	0.9993980183709154	-0.032556039598047114	-0.011987708787657262	0.03265157710221387	0.9994358724525129	0.007862020594124226	0.011724989937115921	-0.008248705399918156	0.9998972364549267
392														-0.12963467656706235	0.09169819434918428	9.818330018937349	0.9993979281666238	-0.03255773756873766	-0.011990617192842565	0.03265343223094706	0.9994357225107299	0.007873368592573891	0.011727512089059226	-0.008260163065024227	0.9998971122902297
393														-0.14382051640235716	0.10634550242799609	9.805257819526041	0.9993981971532554	-0.03256273787446753	-0.011954565192489233	0.03265797963446795	0.9994356784520707	0.007860089264361977	0.01169187294736965	-0.008245770986862251	0.999897648445987
394														-0.1579657023392498	0.12092903539376834	9.792188021534793	0.999397703917751	-0.03257991673179886	-0.011948992831045554	0.0326750969305616	0.9994351299071984	0.007858698871937068	0.011686207447488203	-0.008244400107371926	0.9998977259811944
395														-0.14466737491276066	0.10511341258194933	9.80525865102624	0.9993977172468477	-0.03255947517687525	-0.01200347191426391	0.03265489728900311	0.9994359282719654	0.00784110720497594	0.01174139875971918	-0.008228356783812485	0.999897211567171
396														-0.13134028021576435	0.08940751641698173	9.818328476962025	0.9993982884310758	-0.0325460838288465	-0.01199222700094016	0.03264168400033692	0.9994361783278733	0.007864217379842121	0.011729516045367356	-0.008250931873489133	0.9998971650007616
397														-0.12248073703405891	0.07955624831789086	9.79771379203077	0.9993988069309429	-0.03253233124293298	-0.011986330919361438	0.032627632414217525	0.9994368045817473	0.00784291084160086	0.01172443209929824	-0.00822928133719375	0.999897403047244
398														-0.12667056632059498	0.04699392208949842	9.810394667727465	0.9993988184178879	-0.03253617134566082	-0.011974944638517308	0.03263127470594809	0.9994367554614827	0.007834011979159351	0.011713311060272727	-0.008220060023531412	0.9998976092366734
399														-0.10909160171539847	0.06301555632108367	9.810789462801031	0.9993992118298004	-0.03253179635559948	-0.011953979247609206	0.0326265248833337	0.9994370459919237	0.007816711135463996	0.011692958052249838	-0.008202031749260914	0.9998979955011277
400														-0.10026121411109364	0.053056816492606754	9.790173377696119	0.9993989105316695	-0.032536823220018135	-0.011965482140803533	0.03263159591403339	0.9994369140925072	0.007812406629860579	0.011704553652995013	-0.008198163452648335	0.9998978915568272
401														-0.1321486507380972	0.0510086348126379	9.77670685669062	0.9993997632483089	-0.03253467480246517	-0.011899922467099505	0.032628911609018575	0.9994370006124353	0.007812549777818398	0.011639044051639062	-0.008196141916650496	0.9998986728220252
402														-0.10999983414487487	0.061268542711783835	9.81079039136915	0.9993988796513419	-0.032535699276939244	-0.011971116247181246	0.0326305177602138	0.9994369495367433	0.007812375527964482	0.011710194803816196	-0.008198303071376494	0.999897824362273
403														-0.14226014525071948	0.05943960652253158	9.797315488969971	0.9993986854598083	-0.03255990126094026	-0.011921423198809782	0.03265479206500915	0.9994358348888612	0.007853438431425589	0.0116589903678798	-0.008238007640382383	0.9998980963946871
404														-0.13390748971106167	0.08505626619714717	9.818332461389243	0.9993984569260004	-0.03255747482691967	-0.011947180706090433	0.03265246767753668	0.9994359848151304	0.007844017540657597	0.011685060911133938	-0.008229403958076989	0.999897862915007
405														-0.1484188578164152	0.09967392815473124	9.805259383253258	0.9993989321278004	-0.032539246731739295	-0.011957085093937555	0.032634318449882356	0.9994365789209293	0.007843849446635525	0.011695115267680693	-0.008229346083426679	0.9998977458430015
406														-0.14416938096165743	0.09322089724894207	9.838944407416138	0.9993985476059436	-0.03254726831607109	-0.011967387697091065	0.032642368392052826	0.9994363540652216	0.007839002396652296	0.011705504213331514	-0.00822493148779278	0.99989766059989
407														-0.1454958497979268	0.13037267752319864	9.792594839661513	0.9993986259937797	-0.032544233579271296	-0.01196909447213567	0.03263919004094012	0.9994365633100244	0.007825547426154211	0.011707674201841857	-0.00821150289444168	0.9998977455645142
408														-0.13191094285138025	0.11452683224113382	9.80566745484711	0.9993986125179174	-0.03254922583775984	-0.011956638098755674	0.0326439637512256	0.9994364852987979	0.00781559237644413	0.011695508876093315	-0.00820120423770618	0.9998979724557807
409														-0.1129885149593878	0.05744974504301244	9.810779528415747	0.9993991305423761	-0.03253547282808031	-0.011950768970899592	0.03262991260460295	0.9994371107841032	0.007794253712831317	0.011690452282035213	-0.00817952293090856	0.999898209184347
410														-0.10026054048085815	0.07916969352011992	9.777508020136658	0.999399719341434	-0.03251984849072712	-0.011944054353676504	0.032613714874164056	0.9994379841056688	0.007749937348412195	0.011685314816903984	-0.008134825194049166	0.9998986338808012
411														-0.10441623259641558	0.04641040232253572	9.79016370794908	0.999399275668752	-0.03254138832895021	-0.01192249296071024	0.03263481498384279	0.9994374713290322	0.007727208706915486	0.011664332117359847	-0.008111655136551559	0.9998990671098766
412														-0.10465472667034459	0.045844118454989494	9.790163827865994	0.999398994096126	-0.032554446643183764	-0.011910440940937338	0.03264797271457447	0.9994369109569916	0.007744087704485211	0.011651629812170298	-0.008128285212912971	0.9998990801587017
413														-0.11416319798279594	0.05470575196847426	9.810781612733406	0.9993993439374003	-0.03254559393156295	-0.01190527837289616	0.03263912233055678	0.9994371703300189	0.007747919476615797	0.011646417087898122	-0.008131843479001921	0.9998991119561254
414														-0.13248441337600794	0.03746079377452109	9.81035891267447	0.9993990764987862	-0.03254422696377488	-0.011931436824762855	0.032637876382411495	0.999437271873515	0.007740065585753265	0.011672828218534926	-0.008124831158593013	0.9998988609854623
415														-0.14306233686248163	0.08403845614113746	9.784643759287404	0.9993989869285675	-0.03254608933317249	-0.011933859194330185	0.0326398952230018	0.9994371151964043	0.007751774488521014	0.011674851861347434	-0.00813663548443561	0.9998987413718496
416														-0.12570945803620037	0.10034289066369223	9.785063502032873	0.9993984560672515	-0.03255822666665675	-0.011945203502555008	0.032652360732089075	0.9994365515939894	0.007771915885905166	0.011685433197634524	-0.008157279830841805	0.9998984495621273
417														-0.14014057192456886	0.11511594025019378	9.77199554276428	0.9993989314226525	-0.03253998866032787	-0.011955124811035455	0.032634200699159246	0.9994371462422548	0.007771721550991768	0.011695504092970745	-0.008157196155842397	0.9998983324993035
418														-0.13987364335972732	0.07672615470603862	9.81831790928267	0.9993987053026007	-0.03253753025681352	-0.011980691310305143	0.03263183581878156	0.9994372996783248	0.007761913603919996	0.011721396272712624	-0.008148198358261666	0.999898102674934
419														-0.12262281614220139	0.09267667521578127	9.818744792848749	0.9993985116520849	-0.032540305404558885	-0.011989304891243788	0.032634320123377934	0.9994374571645612	0.007731129705336419	0.011730987071941425	-0.00811774233478007	0.9998982379230918
420														-0.15468154635746925	0.09052274043266402	9.805251340743277	0.9993991380361706	-0.03253078960420954	-0.011962885115476298	0.03262461423452876	0.9994377576718649	0.007733245494813074	0.011704590492948294	-0.008118883393762684	0.9998985379996468
421														-0.1048159015510354	0.07266346824916207	9.77751076438488	0.9993985477334454	-0.0325487629914549	-0.011963311247546283	0.032642075897064624	0.9994375275180211	0.007689178746427623	0.011706308957559787	-0.008075061386165256	0.9998988727437387
422														-0.11442943343603312	0.08113790140408754	9.798132747143645	0.9993985846935823	-0.0325468179272976	-0.011965515253104733	0.0326400098857158	0.9994376860308024	0.007677336520959034	0.011708914002815018	-0.00806327378941183	0.9998989373675081
423														-0.10092938673340342	0.06525675586998743	9.811196316164212	0.9993986629520877	-0.032543775222873016	-0.011967254648551494	0.03263682311960881	0.9994378936176764	0.007663848753865016	0.011711117207146769	-0.008049813370871808	0.9998990200207496
424														-0.1237877914632869	0.05382326077020672	9.777075543434742	0.9993990099271163	-0.03254028273133977	-0.0119477594746649	0.03263298962983753	0.9994381392776874	0.007648120355549046	0.011692174499163564	-0.008033415022175673	0.9998993735864438
425														-0.10167024475469447	0.06402967563043013	9.811196751533195	0.9993986060708258	-0.03254346084605762	-0.011972858466192015	0.03263655180640149	0.9994379038127403	0.00766367461364468	0.011716726073371497	-0.008049818541859455	0.9998989542706627
426														-0.11079274604572882	0.037600995731984346	9.790131419988233	0.9993980573388717	-0.03256225467559229	-0.011967562731445192	0.032655313515791706	0.9994372845731792	0.007664509389097731	0.011711254692583493	-0.008050700306935063	0.9998990112696848
427														-0.1296933480291258	0.05557667703117635	9.83137042989824	0.9993978208636487	-0.03256053315862453	-0.011991969538684867	0.032653675374423916	0.9994374119383294	0.007654874431114777	0.011735976207047064	-0.008041846705857164	0.9998987926605509
428														-0.11701888890265305	0.07765469604703562	9.798130387064356	0.9993980343611435	-0.032561345119477184	-0.01197195552503138	0.0326544141455737	0.9994373304163278	0.007662363022838513	0.011715722422983002	-0.008048687737433082	0.9998989751338949
429														-0.1266152502387855	0.08647749663707197	9.818750674924095	0.9993980698802755	-0.03255380734167377	-0.011989476516587732	0.032647107054949755	0.9994375103412088	0.007670027634190746	0.01173304395812407	-0.00805683253690845	0.9998987064342814
430														-0.12321780633484587	0.11794149276265142	9.806135166241749	0.9993980201718914	-0.032553918115943645	-0.01199331863181191	0.03264737602704593	0.9994374183098057	0.007680867189260739	0.011736529088806355	-0.008067793845335363	0.9998985771504111
431														-0.15928805040613175	0.0840388255441744	9.805235306812142	0.9993980982493326	-0.03255087483826207	-0.011995072441674932	0.032644188235002626	0.999437626134151	0.007667362115531059	0.011738747381852484	-0.00805431651952925	0.9998986597627323
432														-0.12870667413989167	0.12270140504919841	9.772456983923064	0.9993980438294897	-0.032557078541368696	-0.011982763731284105	0.03265018129104109	0.9994375034179077	0.007657834122092516	0.0117267067606715	-0.00804446384978412	0.9998988803623686
433														-0.12313036087562233	0.04299593380628398	9.810731478117049	0.9993970945199183	-0.03257187756904774	-0.012021657821304368	0.032665069368008184	0.9994371629329207	0.007638755905089666	0.011766082964554373	-0.008026838743944846	0.9998985594306303
434														-0.13739390322837117	0.05754888605267481	9.797669993242057	0.9993972587732229	-0.03258516210206912	-0.011971899070300877	0.03267785523242496	0.9994368100071621	0.007630241157152905	0.011716523971565512	-0.008016858080913732	0.9998992214481088
435														-0.10593253279705261	0.05837720333709747	9.811186918821301	0.9993970222466974	-0.03258343394107768	-0.011996322646610047	0.032676209401268363	0.9994369375267558	0.007620580444037089	0.01174126328801986	-0.00800797975440789	0.9998990023980693
436														-0.09719196788073772	0.048628518204045575	9.790562168142728	0.9993976689189285	-0.032567487961335594	-0.011985745170835598	0.032660433245609334	0.9994372871134257	0.007642331291234926	0.01173010910524894	-0.00802918770761733	0.9998989632383538
437														-0.10676101216436568	0.057429772847551824	9.811183529114848	0.9993985838542968	-0.032538526875140875	-0.011988113230265262	0.032631394646485984	0.9994382977610975	0.007634202762883174	0.011732973768453258	-0.00802080028396555	0.999898996943868
438														-0.1303119305083281	0.08128896031602127	9.818746636287111	0.9993986551239387	-0.03253537173616349	-0.011990734858746768	0.032628103468430834	0.9994385072621215	0.0076208310384230605	0.011736055577428163	-0.008007483228360484	0.9998990675122321
439														-0.12216802235621867	0.10675868828474323	9.839831535597062	0.999398962309037	-0.032522008473453004	-0.01200137910716431	0.0326151180071973	0.9994387405576488	0.007645779876409197	0.011745987101892433	-0.00803261087035594	0.9998987493489572
440														-0.1180514044999843	0.10299561856173817	9.785527256243867	0.9993989121197107	-0.03252812661851266	-0.01198897129153613	0.03262103847915132	0.9994386113414327	0.0076374084905108	0.011733810228608529	-0.008023910430656974	0.9998989621751393
441														-0.1316398764940571	0.07984977850555525	9.818740731551275	0.999398507618304	-0.03253128368540589	-0.012014098055479512	0.03262457989302768	0.9994383769906016	0.007652933110626651	0.011758390923527153	-0.008040284831516639	0.9998985418844842
442														-0.14612324505493568	0.09447372898181834	9.805679674471634	0.9993983781361384	-0.03253133192598085	-0.01202473375913283	0.03262435643379658	0.9994386162138242	0.0076225840681977105	0.011770010456111141	-0.008010297355142615	0.9998986458587416
443														-0.12865359649829708	0.11062944309156009	9.80615057390125	0.9993984361798028	-0.032536753806984224	-0.012005224407261499	0.0326300101390558	0.9994381793413581	0.007655593586204043	0.011749391460417214	-0.00804271885221103	0.9998986280987562
444														-0.11986929914564098	0.10094724562590837	9.785526503335475	0.9993982825813182	-0.03253174324939392	-0.012031560774401446	0.03262509066503084	0.9994384183107395	0.00764535569001084	0.011776087321819586	-0.008033286107426815	0.9998983898785446
445														-0.13338660091140758	0.07759365924506843	9.818735246501072	0.9993991149481073	-0.03251668340136588	-0.012003097163479902	0.032609504473342134	0.9994391200680007	0.007620071896267194	0.011748585401812497	-0.008006908159616834	0.9998989249733098
446														-0.11975866273446924	0.061659472159951954	9.831793637153792	0.9994000859462616	-0.032485555792434756	-0.01200653469827749	0.03257829764208009	0.9994402061882345	0.0076110956611369456	0.011752562841711226	-0.007997682118935931	0.9998989520683456
447														-0.12491403432144814	0.06703501943259298	9.798111326825504	0.999399724294283	-0.03249321391206002	-0.012015911541633822	0.03258596453083239	0.9994399993088097	0.0076054386594191095	0.011762057477609666	-0.007992423366661838	0.9998988824739338
448														-0.12925386295740607	0.0344280146377334	9.810686519820914	0.999399443694011	-0.03250361794009846	-0.012011110061299556	0.032596015390074555	0.9994398751843225	0.00757863260984646	0.011758049361631573	-0.007965595542651846	0.9998991436954328
449														-0.10270973980697137	0.041258408225279965	9.790539671769542	0.9993990388103245	-0.032506764954272814	-0.012036255946420146	0.03259954557022047	0.9994396423608141	0.00759413631058812	0.011782650534374373	-0.00798194900361651	0.999898723689799
450														-0.126267827472035	0.06546036918451281	9.798104618571914	0.9993990956463499	-0.03251163072819375	-0.012018381282515804	0.032604676949039436	0.9994392108106183	0.007628822667872859	0.011763616038749942	-0.008016093914285318	0.9998986746546126
451														-0.12662146142916042	0.06493827205995889	9.798103532712025	0.999398900808588	-0.03251440137924739	-0.012027084664863337	0.032607154041947285	0.9994393651447808	0.007597953953694842	0.011773298937482067	-0.00798555583205963	0.9998988050448816
452														-0.13238365658552056	0.10558076863175854	9.806156585567306	0.9993979091246882	-0.03254344090911824	-0.012030947219438762	0.03263657484830108	0.9994381789706176	0.0076276076241259295	0.011775959382293807	-0.008015664020598154	0.9998985328076725
453														-0.12355588033681007	0.09596672951726275	9.785530759115293	0.9993982590756926	-0.032534577974413066	-0.012025846851763894	0.03262771480541741	0.9994384396342652	0.007631356891275277	0.011770810636977774	-0.00801914069289878	0.9998985655552749
454														-0.1284926788885056	0.09877336981531651	9.839834375968174	0.9993981769408469	-0.03253631634850908	-0.012027969312446847	0.03262959862475896	0.9994382948344616	0.0076422583030720265	0.011772562206187337	-0.008030126826737293	0.9998984567656097
455														-0.12822472166943394	0.06306933314290698	9.798094888912702	0.9993981297512794	-0.032542670205368246	-0.012014693735163517	0.03263573402142804	0.9994381673461602	0.007632726683931945	0.011759554180654306	-0.008020241121913983	0.999898689176968
456														-0.15170671366996655	0.08706878203871958	9.805663425564926	0.9993989616604366	-0.03251559769959807	-0.012018791049011414	0.032608879200570026	0.9994389231013989	0.007648528433584509	0.011763351109464325	-0.008035850680208787	0.9998985191880831
457														-0.11099928114324828	0.07870828187249776	9.798587426046916	0.9993983920997516	-0.03254656966883728	-0.01198226486199593	0.032639338697942534	0.9994380723108391	0.007629756546258131	0.011727209292602058	-0.00801625962564207	0.9998991009816052
458														-0.111340104056707	0.07778909245300668	9.79859090449266	0.999398486916554	-0.03253495335763155	-0.012005880180984096	0.032627212780723704	0.9994389201654481	0.007570326590397414	0.011752843701197876	-0.007957491347192168	0.9998992694248734
459														-0.08018797014328019	0.0785115062956137	9.812141124638986	0.9993987943354381	-0.03252157001314033	-0.012016545458441854	0.03261420670996592	0.9994391557531859	0.007595226661542945	0.011762797352415859	-0.00798257046577171	0.9998989524783024
460														-0.11241692423469224	0.07664528962091227	9.798587618696025	0.9993984284502314	-0.03252930262770009	-0.01202604181615234	0.0326219461726145	0.9994389478678674	0.007589342045389409	0.011772418575610668	-0.007977089401929571	0.9998988829904526
461														-0.14452743573010138	0.07461221359738511	9.785033681514333	0.9993983811536413	-0.032535656910599474	-0.012012775569283513	0.03262808258715597	0.999438820011715	0.007579794210780258	0.011759420656135368	-0.00796718789710708	0.9998991148825194
