// Start Time: 1748431178.2324173
// Update Rate: 100Hz 
// Filter Profile: 46.1 human
// Option Flags: AHS Disabled ICC Disabled 
// Firmware Version: 4.0.2 
PacketCounter	SampleTimeFine	Year	Month	Day	Second	UTC_Nano	UTC_Year	UTC_Month	UTC_Day	UTC_Hour	UTC_Minute	UTC_Second	UTC_Valid	Acc_X	Acc_Y	Acc_Z	Mat[1][1]	Mat[2][1]	Mat[3][1]	Mat[1][2]	Mat[2][2]	Mat[3][2]	Mat[1][3]	Mat[2][3]	Mat[3][3]
0														9.683315857947413	-1.0722895467432643	0.729848757335696	-0.060035366342017005	-0.1189899747582685	0.991078776230834	0.1592181203068574	-0.9812994466473963	-0.10817109676556877	0.9854163307730048	0.15130360840555515	0.07785803188706686
1														9.635432906425347	-1.0357198071859859	0.7926038513107537	-0.05982013444162981	-0.11902240296373919	0.9910878967619996	0.15910941688674946	-0.981308984591718	-0.10824449278153252	0.9854469772511076	0.15121621722655929	0.07763962051907602
2														9.708420559401018	-1.024510842126849	0.8390099944761751	-0.05959964769425602	-0.11897569117093461	0.9911067888502828	0.15892529494806287	-0.9813386313380226	-0.10824620672008764	0.9854900469413134	0.15106050295830184	0.07739568350749998
3														9.71816185950547	-1.0152489677748395	0.8577001483959922	-0.05932649668934009	-0.11890321690028316	0.9911318740719289	0.1589181106238931	-0.9813430743278292	-0.10821647094845031	0.9855076868834164	0.15108870070117397	0.07711552122711274
4														9.756181016789453	-1.0266445870958156	0.9000133050930692	-0.05910322148785957	-0.118828099111051	0.9911542221427558	0.15886114076682575	-0.9813562713899825	-0.10818043518961187	0.985530287289041	0.15106207818378933	0.07687848444639717
5														9.715314834612139	-0.9898772731667502	0.9034489438926271	-0.05902811264881358	-0.11881822636248704	0.9911598816544139	0.1587073844292877	-0.9813796491796668	-0.10819404005585806	0.9855595608813977	0.15091790238426692	0.07678631841154793
6														9.712032085126925	-1.0110964443871673	0.912887565601417	-0.05901903652481727	-0.11882068917803529	0.9911601268972332	0.15841956974781984	-0.9814232587675631	-0.10822027107234929	0.9856064088918042	0.15063210472310953	0.07674617761223185
7														9.629938456557994	-1.028815538299186	0.8434289844820719	-0.05906186057557844	-0.11882709893328482	0.9911568075660127	0.15809023484776852	-0.9814735486614273	-0.10824578940412373	0.9856567223283814	0.15029901475739568	0.07675305786630143
8														9.671122792612682	-1.063434581627343	0.8391272120070844	-0.059196713022127034	-0.11883094156200633	0.9911483019684104	0.15739342943389825	-0.9815813667246511	-0.10828355770846598	0.9857601419911504	0.14959019963371006	0.0768095998891698
9														9.642941052267304	-1.0863839301505311	0.7769498788274389	-0.059333346838965906	-0.11884046228514013	0.991138990493635	0.15708285076467954	-0.9816296678862626	-0.10829669025943449	0.985801466801774	0.14926533304609166	0.07691117215405668
10														9.648994205045621	-1.1442380326402806	0.7698480226348076	-0.05953121270399159	-0.11886490126065424	0.991124195024159	0.15699071644155826	-0.9816442150074304	-0.10829843070706172	0.9858042146720406	0.14915016054547484	0.0770991565719153
11														9.630093322004459	-1.1144439981530152	0.7691704390209501	-0.059663497574938607	-0.11890928296293399	0.9911109168414839	0.15708816536546535	-0.9816268049109613	-0.10831493056088892	0.9857806933386543	0.1492293480034637	0.0772465295998701
12														9.65562166047599	-1.053491811696235	0.7934673900695909	-0.059864947635297594	-0.11895677605238272	0.9910930700372428	0.15714026036174558	-0.9816170605356515	-0.10832767439020671	0.9857601770299237	0.14925559251355072	0.07745735268754672
13														9.636666669193874	-1.0240721157504322	0.7927391437526768	-0.059965294647653045	-0.11904530784486868	0.9910763735040509	0.1572468800157593	-0.9815928942350054	-0.10839192180534168	0.9857370755749881	0.14934391406236264	0.07758101036596582
14														9.62712441692315	-0.9868729318701522	0.8123835284082955	-0.060012763791892576	-0.11915795052615699	0.9910599633768202	0.15709882072774364	-0.9816037739265585	-0.10850802522896676	0.9857577941401279	0.14918248502938858	0.07762832892987903
15														9.68106180458115	-0.9919618001483431	0.8192768912817431	-0.06001176220829052	-0.11922589479287433	0.9910518525321943	0.15710386357180178	-0.981595552820584	-0.10857507418217564	0.9857570514317757	0.149182293499231	0.07763812761035005
16														9.69398942575747	-1.006051901329312	0.7913528732946696	-0.06004608158761909	-0.11925447631975045	0.9910463349226792	0.15729517743129795	-0.981564019428214	-0.10858316131327805	0.985724451985863	0.14936681573104166	0.07769722720624955
17														9.703344410723734	-0.9969935925091926	0.8140011655703142	-0.06025543617823159	-0.11928257037657967	0.9910302471747914	0.15746056448540163	-0.9815393454396655	-0.10856649568726423	0.9856852707852088	0.1495064605902715	0.07792538225032875
18														9.656148764264135	-0.9461381005426893	0.7901079629316977	-0.060445812757429274	-0.11930464078978119	0.9910159970485415	0.15747190273673267	-0.9815383711476132	-0.10855885875120003	0.9856718031721139	0.14949524624853888	0.07811701338711002
19														9.672448442456304	-0.9374247280512126	0.7538061920396315	-0.060623869834417976	-0.11929082435041612	0.9910067838476675	0.15751315894823573	-0.9815365844965038	-0.10851515126048253	0.9856542756790776	0.14951800065789986	0.07829442071320841
20														9.71958601995136	-0.9854455091153493	0.7819401053199796	-0.060824834239263714	-0.11923881594944052	0.991000728713527	0.15753425812909388	-0.9815424134672275	-0.10843176693500056	0.9856385225098916	0.14952122035318505	0.07848635300873769
21														9.7010518778914	-1.0447788269911091	0.7023442836360477	-0.061065001146366926	-0.11923164620116417	0.9909868213952971	0.15740443893695621	-0.9815668648847914	-0.10839895000959968	0.9856444126752487	0.14936634260904322	0.0787069721032495
22														9.665791004693974	-1.0219351235761784	0.7403174518386758	-0.06127913491170178	-0.11923703265870873	0.9909729550634668	0.15719864815094436	-0.981600984103036	-0.1083886203780974	0.9856639653776481	0.14913764799908083	0.07889555947778815
23														9.634169909566777	-1.0218374440957638	0.728232313987903	-0.06139622497834135	-0.11921738987466485	0.9909680708831551	0.15716744404628757	-0.9816097901298122	-0.10835411599595084	0.9856616549761722	0.14909538514916904	0.0790042279682232
24														9.656579424271971	-1.0270087722487131	0.7216345395818378	-0.0613852408065369	-0.11912411480693336	0.9909799682549528	0.15761042323313318	-0.9815526907542612	-0.10822786037495954	0.985591602388837	0.14954517894112693	0.07902805043824773
25														9.669535915116267	-0.9949905867796547	0.7325042490108732	-0.0613038650726479	-0.11898913827696792	0.9910012215427682	0.15753482019691342	-0.98157754555761	-0.10811245294888067	0.9856087542999403	0.1494894880224104	0.07891942991505246
26														9.685581438725004	-1.0883623437609597	0.704971910286454	-0.0613437281554865	-0.1188589924613262	0.9910143727146764	0.1572373450036385	-0.9816374688195062	-0.10800137566642003	0.9856537750915338	0.14919926179680257	0.07890637443893012
27														9.660103895150442	-1.1014562069557186	0.7228434596368766	-0.06145828344553661	-0.11876034983368157	0.9910191010789393	0.15727411323230792	-0.981644535733208	-0.10788354263799893	0.9856407726463625	0.1492313129759144	0.07900811682710462
28														9.673236654191626	-1.1141253039288914	0.6954997551184485	-0.061532765840168535	-0.11869586649448781	0.9910222045974455	0.1573777281715591	-0.9816370870281682	-0.10780018574386088	0.9856195865564044	0.1493315795402124	0.07908293082838658
29														9.641711371378683	-1.11378318173747	0.6828985713826937	-0.06163251231856143	-0.11868504189480666	0.9910173027024958	0.1576025342206825	-0.9816058234674871	-0.10775643155716949	0.9855774320836088	0.1495455387671071	0.07920389638354092
30														9.702769582353728	-1.1184058117424256	0.6312209810940426	-0.06169995186788918	-0.11869226805115046	0.9910122408145997	0.15777680183540194	-0.9815796936169388	-0.10773943512692592	0.9855453296231952	0.1497112239738578	0.0792903063063633
31														9.71523509479722	-1.042389982464099	0.6826964053462744	-0.06166731636867778	-0.11874168495638292	0.9910083523087002	0.1581296187246926	-0.9815201211966511	-0.10776490786937633	0.9854908248045079	0.15006220023653838	0.0793042892049372
32														9.680019106374916	-1.020211010238889	0.7182944312749133	-0.06155695976957193	-0.11878236408314219	0.9910103383349478	0.1584117472550643	-0.9814708650732888	-0.10779916207414704	0.9854524133795226	0.15035189056047965	0.07923288439382109
33														9.717727637101834	-1.032058527754913	0.7625772687063762	-0.06147093296795608	-0.11880271150940495	0.9910132391335966	0.15857580206926786	-0.9814421782706841	-0.10781913424519851	0.985431397611289	0.15052297648302354	0.07916940161800962
34														9.708289525377019	-0.9943295461982646	0.7799158144848599	-0.061266023204138376	-0.1187777148618488	0.9910289243271097	0.15864136265077866	-0.9814314742874665	-0.10782012490363282	0.9854336063160495	0.15061246870736897	0.07897146201519695
35														9.70547483285208	-1.0601507420386456	0.7486431937217574	-0.061102170600884076	-0.11873204482045838	0.9910445127644943	0.1585831798751273	-0.9814426100194182	-0.10780435194817635	0.9854531444003588	0.15057591032773443	0.0787971790130878
36														9.715046080004985	-1.0508100365891329	0.7683782280750346	-0.06097421866901542	-0.11869633032374244	0.9910566713490105	0.15844348985146484	-0.9814657045615907	-0.107799495792465	0.9854835387673364	0.15045348762025407	0.0786507652951337
37														9.699299261054348	-1.1013332831638556	0.7658450386529577	-0.060823969039843995	-0.11857862295696757	0.9910799942324885	0.15841188736592798	-0.9814808329720576	-0.10770816333797846	0.9854979039710864	0.1504476144247739	0.07848182326175868
38														9.673994484365359	-1.1148494459789742	0.7813419843804009	-0.06061128343073435	-0.1184722204107532	0.9911057488037416	0.15841452162201927	-0.9814884624878037	-0.1076347404075185	0.9855105842456215	0.15048166331574428	0.07825699550571191
39														9.69664953273663	-1.1199710361086281	0.7719562538351817	-0.060391034040395086	-0.11840478675728452	0.9911272519109208	0.1583688564958455	-0.9814991055331649	-0.10760488432127804	0.9855314446022158	0.15046531929504323	0.07802537657525627
40														9.70988656385573	-1.1337582106658821	0.7415885840417362	-0.06019265895256426	-0.11842388569199402	0.9911370375007832	0.15815800190330687	-0.9815259153592981	-0.10767044121784242	0.9855774400026479	0.15027528331598916	0.07781033981499702
41														9.697365725789489	-1.1635538423191232	0.7289578612923815	-0.06004444394384062	-0.11850032545825127	0.9911368914624067	0.158154771572465	-0.9815156440510464	-0.10776877428977397	0.9855869991940517	0.1502821125395413	0.07767595297333812
42														9.65882432026469	-1.1642382904902322	0.7737520600948443	-0.059923751963046445	-0.11861925086563792	0.9911299699205679	0.1583258444265968	-0.9814746017286098	-0.10789130246814027	0.9855668779627672	0.15045623777611056	0.07759413365056744
43														9.678165190125823	-1.090426043145913	0.7643552670161351	-0.059781054202966866	-0.11879077872774939	0.9911180436495125	0.15852507078281244	-0.9814231050742082	-0.10806706602755654	0.9855435188218157	0.15065669489191258	0.0775018244466471
44														9.665249287868964	-1.0760956832988515	0.7916471512923265	-0.05955074044784381	-0.11894080628664344	0.9911139157089854	0.15867393269735036	-0.9813801213967966	-0.10823881193715328	0.9855335064798514	0.15081824136056243	0.07731471838166948
45														9.627409045622098	-1.0188416844665904	0.7848544963118814	-0.05930178666296615	-0.11906117556940174	0.9911143902550366	0.15899636408916237	-0.9813134013471689	-0.10837049664404617	0.985496552152775	0.151157020374453	0.07712393199591572
46														9.690613694853884	-0.9712565682902794	0.8499005584263977	-0.059025552082443145	-0.11913076186550023	0.9911225180464359	0.15944820250645472	-0.9812317337904501	-0.10844609407464754	0.9854401325899117	0.15163161339223485	0.07691293065047272
47														9.703740362065403	-0.9859722856829339	0.8193923776975344	-0.058755650633440515	-0.1191904164652141	0.9911313828859869	0.1595649740428201	-0.9812026794308235	-0.1085371868830477	0.9854373610622615	0.1517726803499902	0.07666981754265795
48														9.684164783090663	-0.969998359840412	0.9048345071033391	-0.05849364036656651	-0.1192185890305468	0.991143492167624	0.15927877004749783	-0.9812392170081323	-0.10862721766401118	0.9854992478174823	0.15151411496898148	0.07638524410082864
49														9.710273821330196	-0.9990153890108886	0.8457943503123558	-0.05826579266464882	-0.11923213994273289	0.991155282591904	0.15927570425009624	-0.981234362618553	-0.10867555222863264	0.9855132406217567	0.15153488846215893	0.07616318098638619
50														9.732977843084583	-1.0500828940480587	0.7974897112324327	-0.058148098067165865	-0.11926360341197377	0.991158408929856	0.15924741173718704	-0.9812332774437551	-0.10872680024719794	0.9855247640451146	0.15151715460032472	0.07604926900137315
51														9.716888534907381	-1.0567685642479714	0.8348751505404554	-0.05801587519213747	-0.11928881316982537	0.9911631234454928	0.1592763851907999	-0.9812238257416556	-0.10876965071867113	0.9855278744643617	0.15155851295603384	0.07592644996517006
52														9.669110930077743	-1.064925905630768	0.8587700476639465	-0.05791173673340483	-0.1193505566374693	0.991161780628595	0.15941910510643897	-0.9811933301066644	-0.10883564618844557	0.9855109231640119	0.15170726279423993	0.07584936875081066
53														9.698290853156752	-1.0723772699122347	0.7916447968954563	-0.057872029912474365	-0.11947002625545261	0.9911497066439211	0.15933491142835216	-0.9811924889533711	-0.10896644263996107	0.985526871350512	0.15161864149243065	0.0758193471223601
54														9.678958849775563	-1.1468786832273008	0.8002884611821741	-0.05781505488683841	-0.11961598382200259	0.9911354275994412	0.1591120693535608	-0.9812097230039083	-0.10913674389783623	0.9855662173666772	0.15139186205634914	0.07576104070465134
55														9.710996155255826	-1.2358867150460147	0.7350589279319106	-0.057773427347032946	-0.11982438829038183	0.9911126813150022	0.15938339198055484	-0.9811443351250464	-0.10932853247347472	0.9855248172691289	0.1516506169551137	0.07578208841001588
56														9.666230582422786	-1.2233004874191324	0.7507996906148752	-0.05778827406128001	-0.12011265596712381	0.9910769219679882	0.15983126614200108	-0.9810437360703868	-0.10957716130883388	0.9854514101387564	0.15207280425368874	0.0758905821690416
57														9.690613127420416	-1.3697060699922619	0.7982261779125744	-0.05782063725260217	-0.12043603398832743	0.9910357892754758	0.16119104450818617	-0.9807977258985918	-0.10978737651711329	0.9852280046152071	0.15339811794579777	0.07612355964236156
58														9.66805518220896	-1.2159945171207465	0.8370316481637712	-0.05799351018667409	-0.12084131724909139	0.9909763512928715	0.16300869274070565	-0.980471110140699	-0.11002076290606105	0.9849187371896193	0.15515726932686696	0.0765591464675236
59														9.71125371208219	-1.2429457337053142	0.917964632302181	-0.05821627144395236	-0.12124772217792572	0.9909136468965545	0.16506855523784075	-0.9801032306634618	-0.11022717139951368	0.9845624600861322	0.15715166912798093	0.07707214204518797
60														9.672483550233359	-0.9480437028094579	1.0238188448724943	-0.058569285707432917	-0.12177275828657182	0.9908284584684682	0.16721524153893452	-0.9797061105846401	-0.11052149058075772	0.98417920206068	0.1592084552478193	0.07774294828990114
61														9.72250480194809	-0.8297549161052931	1.073038875274601	-0.05886537180956275	-0.12249219981563908	0.9907222259473375	0.16865155835661755	-0.9793976774601432	-0.11107133405861988	0.9839164191462638	0.1605485919278106	0.0783111088185513
62														9.544473081800325	-0.8122451911480172	1.0062598659226842	-0.05911379310679088	-0.12307384905704812	0.9906353451915648	0.16913316949744014	-0.9792581910513176	-0.11156776521312987	0.983818850419262	0.16095410195824408	0.07870353627720594
63														9.702174006578339	-0.8541490257191612	1.0396481520291303	-0.05940535862714175	-0.12366668679362322	0.9905440696626621	0.1689851365229086	-0.9792208393673489	-0.11211855949413005	0.9838267261061343	0.16072678160839513	0.07906879708894426
64														9.68318836914818	-1.0111978712592742	0.8847805964034231	-0.05982338190570213	-0.12426274440897586	0.9904443110691853	0.16825193035850985	-0.9792803939027511	-0.11269959205031252	0.9839270556845151	0.15990209651415224	0.07949131161566714
65														9.70816410258359	-1.0457779746064118	0.8334833019565394	-0.06038094406945038	-0.12484787215012287	0.9903368873332289	0.16772272076124714	-0.9793097979965393	-0.11323165850777969	0.9839833487075514	0.15926496277450444	0.08007147493776468
66														9.716941865378592	-1.1317637718726337	0.7828908296263456	-0.06107563235797442	-0.12539248272323444	0.9902254755400799	0.1670408639341472	-0.9793703256195541	-0.11371506088457561	0.9840564602238062	0.15846289967166566	0.0807613305947863
67														9.621969592187089	-1.0358424352937972	0.7366992681189175	-0.06178910298175477	-0.1258569664854385	0.9901222807006179	0.16724582084206943	-0.9792971086959597	-0.11404388765118414	0.9839771044915487	0.15854714405127804	0.08155894156749932
68														9.602382850409468	-1.0086759674369141	0.7411016737981032	-0.06237944121676686	-0.12625988086258588	0.9900339629518018	0.16747237585354796	-0.9792250949723598	-0.11432942185780984	0.9839013205801952	0.15867153450111557	0.08222855647285443
69														9.576945682008123	-0.9215180680944478	0.7517813907780109	-0.06277953448676116	-0.12648547881593275	0.9899798754006721	0.16796927105234777	-0.9791262481522685	-0.11444699280193421	0.9837911638309063	0.15910126909602978	0.08271476373818781
70														9.573216228258403	-0.9429463941571002	0.7658385224172762	-0.06301179599332957	-0.12655356067026752	0.9899564181555534	0.16852093630050224	-0.9790333608333589	-0.11443064451335089	0.9836819646583432	0.15961790205680482	0.08301757493981127
71														9.584463395080332	-0.9235618230435929	0.8697720857297948	-0.06318084912244093	-0.12656728869157655	0.9899438881762089	0.16890139426429926	-0.9789731412808698	-0.11438491013346924	0.9836058658424843	0.15997596720735657	0.08322974586244802
72														9.62182386596697	-0.9338434761383702	0.9171710263210816	-0.06340978817494763	-0.12648423427425867	0.9899398654684349	0.1693068213964811	-0.9789210147920977	-0.11423155005089537	0.983521427825662	0.16036017360449759	0.08348781784971432
73														9.683842726060249	-0.9858051417473852	0.999246198610808	-0.06367920539854655	-0.12638316209996664	0.9899354802902173	0.1696866847199865	-0.9788757328108988	-0.114055814155464	0.9834385531534492	0.16071588612063029	0.08377956863048996
74														9.69612538010889	-0.9069353395764508	1.053003724800968	-0.0641820136132113	-0.12624178205920986	0.989921048160442	0.16991938232894302	-0.978863416620461	-0.11381482816868885	0.9833656861196164	0.1609019082069341	0.08427635076261486
75														9.699279345811531	-0.8810782134189417	1.049017033637521	-0.06492539509168938	-0.12607711251635728	0.9898935572937764	0.17029440794130635	-0.9788348785639214	-0.11349931775422234	0.9832520061998902	0.16120434921642707	0.08502146845121095
76														9.73962423201224	-0.86644692519209	1.0919274508974706	-0.0658324101577904	-0.12581233704208142	0.9898673394050472	0.17032180125216292	-0.9788777094243204	-0.11308808076192237	0.9831869495630197	0.1611511273314775	0.08587046272589172
77														9.721172710193153	-0.9229320481068191	1.0205044228059221	-0.06693127177108493	-0.12550189534281594	0.9898330561890047	0.17043995114431856	-0.9789142656864407	-0.11259255521347011	0.9830922784322065	0.1611711348254919	0.08691051366800018
78														9.717700238801488	-0.9841631668976674	1.0029299298114396	-0.06816538658146115	-0.12518005043204258	0.9897895913001059	0.1707275885906557	-0.9789265757270631	-0.11204842626876182	0.9829575629528567	0.1613465658423433	0.08810059661922048
79														9.707367561480027	-1.0889898101414988	1.006826324377904	-0.06947164190936012	-0.12486369250090819	0.9897387277789307	0.17089127915813196	-0.9789596488444181	-0.111508639316023	0.9828376578449338	0.16139102896212087	0.08934805030012022
80														9.673814927729863	-1.094446673659739	0.9247480680616152	-0.07072463361820469	-0.12462135797614385	0.9896805258949746	0.171109424212558	-0.9789742029573463	-0.11104537311241891	0.9827103292146768	0.16149002161189796	0.09056148063371727
81														9.667193696068608	-1.1781342216844573	0.9182045814970491	-0.07188111023746413	-0.12442473883667837	0.9896219431461966	0.17156964760414428	-0.978941814063266	-0.11061998327387271	0.9825461627893213	0.16183760083474577	0.09171493304819134
82														9.651211964910777	-1.1223938977684838	0.916294304605974	-0.07303978035757186	-0.1242617255302623	0.9895575850113826	0.17220338315722086	-0.9788767712869005	-0.11021007877749074	0.9823498283781217	0.16235544402075064	0.0928952339051895
83														9.543477337206808	-1.0047434688341494	0.8989803548978392	-0.07391830308321551	-0.12411324282644284	0.9895109839837061	0.1725897467049162	-0.978845528514954	-0.10988271310180352	0.9822163019425155	0.1626571063968151	0.0937752735905601
84														9.591060717720591	-1.0952872525504154	0.8958066010259623	-0.07467303667870628	-0.12396569501701069	0.9894728111737738	0.17241196274549367	-0.9789051676021361	-0.10963023280136322	0.9821904360639171	0.16241052706270023	0.09447099027632144
85														9.598405303065991	-1.1967044827687299	0.8554955037246079	-0.07522192300069863	-0.12385725562883028	0.9894448153020827	0.1720894765612882	-0.9789804738411485	-0.10946434987987226	0.9822051080894152	0.16203892145363052	0.09495532411194929
86														9.60243747514072	-1.3206386031287154	0.8241555837823736	-0.07572270867562769	-0.12378859221181475	0.9894152090144175	0.1717575214554627	-0.9790518902814904	-0.10934692478399675	0.9822247325405233	0.16165945866066053	0.09539808284887019
87														9.609182551432	-1.2752469571599692	0.8081923050576214	-0.07616659060123443	-0.12386983256541388	0.9893709693822641	0.1717654981028277	-0.9790496720228157	-0.10935425631179214	0.9821890165022575	0.16161065649341932	0.09584743903774684
88														9.629145310202533	-1.1903645518536783	0.883519812703971	-0.0765895105742897	-0.12405482065345662	0.9893151410660959	0.1718342236346747	-0.979025601993206	-0.10946172952090888	0.9821441067673617	0.1616145789044996	0.09629995549148457
89														9.65815236659378	-1.1533290022593254	0.8602745915671008	-0.07689514122821134	-0.12424056436491279	0.9892681231202088	0.17184946308032942	-0.9790080976944797	-0.10959428218496575	0.9821175587955321	0.16157792799427578	0.0966316402146869
90														9.687226069652517	-1.1165810385068387	0.8361453184690973	-0.07715517787146159	-0.12443730645136612	0.9892231473690616	0.17165022762036908	-0.9790237769451045	-0.10976631329336949	0.9821320063441059	0.16133133898679283	0.09689644562743222
91														9.772161116553779	-1.1205974157302754	0.8603918482502676	-0.07735952479292563	-0.12464912306002748	0.9891805194423209	0.17128982214107255	-0.9790631009948085	-0.10997836651501035	0.982178853750524	0.1609286810695854	0.0970909823542393
92														9.83344505093883	-1.231089861866907	0.8233119410520948	-0.07748950621348422	-0.12485029724783717	0.9891449740578562	0.17088333039559853	-0.9791095886876994	-0.11019664574165919	0.9822394126788534	0.16048930374617096	0.09720555315088825
93														9.873505358370329	-1.222100841379897	0.8599584190845277	-0.07756752804620604	-0.12509160468296993	0.9891083707211463	0.17076508757249237	-0.979103407828442	-0.11043460347685913	0.98225381824616	0.16033903834241886	0.09730790987513949
94														9.831080260473117	-1.0396356461139933	0.890568665148331	-0.0777156475096023	-0.12534612264313355	0.9890645214901279	0.1700397603437364	-0.9791957584304065	-0.11073457713896576	0.9823679341440292	0.15957448483461698	0.09741265705933017
95														9.792471503651077	-1.0862688457250202	0.8981611973035154	-0.07787327185193643	-0.12556125787137393	0.9890248349019516	0.1695444801803401	-0.97925482614508	-0.11097141394047148	0.9824410530772075	0.15904199443331798	0.09754599548530823
96														9.694551909717687	-1.11438455422325	0.8672889587052008	-0.07813868065872731	-0.12577566739657367	0.9889766569923981	0.168788368891074	-0.9793576418024039	-0.11121643750059741	0.9825501682418072	0.1582374511112336	0.09775518376953629
97														9.64693123189316	-1.1692907422136454	0.8547966680708274	-0.07850609161945177	-0.12595697709096146	0.988924483214338	0.16792337158740864	-0.9794827654423379	-0.11142375633655074	0.9826690871566865	0.15731608984314657	0.09804648399156246
98														9.67446165197269	-1.1900759193077661	0.8823493918358709	-0.0789207803763094	-0.12608698904369095	0.9888749069617908	0.1667368346417816	-0.9796647477814597	-0.11160559989502336	0.9828379003673156	0.15607387080541388	0.09833925184473119
99														9.62681329269215	-1.244107433806527	0.8712349611669695	-0.07952634579152434	-0.1262364147328469	0.9888073259844126	0.16585832256022837	-0.979797770072651	-0.11174679681390698	0.9829377280186955	0.15511511001852157	0.09885709626216937
100														9.625110150996768	-1.1985774288067768	0.915796062211125	-0.08023693746957328	-0.12632191578453034	0.9887389986533504	0.16495898475658394	-0.9799422053298882	-0.11181148224253484	0.9830313154796144	0.15412997049802352	0.09946549643317282
101														9.611666138155265	-1.2378159093242032	0.8306442482604884	-0.08099452541976265	-0.12639694285536246	0.9886676386373966	0.164204398926714	-0.9800651006907595	-0.11184504361449399	0.9830955203972521	0.1532847391126388	0.100134841738659
102														9.609926789129409	-1.1913739648875785	0.8765104130585872	-0.08176723851250989	-0.126455178265894	0.9885965843536887	0.16354687195719733	-0.9801743784828544	-0.1118508311939016	0.9831411594369625	0.15253614540656107	0.10082750103743543
103														9.564939377493854	-1.0734597574558693	0.8843950787253348	-0.08244624854597349	-0.12645470190955133	0.9885402492896594	0.16330786515166018	-0.9802233799887985	-0.1117705976674652	0.9831241820239712	0.1522213312525604	0.10146678782436913
104														9.58928560260221	-1.011021320484638	0.9122553780161615	-0.08295664158976734	-0.1264221496973099	0.9885017125337002	0.16307822248139506	-0.9802715063988867	-0.11168378169978976	0.983119366592102	0.15193819074995152	0.10193673147190785
105														9.629159553088977	-0.9993857006029524	0.9520848799521158	-0.08334605055346905	-0.12640198597501912	0.9884715341367752	0.16271390376534695	-0.980336801918463	-0.1116420186386914	0.9831467954372736	0.15153314075096433	0.10227456123381046
106														9.659972324920915	-1.0057712565959096	0.8894087694031338	-0.08367529196154783	-0.12637429920718002	0.9884472580846406	0.16238267013200225	-0.9803966430704295	-0.1115987934389723	0.983173592991569	0.15116864342887779	0.10255597148836199
107														9.66678801941679	-1.0538742541375536	0.9651863558207919	-0.08406599657133607	-0.1264070597647716	0.9884099167157792	0.16196659421204043	-0.9804635916500946	-0.11161526691250218	0.9832088946809932	0.15070633925028615	0.10289736988843456
108														9.666303424252167	-1.0623647817051964	0.8881862564427949	-0.08444670015101918	-0.126403266460165	0.9883779484902548	0.16143208967922132	-0.9805523669483136	-0.1116097490986336	0.9832641736865044	0.15013084260158077	0.10320995516100018
109														9.652275970176541	-1.0466164281866956	0.9199542082969104	-0.08489509214937174	-0.12650025684980226	0.9883271261813485	0.1612031835968415	-0.9805840545074049	-0.11166219433658593	0.983263116834549	0.14984190689774518	0.10363901779761697
110														9.648688654138272	-0.9652870032478479	0.9224401277050355	-0.08536822791523058	-0.12664957272483077	0.9882672469485325	0.16084911721710313	-0.9806291951574411	-0.11177630829182397	0.9832801366615176	0.14941976888446876	0.10408604860124182
111														9.59100205537493	-0.982100686984117	0.9285975338861115	-0.08571847919004183	-0.12678274391588054	0.9882198531554133	0.16050158929312527	-0.9806728789472123	-0.11189255708833927	0.9833064538381345	0.1490195971761653	0.10441061965971721
112														9.627092780249198	-1.003523834914723	0.8965847362350429	-0.08590274421956878	-0.12684196012832433	0.9881962536289799	0.16034751376933054	-0.9806926690621312	-0.111940000338516	0.983315510588306	0.1488388591685558	0.10458298445665581
113														9.587119448543577	-1.003758577370138	0.9425389462379589	-0.0859971261293867	-0.12692291832736402	0.9881776495654773	0.16012216432097542	-0.9807191935818784	-0.11203015591025497	0.9833439819262904	0.14859487253392958	0.10466220457248321
114														9.616407246789501	-1.068531552829881	0.92858740126197	-0.08603675271475247	-0.12690712899929446	0.9881762281048139	0.15997763078084082	-0.9807434917830837	-0.11202393036701291	0.9833640398306467	0.1484479165710345	0.10468228710564981
115														9.58885700146853	-1.0465453412874541	0.9041032313656199	-0.08598153676241138	-0.1268330247412467	0.9881905480072962	0.16018536140488937	-0.9807195612536581	-0.11193655419932072	0.9833350524249399	0.14866918311949787	0.1046405689157992
116														9.613604321333515	-0.9841314008479912	0.9260443314145634	-0.08581649824584103	-0.12679810576335543	0.9882093750838667	0.16045402842723056	-0.9806800275627308	-0.11189811571708816	0.983305666306411	0.14895947071061408	0.10450379273174093
117														9.626197065426235	-0.9519236020489343	0.9356922829611632	-0.0855246401718226	-0.1267141639858858	0.9882454434849863	0.16098436731839583	-0.9806040177718038	-0.11180247675651343	0.9832444097998092	0.14953020087979874	0.1042648052905244
118														9.621593548536245	-0.9266330153607846	0.9821152139975178	-0.08513242705986251	-0.12657925872518427	0.9882965957259395	0.1615122325182305	-0.9805320773135412	-0.11167203815714064	0.9831918778193174	0.15011507792282455	0.10391917421895774
119														9.620185553617546	-0.9921540140998836	0.9492569586049913	-0.08462191303376232	-0.12655411448825185	0.9883436588255123	0.16202094397599046	-0.9804482752203584	-0.11167091532961124	0.9831522494240834	0.15068256609017075	0.10347182577323155
120														9.672773662976928	-1.0537009596873474	1.0040507572845994	-0.08408556442911358	-0.12652390856048495	0.9883933014833797	0.1623219097301276	-0.9803962053428787	-0.1116909941349251	0.9831486232895825	0.151046287977764	0.10297477075447509
121														9.647266573197161	-1.0682034607640638	1.0167773169754886	-0.08360723599365455	-0.12658866084813625	0.9884255869989287	0.16313326624785152	-0.980255544256279	-0.11174348033837701	0.9830551192750123	0.15190253091868217	0.10260727833682098
122														9.64598274126987	-1.0314502724155126	0.9718250520150142	-0.08308968160279867	-0.12655451912492213	0.9884736003051396	0.16399832850287796	-0.9801162523986522	-0.11169906012265082	0.9829550615666046	0.15282697887834187	0.10219227694650496
123														9.634781568482664	-0.9470588311320276	1.025383115350431	-0.08271416713922675	-0.12644236669257042	0.9885194456659137	0.16490204606948589	-0.9799813482606599	-0.11155210559785998	0.9828355313868953	0.15378193966262912	0.10190894601083011
124														9.59383855170663	-0.9087171821499118	1.0257347168980135	-0.08234579206332493	-0.12620275191900146	0.9885808191228147	0.1653236705671294	-0.9799357758916754	-0.11132815941078068	0.9827956321024609	0.15426840420401028	0.10155788981991098
125														9.558347003554283	-0.8833016176772513	1.0565996960033839	-0.08189171608410639	-0.1258871994148843	0.9886587681603178	0.16569264614158885	-0.9799052342602759	-0.11104809266219745	0.9827714352032206	0.15471956855159247	0.10110470441977837
126														9.61645589032048	-0.9651496830237368	1.0618931871736055	-0.08131735744177665	-0.12549788131020073	0.9887556670711612	0.1658791267999239	-0.9799093628262054	-0.11073281328330276	0.982787669169074	0.15500942691394864	0.10050111888445873
127														9.633124425648509	-1.0116224370476754	1.0698776070492488	-0.08077965609333926	-0.12511236811192683	0.9888485943292169	0.1659700173353031	-0.9799286412071904	-0.11042559253881992	0.9828166667833638	0.1551990769536211	0.09992320053712733
128														9.684539430247126	-1.034364568303494	1.0825030528500805	-0.08028756317865265	-0.12476145181484716	0.9889330044749675	0.1660734946187319	-0.9799427548688178	-0.11014441231962209	0.9828395095761854	0.1553923335340726	0.0993967861395913
129														9.673234960690404	-1.060517717513881	1.0673136110308563	-0.07994718327635675	-0.12438831197216005	0.9890075812302418	0.16629230587740734	-0.9799436304691904	-0.10980596572517252	0.9828302584333429	0.15568567354634644	0.0990285522476676
130														9.61539836646001	-1.0278093908066241	1.1052416566786623	-0.07958852038391218	-0.12402853823963451	0.9890816898139605	0.16653884076114583	-0.9799381163792562	-0.1094810603940674	0.9828176239471054	0.15600708243286662	0.09864739373015108
131														9.642104820924864	-1.008353981799344	1.0849971114791528	-0.07927287961880669	-0.12372097910133534	0.9891455554604439	0.16675513370501255	-0.9799322078509225	-0.10920436529480373	0.9828064590446924	0.15628815485066197	0.09831315635971583
132														9.644942556036886	-1.039738292424453	1.123678415293428	-0.07904430185538491	-0.12337180914828452	0.9892074580449112	0.16666613777032677	-0.9799808466901901	-0.10890334540821522	0.9828399650324146	0.15625919757843965	0.0980238047987575
133														9.678496767556101	-1.0791863372884691	1.096824095297323	-0.078832233918671	-0.12305170658197713	0.989264250037701	0.1667979845886426	-0.9799913547661268	-0.10860652338058951	0.98283463066406	0.15644558827565125	0.09777968437526541
134														9.694971043608279	-1.1254253884908068	1.1088511496531788	-0.07873227580705988	-0.12274499709181166	0.9893103125082511	0.16684793047364851	-0.9800152831909037	-0.10831349319874428	0.9828341654841385	0.15653661041809042	0.09763858231208289
135														9.673015697050207	-1.114408256071839	1.1152346549327556	-0.07871962583775133	-0.12245167474219762	0.9893476678401764	0.16734292714079282	-0.9799681522607311	-0.10797576251474342	0.9827510189482972	0.15706052307158538	0.09763414796352893
136														9.666456725723284	-1.0508507979585313	1.1231432463198197	-0.07876001616577633	-0.1221414695986327	0.989382798141272	0.16791843800931483	-0.979910496436802	-0.10760491229257213	0.9826496110160927	0.1576606494254877	0.09768757133154105
137														9.628502281058775	-0.9891052802768243	1.1167480982493965	-0.07877943076971905	-0.12182007390291748	0.9894208765140783	0.1683750114657089	-0.9798723595014853	-0.10723812101540377	0.9825699246371841	0.1581455932970619	0.09770524304866579
138														9.67066280772139	-1.0193796906912684	1.1140454966973599	-0.07887502813076963	-0.12149404434622646	0.989453347624721	0.16849996743069484	-0.9798891820987943	-0.10688756607580988	0.9825408342217766	0.1582920970678985	0.09776052931844181
139														9.671116709985947	-1.0143462154410081	1.1146996107961258	-0.07893252307524246	-0.12110781807547408	0.9894961107563658	0.16880923386320287	-0.9798819419356191	-0.10646512307323104	0.982483129302226	0.1586325195837147	0.09778867197701158
140														9.702993671591056	-1.0068917763587206	1.1293451242569843	-0.07900484104078126	-0.12065298495294817	0.9895459020753229	0.1687816360417399	-0.9799364828051742	-0.10600589135750096	0.9824820580688457	0.15864219769458668	0.09778373424776304
141														9.716244013215169	-1.0737298316340051	1.1536234603314768	-0.07906830614688398	-0.12025848011486277	0.9895888544863092	0.16894550665166636	-0.9799532796042812	-0.10558875685898023	0.9824487868307814	0.15883786624503693	0.09780037577355916
142														9.781096195337907	-1.1098370209297885	1.1443735786997908	-0.07921177503217258	-0.11982820867229568	0.9896295746907736	0.16918302438400593	-0.9799631234087091	-0.10511603597609707	0.9823963553253511	0.1591020966720302	0.09789751722097251
143														9.762854069918111	-1.0654437830412906	1.222725408765326	-0.07938956951961634	-0.11946354908420241	0.9896594144915191	0.16978192653549884	-0.9799076440109777	-0.10466664526366096	0.9822786741416024	0.15971684209581946	0.09807719754129701
144														9.824339959665556	-1.2362867433791944	1.16012167735984	-0.07992966888240433	-0.11923581159185402	0.9896434051042734	0.17041255122439491	-0.9798382382934026	-0.10429088724943295	0.9821256591788762	0.1603117213809173	0.09863742479578924
145														9.694598390811171	-1.0447605682645922	1.1733175508818297	-0.08061579029935545	-0.11894756806218101	0.9896224383099361	0.1716494677183786	-0.9796776777740426	-0.1037694940878904	0.9818541411973614	0.16150270500320493	0.09939477697666071
146														9.767373848417655	-1.0713247460321034	1.1935768892462748	-0.0815232582324224	-0.11876745992568408	0.9895697291398774	0.17313310843518845	-0.9794670645132468	-0.10329180169486815	0.9815186626502518	0.1629065989964916	0.10041192594835163
147														9.635925583817189	-0.9364712488055621	1.2618705660592253	-0.08255923188656572	-0.11850145049318152	0.9895157297695231	0.1742865921538332	-0.9793206130318044	-0.10273909035227963	0.981227882311598	0.16397726403993484	0.1015051715543292
148														9.59378856777438	-1.008738894951934	1.2096789421703282	-0.0837296590087257	-0.11834163244057913	0.9894365074291437	0.1749534106040588	-0.9792458395592355	-0.1023175929346268	0.9810100143832837	0.16453827438388693	0.1026961924439393
149														9.594250776023014	-0.935078526105843	1.248555317848645	-0.08475120769315009	-0.11806952034487385	0.9893820400432202	0.1755073613818822	-0.9791985600044303	-0.10182016591039084	0.980823327055042	0.16501444921818675	0.10371033050712225
150														9.623571827678575	-1.0056178576877857	1.1643060137857002	-0.08567238737478267	-0.11777342771015394	0.9893379916726671	0.17568308039925967	-0.9792153076767574	-0.10135500220976158	0.9807118319378697	0.16512662092138464	0.10458251173189947
151														9.680181933390402	-0.982296175513374	1.1705319406291328	-0.08660425674991712	-0.1174566582761844	0.9892945143582806	0.17567824746434874	-0.9792645341175678	-0.1008866967808844	0.9806308459765324	0.16506030911789393	0.10544305701778478
152														9.67867024387605	-1.055640703879109	1.0711758953804227	-0.08757264677192778	-0.11718823175188797	0.9892410979514676	0.1754580232688721	-0.9793454660038869	-0.10048353242302849	0.9805842715483148	0.16477067869161577	0.1063254900556081
153														9.660067564808717	-1.136330906162444	1.009830823119867	-0.08847885153942148	-0.1170193495035077	0.9891804510159111	0.17543573608995397	-0.9793817776771616	-0.10016803909680633	0.9805069073356095	0.1646748474895277	0.10718395062442765
154														9.684555978002193	-1.184627374905148	0.9738241544239717	-0.08938152334784	-0.11691180983524405	0.9891120118596614	0.17556776307043334	-0.9793858095499042	-0.09989692999648495	0.9804013993535828	0.16472724356743837	0.10806494053211757
155														9.614364013120957	-1.1381159130214442	0.8795767079644945	-0.09016209843638062	-0.11689470078237776	0.9890431865871914	0.17586469078433567	-0.9793508538579352	-0.09971717797381957	0.9802766989686522	0.1649470641652369	0.10885797849671291
156														9.650429875282951	-1.146067600803874	0.9334414801593354	-0.09086287083928324	-0.11691098773907618	0.9889771279704689	0.17621250114670448	-0.979302526943296	-0.0995776840567081	0.9801495259104431	0.16522221905164114	0.10958341657926673
157														9.617644910073846	-1.0436402726724523	0.9115080156402188	-0.09143641134168062	-0.11698707422886401	0.9889152679296264	0.17680798947440274	-0.9792040666678803	-0.09949035470388276	0.9799889374574459	0.16575107928594365	0.11021915521618891
158														9.609617008078757	-0.982835624099972	0.9237484171408333	-0.09185522631523674	-0.11702766780439923	0.9888716511088991	0.17736857291237745	-0.9791121511319103	-0.0993971068435601	0.9798484611110045	0.1662646098064968	0.11069359865995004
159														9.666396933928914	-0.9632181756633452	0.9262610981054001	-0.0922520552687417	-0.11708197144838187	0.9888282814829142	0.1778810683390614	-0.9790263805600401	-0.09932608768124357	0.9797182675775967	0.16673079538366092	0.1111438619334626
160														9.773191724192033	-0.958483714753298	1.0279026450145328	-0.09269630945415874	-0.11717810361719685	0.9887753467023013	0.17838523921880747	-0.9789384073815557	-0.09928897714304269	0.9795846572106095	0.16717920500451094	0.11164682159216188
161														9.637107838630685	-1.008937275162872	0.8832019848976421	-0.09312043316930513	-0.11729153351641132	0.9887220444046596	0.17893739276828333	-0.9788399181470452	-0.09926642993064257	0.9794437168085006	0.16767561184398472	0.11213783838248043
162														9.730273629833697	-0.9213316900838301	1.0401545407196824	-0.09352678943501597	-0.11743152061022714	0.9886670711746944	0.1794737925265002	-0.9787408914363279	-0.09927449434057749	0.9793068454034891	0.16815500408133083	0.11261437363087651
163														9.66762394337136	-0.925470572554574	1.0152336597075526	-0.0938957860640322	-0.11758663108830758	0.9886136583866927	0.1797916647521977	-0.9786770544844688	-0.09932864798857406	0.9792132243005358	0.16841795395653925	0.11303474748962011
164														9.636114104215848	-0.927578949887919	1.0045900126339258	-0.09423047467791767	-0.11777298669384353	0.9885596295859885	0.18006951639621957	-0.9786162897616522	-0.09942397436217523	0.9791300153231984	0.16864068612986197	0.1134228022702819
165														9.611241967796893	-0.8859638134130307	0.971955655471076	-0.09442924813638481	-0.11785205117208455	0.9885312393298096	0.18022434491059394	-0.9785851043270926	-0.09945038507054874	0.9790823778405697	0.16876636994278663	0.11364686435793186
166														9.670807599033303	-0.913132137387109	0.9334962269578511	-0.09450615271792917	-0.11783326914715231	0.9885261290327895	0.18021556931953386	-0.9785898395706898	-0.0994196885121297	0.9790765729366079	0.16875202686518279	0.11371815051081724
167														9.64690776351962	-0.9616160604880325	0.9926300066234488	-0.09443766028263617	-0.11775829545105067	0.9885416087210517	0.1802352350075419	-0.9785928005169628	-0.0993548732480912	0.979079561824328	0.16878718739534462	0.11364020850496209
168														9.661462441610132	-0.975202506261666	0.9641081659106261	-0.09426814752097229	-0.11766032896462811	0.9885694529727792	0.1801300063897676	-0.9786178446665676	-0.09929901760936004	0.9791152624492107	0.16871028744002897	0.11344664715590452
169														9.630036718634432	-0.9645195428413029	1.0278097473450567	-0.09406240555793599	-0.11758062050117987	0.9885985340588019	0.1802830870319931	-0.9785958952387901	-0.09923750476511348	0.9791068748562997	0.16889307713565008	0.11324688121437243
170														9.63884586226005	-0.9539952940769656	1.046799112080558	-0.09379348260858111	-0.11751920508755637	0.9886313868453407	0.18014694919873947	-0.9786208808612504	-0.09923834055815343	0.9791577295382698	0.1687910186530614	0.11295898683823835
171														9.650315660398455	-0.9896970171512264	1.027081390912303	-0.09344032546839764	-0.11744381930485388	0.9886737858785618	0.18031426203501744	-0.9785934729514103	-0.09920474587268578	0.9791606979873767	0.1690022603517063	0.11261688822235805
172														9.612650124547672	-1.0227148239316166	1.110401422815075	-0.09307640842153353	-0.11734492882448919	0.988719854091402	0.18042355046562467	-0.9785782175865936	-0.09915651517889876	0.9791752267253935	0.16915921418657795	0.11225433454015643
173														9.667642234925367	-0.9567731345413537	1.1432411312155326	-0.09273041285799966	-0.11724142003797003	0.9887646433599176	0.18089188676620324	-0.9785015586822614	-0.09905970400999614	0.9791216450642627	0.1696736546546494	0.11194487519661955
174														9.707715824126307	-0.9430603738967215	1.1766564300723596	-0.09248205810481858	-0.11714880838117965	0.988798880270183	0.18113344582801044	-0.9784646249147344	-0.09898309245997874	0.9791004768312439	0.1699503883059381	0.11170998963160228
175														9.680193781827766	-0.9214370211405746	1.1499783227813607	-0.09235301517617533	-0.11703532823849876	0.9888243790137741	0.18153511119586335	-0.9784039231334788	-0.0988471881245151	0.9790382648247078	0.1703775077324604	0.1116045736871959
176														9.695345327156742	-0.8667295174156627	1.149096067532604	-0.09224447844042372	-0.11697478830362382	0.9888416734232921	0.18171125335059665	-0.9783774134242208	-0.0987859165422213	0.9790158204048642	0.17057120449435137	0.11150554961228021
177														9.694417631878256	-0.9215039261702881	1.2012975149943512	-0.0921694980768849	-0.11696560047108917	0.9888497519495532	0.18180311808768757	-0.978361015728241	-0.0987792951827395	0.9790058272951441	0.1706715301672836	0.11143975463230604
178														9.758399939110099	-1.0176353084839047	1.2444578978510112	-0.0919714718590956	-0.11691424680492607	0.9888742626128505	0.18172127206124378	-0.9783769633613424	-0.09877194360891342	0.9790396455938418	0.17061528787853622	0.1112285750048485
179														9.866395898300281	-1.0238211714596623	1.2594672414523742	-0.09175995401267889	-0.11687397707084729	0.9888986724246497	0.18217087150995792	-0.9782988361152061	-0.09871758115420082	0.9789759365852125	0.17109021228368643	0.1110596904724197
180														9.986118063769824	-0.9193769095038838	1.3927183659186293	-0.0915797548552818	-0.11688496558868364	0.9889140778247516	0.18272701119942916	-0.9781972301239122	-0.09869659748962892	0.9788891601600103	0.1716627035708059	0.11094110295103177
181														10.105169650523425	-0.8831007158359563	1.4990266567889532	-0.09142575120976981	-0.11694243808402335	0.9889215328784654	0.1833055243444758	-0.9780871641871827	-0.0987146594841518	0.9787953906514507	0.17224971822107465	0.11085854866556
182														10.18810566910482	-0.8487605608836097	1.4798377901238913	-0.09144480781976477	-0.11704581290785238	0.9889075410793197	0.183695898988954	-0.9780084011754797	-0.09876934709120078	0.9787204216820279	0.1726263158122831	0.11093462611660804
183														10.14144138970698	-0.8913738260231135	1.5474091662639748	-0.09167070837346258	-0.11718366382477274	0.9888702999680546	0.1838893424002802	-0.9779644747308535	-0.09884430138353278	0.9786629608695224	0.1727815820537849	0.1111995230434516
184														10.18618165831738	-0.9036998189567158	1.53911617606188	-0.0922100549715425	-0.11732349524401997	0.9888035716085739	0.18392060813114652	-0.9779544942899348	-0.09888486741047767	0.9786064150958826	0.17274317515272472	0.11175544627149375
185														10.080093696097187	-0.9420472382549399	1.4919951047242843	-0.09307767349733986	-0.11752579510086794	0.9886982523410427	0.18355337311548656	-0.9780142908405698	-0.09897578557174982	0.9785932280136881	0.17226646335699478	0.1126035509574348
186														10.006850066491271	-1.0922663173391998	1.3976562905610963	-0.09433187723021963	-0.11772764061912808	0.9885553598926445	0.18281113257302153	-0.978146451288051	-0.09904347348493696	0.9786120716328773	0.17137596817186967	0.113792314272812
187														9.806360493118973	-1.2068820666767868	1.284633467832541	-0.09584134147172474	-0.11803464921198378	0.9883735421642488	0.18202730321929442	-0.9782789747211118	-0.09917816544643819	0.9786115154378734	0.1704056020323685	0.11524509815334771
188														9.647156728361656	-1.3450973665060824	1.2510812367805701	-0.09748070915006929	-0.1184790296929594	0.988160022904496	0.1813008526620495	-0.9783890764161058	-0.09942241182778282	0.9785844430439374	0.16946248750875303	0.1168544100996291
189														9.460175779182153	-1.4648909485703345	1.1913525779304892	-0.09892027537441378	-0.11897737625487734	0.9879570653927	0.18077577677689158	-0.9784546574232958	-0.0997326521123971	0.9785371212430124	0.16873312450780467	0.11829723176504209
190														9.544060559331253	-1.4796659030145038	1.1486727574829352	-0.10030719294069174	-0.11949473445480038	0.9877547648490165	0.1806555451616583	-0.9784472209997795	-0.10002304594518616	0.9784181320103912	0.16841034456168516	0.11973268057598813
191														9.509339822764014	-1.4500464991610438	1.1054341162201087	-0.10166212306508016	-0.120139353595363	0.9875380238003946	0.18068388641994165	-0.9784005851627271	-0.1004272280878976	0.9782730426226034	0.1682225629067674	0.12117352601534948
192														9.63246051672009	-1.4545012262812402	1.099845325175774	-0.10304504219591554	-0.12087347506561763	0.9873050806637244	0.18080104083086135	-0.9783298398331713	-0.1009044504790457	0.9781066930112067	0.16810808284422998	0.12266608972783927
193														9.693492733556951	-1.465124587633523	1.0651806553012926	-0.10445456637574646	-0.12176826411189604	0.9870469762976989	0.18118920770971728	-0.9781962077172357	-0.10150197149387435	0.9778853279259178	0.16823991518897613	0.12424015600612548
194														9.78558005844999	-1.4069680476349202	1.0737579995936557	-0.10584574378155509	-0.12287812435296265	0.9867611894875209	0.18136003945809515	-0.9780769157060579	-0.10234296776370534	0.9777040526719153	0.1681264807174126	0.12581046009966712
195														9.745422237411603	-1.3921172257169483	1.1227689542707513	-0.10712918120204912	-0.12403236565892559	0.9864782363559925	0.18196854193088094	-0.9778749497388667	-0.10318930380983483	0.9774511692573333	0.1684534206902898	0.1273289314147123
196														9.769126469553115	-1.3167629883647383	1.148328152031214	-0.10827404995283862	-0.12529943254576575	0.9861930755742103	0.18234249039770117	-0.9776980219638143	-0.10420073917017182	0.9772553127521872	0.1685426653751359	0.1287067350447152
197														9.819111177764865	-1.22735285935523	1.1565914877330639	-0.10936402428743014	-0.1266474507999012	0.9859005697318289	0.18290780563222658	-0.9774772333197363	-0.10527579484571492	0.9770282722779632	0.16881552519682552	0.13006565119991492
198														9.785395369700876	-1.2398136965612314	1.1548806793411301	-0.11041559405211204	-0.12804471924195673	0.9856028340383195	0.1833516181616349	-0.9772699919910077	-0.10642155266394752	0.9768267915590915	0.16896127552828127	0.1313830531850549
199														9.717707567943194	-1.2090058493796494	1.1751841234990126	-0.1114342652506074	-0.12950698979843062	0.9852970841941056	0.1838487525451975	-0.9770442830840638	-0.10762948053541228	0.9766176532889583	0.1691520277327385	0.13268591032310417
200														9.729086907047494	-1.132912504918576	1.1463549987103603	-0.11253882799600756	-0.1309523035060456	0.9849804599075792	0.18403830785739456	-0.9768736765746338	-0.10884723816682432	0.9764552797923071	0.16902459650009236	0.13403645900914085
201														9.614688719005375	-1.122366428304865	1.1089639869496584	-0.11361281853507627	-0.1324023605723948	0.9846632634456175	0.18452795499087393	-0.9766483975437581	-0.11003336494943511	0.9762384756253987	0.16919669763345596	0.13539171399510036
202														9.592713210392615	-1.1045805587659114	1.118226405542826	-0.11482201161321604	-0.13389622659437503	0.9843209365612835	0.18482027348292132	-0.9764533899284036	-0.11126654396999772	0.9760416856665461	0.16914661628633618	0.136865079695627
203														9.49263142523152	-1.0753017108639695	1.012098408846432	-0.11602423950040613	-0.1354254798199505	0.9839706882137738	0.18519095763878413	-0.9762389589677385	-0.11252468263636761	0.9758292294542019	0.1691668833108932	0.13834695708144856
204														9.393369662934191	-1.0811467097442848	0.947620865640776	-0.11711437698857269	-0.13707449045484918	0.9836131387741435	0.18554067971144791	-0.9760102953510379	-0.1139234810782842	0.9756325532057614	0.16915817283041257	0.13973773180456267
205														9.276082438553278	-0.9912719249402567	0.9035645532360042	-0.11797726357722293	-0.13875789119796195	0.9832739256733732	0.18594723293025434	-0.9757609727871293	-0.11538696005657596	0.9754511734804635	0.16922402789146307	0.14091925539037287
206														9.258339152855957	-0.9198670547215682	0.8556850213183116	-0.11860240991885135	-0.14043936201463336	0.9829599452461757	0.185943539772849	-0.9755757290829843	-0.11694869319897218	0.9753760651042165	0.16890465482374117	0.1418194246240238
207														9.233396003833708	-0.8919035840971958	0.8262097171943807	-0.11889565336483532	-0.14205257831497053	0.9826926725100875	0.18632659277918223	-0.9753222664353127	-0.1184435621669068	0.9752672579525317	0.16901935270718052	0.14242975102202482
208														9.175235199883543	-0.8192664276291223	0.8156076806287068	-0.11885375706121803	-0.14355536737353145	0.9824793335896103	0.18685994999775987	-0.975046622298055	-0.11986427087330896	0.9751703151343714	0.16933972021769056	0.1427127031393024
209														9.172229578438397	-0.7168915896616094	0.8807378378358988	-0.11837967772849228	-0.144904956440014	0.9823384373524316	0.1873117201154471	-0.9747923923242494	-0.12121926981367293	0.9751413084308816	0.16965360434097848	0.1425380058995635
210														9.214321007630693	-0.695438085906825	0.9035926947283588	-0.11754670342280998	-0.14606391777918964	0.9822668193711032	0.18754842989810838	-0.9745894428161013	-0.12247858749248708	0.9751965745208416	0.16982564551443524	0.14195383463795935
211														9.23152651865607	-0.6538517016701766	1.0082480599310553	-0.11633238713194732	-0.1470285406627982	0.9822674706691404	0.18783624913098002	-0.9743919364644387	-0.12360379308696645	0.9752867881892932	0.1701263130254962	0.14097062956433065
212														9.301533285322842	-0.6154412471754345	1.0073788527994583	-0.11479243899598462	-0.14776261965132803	0.982338487581104	0.1880854804760968	-0.9742217295458662	-0.12456273003887519	0.9754212156721985	0.17046474683769325	0.1396252917709832
213														9.392321864959806	-0.5704462115359147	1.0771820601485484	-0.1129255732457991	-0.14827374135373655	0.9824778432779401	0.18819520690966107	-0.9740959902524094	-0.1253776928740009	0.9756179472536045	0.17073927315981724	0.1379047555290237
214														9.434672406335798	-0.5661512727089636	1.2082355217108616	-0.11083730560602345	-0.14862254284511758	0.9826629287015199	0.1881536425927732	-0.9740118483951186	-0.12609173630732318	0.9758654100156784	0.17091594116458464	0.13592072171216696
215														9.484040483260472	-0.5510834687127599	1.2464292968847404	-0.10861153108214261	-0.1487586980119824	0.9828908307038849	0.18814056978201252	-0.9739464842119261	-0.12661505397593384	0.9761181595063647	0.17116978605177016	0.13376936504633175
216														9.515777376967128	-0.5744608971841416	1.3634080319128612	-0.10635246882236343	-0.14868840845972225	0.9831484677123307	0.18800473845758925	-0.9739282667006544	-0.12695648718735564	0.9763930410919991	0.17133443469184628	0.13153380096364503
217														9.573385401343414	-0.6842998518810349	1.4789663905355317	-0.1041358129646125	-0.14849926838669592	0.9834143072717705	0.1877357827948381	-0.9739496372136631	-0.12719032993818538	0.9766836787397493	0.17137698637795898	0.1293016636528712
218														9.560906196307146	-0.7709527865116105	1.5007773574873913	-0.1020870636554278	-0.14809691502371147	0.9836897555604978	0.18743012332826176	-0.9740088128539877	-0.12718797644399335	0.9769586379695738	0.1713888451540088	0.1271915227262021
219														9.540666382516855	-0.8990347748976726	1.5457293785694806	-0.10029970327191134	-0.14761442490415977	0.9839461118800058	0.18722136893450453	-0.9740672617873376	-0.12704774113855194	0.9771837741887944	0.17147288728639448	0.12533523202918956
220														9.603753525018794	-0.9600605990552474	1.5322425276324887	-0.09876060201077269	-0.14699309351934853	0.9841947845564325	0.18683517791237758	-0.9741803102538138	-0.1267491199505313	0.9774144258117541	0.171364388282385	0.12367411468728612
221														9.68618455740105	-1.082677105771207	1.567630072027802	-0.09741694404274825	-0.1463398721566473	0.9844260159252946	0.18674478567829156	-0.9742498471527661	-0.12634722135757803	0.9775665317692402	0.17152806516715563	0.1222366509058187
222														9.776386269839088	-1.1391151319070827	1.461833010106433	-0.09645003992860507	-0.14569907956403821	0.984616254188383	0.18658095229852312	-0.9743389502865618	-0.1259013828115373	0.9776936831324762	0.17156744495583387	0.12115970367321055
223														9.761306313231414	-1.2881572798716414	1.4688197911901757	-0.09579228999087241	-0.14512386493154406	0.9847654040458749	0.1865736068850526	-0.974398916351867	-0.1254473635681868	0.977759748809597	0.1717143431389409	0.12041618648734731
224														9.707442557875133	-1.3456478733188062	1.4271028417092813	-0.0953662915852308	-0.1445935621058091	0.9848847507332185	0.1866006636280167	-0.9744520742073195	-0.1249933894517466	0.9777962276276505	0.17185999205925084	0.119911135289971
225														9.64588726166338	-1.4244314603465036	1.2857229237788672	-0.09499172100543196	-0.14408922612976496	0.9849948567651261	0.18655653102290407	-0.9745153833285993	-0.12456495650307471	0.9778411086025818	0.1719245839583104	0.11945167959319558
226														9.687625082312248	-1.4208259151167768	1.2373872617968604	-0.09460735575971124	-0.14369269791116332	0.985089770936216	0.18637449369078832	-0.9745889296465247	-0.12426168481049785	0.9779130821998739	0.17183953787604403	0.11898393540680141
227														9.687056196753883	-1.484721205989548	1.2056759944621402	-0.09412600551013794	-0.14328899609645296	0.9851946806009341	0.18628474642560416	-0.9746449031315008	-0.12395687172938896	0.9779766297493281	0.17185917606417916	0.11843198582599057
228														9.709328646000984	-1.5553387005703183	1.1662342098713856	-0.09342173388181269	-0.1427703673482545	0.9853369991255584	0.1861045053346097	-0.9747261791683488	-0.1235879797473553	0.9780784696192205	0.17182985145520246	0.11763081830968886
229														9.677370525570515	-1.6088195960332963	1.196393934200293	-0.09254882048221402	-0.14230557279690373	0.985486600506722	0.18629042184383374	-0.9747324735563034	-0.1232577937659774	0.97812606271206	0.17217935110156174	0.11672050590041039
230														9.742561161860317	-1.6349141110434335	1.2592601706427502	-0.09152943370159838	-0.1418563840573626	0.9856465538256777	0.18656186640920328	-0.974718295332091	-0.12295899620124248	0.9781702473333459	0.17262969341070097	0.11568040536213597
231														9.749249366971691	-1.6444836510406475	1.280995205663957	-0.09049993799314043	-0.1415611660878537	0.9857840521529474	0.18669587189474476	-0.9747087622105	-0.12283110472325894	0.9782404676973341	0.1729256057555452	0.11463996787062952
232														9.7593255466066	-1.6340633504039033	1.2922344729712885	-0.08947203932288106	-0.14142680163609264	0.9858971619587868	0.18706313289064166	-0.9746378145713464	-0.12283531544604069	0.9782648611150986	0.17343468565017633	0.11365857345964514
233														9.751840057039242	-1.6436491236290174	1.262207824902152	-0.08853441085112146	-0.1415611682771901	0.9859625214637939	0.1871771620965577	-0.9745800803896296	-0.12311936036717584	0.9783283539204637	0.1736493666666844	0.11278089098573219
234														9.705038668636716	-1.6882897408332154	1.3199626919425254	-0.08765840533145197	-0.14188120518598987	0.985994790853237	0.18712495311436375	-0.9745298535202234	-0.1235953741844736	0.9784172197466144	0.17367005560206378	0.11197524677571402
235														9.653784969116568	-1.6317142122957322	1.2515340362496623	-0.08686290541194347	-0.14239922266769445	0.9859905156983162	0.18741811144142673	-0.9743949106939396	-0.12421356414449128	0.978432055467892	0.17400292927817354	0.11132696634459333
236														9.537105916831862	-1.6245874043202555	1.2885274427537048	-0.08616845070277307	-0.1431514094213907	0.9859425298079769	0.18771771977895935	-0.9742308797059808	-0.1250449947350925	0.9784360253917843	0.1743039500641927	0.11082002169079169
237														9.498691105020434	-1.5746518327104015	1.2752458996219982	-0.0854300327993257	-0.14401107764732235	0.9858815948230109	0.18832667440674206	-0.9739960018791896	-0.12595575425621203	0.9783837555902097	0.17490739789446075	0.11032963771800253
238														9.440497100888823	-1.3355139979740152	1.3588953082799338	-0.08460736112560718	-0.1448988167934933	0.9858224623811367	0.18885755735039106	-0.9737682034765875	-0.12691851295072773	0.9783529104954949	0.1754417817677019	0.10975319464675826
239														9.41480627417861	-1.2560183055170004	1.354577048118065	-0.08374763364289328	-0.14579054562731553	0.9857643991669134	0.18910168392430937	-0.9735891900813505	-0.12792436082987085	0.9783797253603566	0.17569634533031703	0.10910502848798331
240														9.4980539819618	-1.2337288289171098	1.329172583071664	-0.08295986282654944	-0.14674612172765336	0.9856892192358058	0.18910769782068695	-0.9734451374901372	-0.1290071429098694	0.9784456754387334	0.17569900413690584	0.10850769631938406
241														9.481112977441308	-1.1460789828388565	1.346632972123799	-0.08234060056969561	-0.14768731036160834	0.9856005701378098	0.1890612251257404	-0.9733151833801983	-0.13005155499079998	0.9785069640282463	0.17563032813191728	0.10806530057562003
242														9.50909709095482	-1.0847659708933983	1.272886070759623	-0.08193239383163464	-0.14864557279287277	0.9854905258449203	0.18856920000806748	-0.9732666886937916	-0.1311244046214897	0.9786361630602745	0.1750898237137198	0.10777204638756366
243														9.477043503881816	-1.0957009576923882	1.2566305427736564	-0.08166039413266424	-0.14963970713602648	0.9853626429281473	0.18838473901816066	-0.9731603566871458	-0.13217454474144355	0.9786944212240912	0.1748338589083722	0.10765849545693074
244														9.462364076305162	-0.9521728755718492	1.225550030371795	-0.08153828747827913	-0.15063304091534313	0.9852213937281844	0.18824389473479525	-0.973048797947493	-0.13319261581639724	0.9787317016272565	0.1746016145330152	0.10769648291508654
245														9.461614151379544	-0.8244571727576053	1.1676410585704846	-0.081371678625631	-0.15159880601235234	0.9850870275936416	0.18800417773161796	-0.9729564258845342	-0.1342021701965018	0.9787916423187855	0.17428022075273428	0.10767230647326631
246														9.397252370678622	-0.8020620426545679	1.0956161855446573	-0.08115422779164094	-0.15245114825492845	0.9849734203049829	0.1875467298471002	-0.9729159396854195	-0.1351325217321731	0.9788974488858377	0.1737619685138012	0.10754795610799617
247														9.318523098340783	-0.7037146862640742	1.1673989996731318	-0.08081064447291603	-0.1531418552880531	0.9848945181585715	0.18702094405236472	-0.97290569287408	-0.13593262764681732	0.9790264583889621	0.1732110993329787	0.10726187040242569
248														9.313526032967737	-0.6967519437383837	1.1322961368274334	-0.08028728183945483	-0.15360013046166365	0.9848659565123528	0.18603632326512665	-0.9730032163206905	-0.13658414057124132	0.9792570851420095	0.17225487206970727	0.106694986983567
249														9.301261764134713	-0.7313942923801202	1.1163965503982343	-0.07957087333667984	-0.15384294768125364	0.9848861982813958	0.1850632500933345	-0.9731227268438766	-0.13705382871277078	0.9794999079026653	0.17136074798121248	0.10590290114057027
250														9.333194053979001	-0.7324357954161661	1.1236157913046143	-0.07874901831078246	-0.1538670734801907	0.9849484838374691	0.18417113982321667	-0.9732550880532997	-0.1373154209642181	0.9797344453326651	0.17058563033563182	0.10498075705428095
251														9.343892780010336	-0.7713224763812994	1.0983061955253863	-0.07784454039328215	-0.1537627621651267	0.9850366696231717	0.18309009542503063	-0.9734354161087435	-0.13748275390917533	0.9800093083681461	0.1696481760483984	0.10392907136715779
252														9.381301774332266	-0.7824434162583322	1.1356020126050632	-0.07703211146019318	-0.15351055059930988	0.9851398706065457	0.18212239820488754	-0.9736181273453869	-0.13747426732506351	0.9802537864635288	0.16882610271862397	0.10295756973023351
253														9.426337292177681	-0.7489994005648084	1.1525022564149396	-0.07637251851057753	-0.15317388879447513	0.9852436237844576	0.1811191833511125	-0.9738215978057934	-0.1373584255486293	0.9804912441417201	0.16795611164393512	0.10211593765359256
254														9.443752142514702	-0.6945901833685858	1.1456139064911808	-0.07589265741019063	-0.15277091294720604	0.9853432664348483	0.1798699342496279	-0.9740795696322719	-0.1371706921249663	0.9807584367744453	0.16682338020279097	0.10140438113543754
255														9.445559396032634	-0.7373431608533223	1.1021298322139788	-0.07550958426416032	-0.15222054029746557	0.9854578680977698	0.17863187414926657	-0.9743569126860583	-0.136818347595685	0.9810142487355494	0.1657030893267858	0.10076472579918527
256														9.47122593400186	-0.8202355753936843	1.0952958933027164	-0.0753654568693603	-0.1515308306609319	0.9855751900641982	0.177020453619564	-0.9747200370064801	-0.13632537716217724	0.9813173833735935	0.16419274288863706	0.10028427728966066
257														9.46046051131929	-0.8905860935900716	1.0434620007402238	-0.07527567269027141	-0.15078661775055918	0.9856961849415744	0.17574219487164544	-0.9750337632643589	-0.1357344519134307	0.9815539995551565	0.16301090884321084	0.09989589358620649
258														9.472186055616373	-0.9669133133422634	0.986103207086045	-0.07535945385943293	-0.14995257630608907	0.9858170101865633	0.17476181076120065	-0.9753125525222313	-0.13499531248171664	0.9817225994207703	0.16210999275719112	0.09970500506388408
259														9.459033044750768	-0.9540679186361098	0.9327242157901632	-0.07557229211335303	-0.1490336822488696	0.9859400540702647	0.17376998262204096	-0.9756060661764361	-0.13415214042002727	0.9818822851056379	0.1611886013187102	0.09962636699512972
260														9.495008470579164	-0.9210508621066952	0.9361900125861007	-0.07575559492595874	-0.14803081307500618	0.9860770599794758	0.17266132525285208	-0.9759275214701378	-0.13324240916120741	0.9820637232885364	0.16016351400211712	0.09949116635737443
261														9.533794499515825	-0.9679397215849638	0.9429012510003446	-0.07589994793557475	-0.14690644781595358	0.986234096699904	0.17153265293172842	-0.97626547925187	-0.1322205089965992	0.9822503483743746	0.15913582126980425	0.09929775177316291
262														9.586465222614223	-1.029128439113258	0.9216086045370335	-0.07609740064355613	-0.1456447958216152	0.9864059909922355	0.17027786356260194	-0.9766406621196573	-0.13106664821774197	0.98245337538015	0.15798927351107547	0.0991199004216235
263														9.734655929584324	-1.129109586900472	0.9053987785353667	-0.07636634687422522	-0.14420607477199227	0.9865965685445799	0.16900914688145796	-0.9770397885248091	-0.12972725199354937	0.9826515604910457	0.1568370480411139	0.09898510507274344
264														9.7655055891477	-1.18027103004773	0.891301150228245	-0.07672748782058814	-0.14268127083677518	0.9867902247008447	0.16775770477165375	-0.9774456533727442	-0.12828619252466328	0.9828378529047848	0.15569858591243252	0.09893283197392422
265														9.820416949362038	-1.283817133058334	0.8323632038813414	-0.07707024880129099	-0.14124902681506768	0.9869695482503517	0.16648505848987866	-0.9778386869811854	-0.12694182739559406	0.9830274167332916	0.15453224474751998	0.09887812338411262
266														9.917644339196375	-1.4119763567269856	0.8503154675645469	-0.07735162888433428	-0.13983921050746742	0.9871482769643012	0.1653403116205365	-0.9782040282084306	-0.1256163227849951	0.9831985083705956	0.15349877654707353	0.09878673360521378
267														9.964861514446328	-1.5136515930937304	0.8495785758527807	-0.0775504790821625	-0.13849762537017013	0.9873217970656535	0.16447940190203092	-0.9785118578792829	-0.12434255240899991	0.9833272342125371	0.15275127415658016	0.0986640699518524
268														9.903011316531046	-1.5607335426465714	0.8720094680712335	-0.07778153576589764	-0.13722918752027585	0.9874807252733715	0.1639935705787945	-0.9787506555878047	-0.12309859054944933	0.983390126807625	0.1523656925917642	0.09863343357257559
269														9.979771609116678	-1.513183900390926	0.9116640563901365	-0.07795655071860158	-0.13609126680683084	0.9876243938355163	0.16394770232277675	-0.9789023076839033	-0.12194844367277473	0.983383916435052	0.1524120700930268	0.09862369789669218
270														10.072148976283096	-1.5163112197319322	0.966067471870959	-0.07822339103858544	-0.1350005501989515	0.9877529815396187	0.1640900860437585	-0.9790193516347183	-0.12081205563555697	0.9833389775436432	0.15263014306065942	0.09873446547536557
271														10.143579041186852	-1.5585558511213717	0.9902655843269966	-0.07866176647566364	-0.13398017354065767	0.9878570947221789	0.16436953957248507	-0.9791084445759789	-0.11970508853318149	0.9832573320121533	0.15295740210275147	0.09904065925830546
272														10.081275671118377	-1.6075045350963213	1.018178322930238	-0.07933921108660802	-0.13302081616247752	0.9879325645263566	0.16463696588656868	-0.9791952487046395	-0.11862265541592204	0.983158155663584	0.15323879202645824	0.09958872210472636
273														10.030416209758334	-1.6375688072265955	0.9792091936065023	-0.08024285266047515	-0.1322635882694505	0.9879612481342572	0.1650383794908975	-0.9792400328811159	-0.11769150903106929	0.9830175064015536	0.15360762097331315	0.10040558195135962
274														9.975927445916811	-1.6910353165355807	0.9534077326240372	-0.08144074802244411	-0.13165730744422555	0.9879442079176747	0.16545527700633222	-0.9792690271922311	-0.1168619856614611	0.9828488977825142	0.15394325506016276	0.1015357983628386
275														9.855324935777356	-1.783195650079946	0.8316761169091308	-0.08292186607588203	-0.13129135681351084	0.9878696997846228	0.16584248942586616	-0.979278888023805	-0.11622877514579301	0.9826597747071593	0.15419286331386164	0.10297731825770096
276														9.713154921738505	-1.8029905505872155	0.7472746697800394	-0.084644095913673	-0.13109977468227918	0.9877490704147548	0.16621896506997086	-0.9792740169947777	-0.1157309608098864	0.9824493028538542	0.15438668568619276	0.10468103268886858
277														9.581758864967554	-1.8614972054699024	0.6467004498682449	-0.08633269495393264	-0.13107451248581792	0.9876062666663245	0.16688570214180953	-0.9792031207218685	-0.11537075361281109	0.98218930364906	0.1548570971740007	0.10641170636831115
278														9.55054782265603	-1.871096478825766	0.5685756443179935	-0.0878245904809507	-0.1311678544539947	0.9874623209342165	0.1675704049836511	-0.9791115867271011	-0.11515493958295475	0.9819404262380019	0.15535602561431106	0.10796992463115396
279														9.568367018020625	-1.794878564443311	0.5733743609308303	-0.08896811497790791	-0.13142636063929095	0.9873255725678279	0.16871761195476584	-0.9789205050911548	-0.1151043532120303	0.9816409944239081	0.1563385954944901	0.10926665376614852
280														9.554301029859989	-1.711727568545642	0.6408461892789646	-0.0897660399401593	-0.13183365767054986	0.98719904010218	0.16992203097795097	-0.9786953684909647	-0.11524703502764226	0.9813605664901099	0.15740159592436986	0.11025505039984063
281														9.643954256921637	-1.5688366611572209	0.6379451791787716	-0.09024208797358457	-0.13235439216688583	0.9870859539231132	0.1710513092656562	-0.9784617161707754	-0.11556002590275719	0.9811206934708252	0.15841396675254135	0.11093782033667354
282														9.619403326234316	-1.4630958846571525	0.6362255869505986	-0.09050753952766616	-0.13298739601593468	0.9869765639515202	0.17208087256669508	-0.9782257602851281	-0.11602816559468652	0.9809161832620221	0.15933836454377237	0.1114213938127821
283														9.647925269638014	-1.3519907556883162	0.7204741313912691	-0.09045137495554262	-0.13378774273102542	0.9868735423870618	0.173029917785857	-0.9779757155696988	-0.1167225227064353	0.9807544016315555	0.1602009352371942	0.1116085302719147
284														9.59590410417052	-1.3208838373367096	0.7823612389465708	-0.09008777992631617	-0.13460942680785234	0.9867950618656386	0.17378224851630733	-0.9777479708277159	-0.1175101512334188	0.9806548434635728	0.16090123603237488	0.11147587288148936
285														9.610752984267759	-1.1954667211420602	0.8879849270564777	-0.08944408978520835	-0.13537100485210735	0.986749434176593	0.17488029056033855	-0.9774635528819884	-0.11824502848260286	0.9805185560590004	0.16198670881479976	0.11110205844772691
286														9.64877798272983	-1.0758695366703146	0.9850670664604818	-0.0886747020015623	-0.1359896830196735	0.9867338057131433	0.17594439184558203	-0.9771975031737268	-0.11886383288924765	0.9803980661971049	0.16307006439945812	0.11057931946677085
287														9.682134078303863	-0.9424511553670265	1.0495110397288419	-0.0879405143545382	-0.13653961643398932	0.9867235677124158	0.17686899033291814	-0.9769620673460326	-0.11942562214859836	0.980297825251935	0.1640184505201313	0.11006417080640674
288														9.71968392849049	-0.8893007699922403	1.1182668989031408	-0.08726635254060378	-0.13707856716744748	0.9867086956835736	0.1775526102123648	-0.9767683379216275	-0.11999451921066143	0.9802344894570052	0.16472122042147855	0.10957766753231957
289														9.748804146592422	-0.8450126155413233	1.1662016482018558	-0.08665464021593478	-0.13758793047530257	0.9866917120948012	0.17801097414960668	-0.9766165651793466	-0.1205494823697012	0.9802056245560699	0.16519578083237518	0.10912051861967526
290														9.700726687050258	-0.8693516992200597	1.1050029283203477	-0.08610984765765772	-0.13800844071114138	0.9866806800727658	0.17803509218357494	-0.976549773988014	-0.12105389244111893	0.9802492540612119	0.1652398535960359	0.10866089773234744
291														9.686765081545937	-0.8577764255211936	1.1283993327860329	-0.08562391473200898	-0.13847107588104926	0.9866581507139699	0.1780698454660821	-0.976476955866281	-0.12158899949340614	0.9802855070649835	0.1652831383005132	0.10826730269052659
292														9.643732664257666	-0.8943956942499834	1.0994901737733442	-0.0851349521132384	-0.1388300732875635	0.9866500142804672	0.1779887549957103	-0.9764361275653216	-0.12203479782552036	0.9803428191320388	0.16522318098925576	0.10783903486232627
293														9.614735560317648	-0.9458100243533812	1.0433500158330804	-0.08469845553289351	-0.13914521749270403	0.986643187823871	0.17809746361328815	-0.9763696443515104	-0.12240756121832501	0.980360885125909	0.16535091786202027	0.1074784112151434
294														9.545368205801205	-0.8934348720008044	1.0165709189753547	-0.08419255662950903	-0.13939340193434224	0.9866514546208092	0.17830532578450925	-0.9762931235708237	-0.12271490400601424	0.9803666784448908	0.1655935275471121	0.10705120003735075
295														9.528336940445584	-0.9008244791071137	1.049960432914267	-0.08358121553626446	-0.13949819752551676	0.986688620232651	0.1783349947773836	-0.9762622095414394	-0.12291756529893405	0.9804135913211482	0.16568751041765056	0.1064745924827602
296														9.558513288383645	-0.9552086106078995	1.1118140408591402	-0.0829448094947392	-0.1394878366572482	0.9867437874152348	0.1782012243240724	-0.9762727019178026	-0.12302818839402105	0.9804919592874196	0.16563440136274213	0.10583365654612437
297														9.575084626960617	-1.0169101740276782	1.0409034338390648	-0.08238302873297465	-0.1394470697863746	0.9867966109106655	0.17809615594867073	-0.9762836991968016	-0.12309304577804348	0.9805584101995598	0.16560390517920376	0.10526419512972418
298														9.574245707999225	-1.084387222309628	1.0083471985997638	-0.0818287061767034	-0.1393867773989486	0.9868512497493138	0.17778564755341925	-0.9763319511699811	-0.12315918418302853	0.9806611679726378	0.16537003178010728	0.10467294884347239
299														9.58722443941939	-1.1675407848870785	0.9491534226951661	-0.08142621405169004	-0.13939318532932016	0.986883636275804	0.1777479050714625	-0.9763290426964271	-0.12323669352179148	0.9807015111173807	0.1653818015116035	0.10427562428900572
300														9.598173712125357	-1.2045684574015398	0.928586396486259	-0.08099600662433898	-0.13939433840939996	0.9869188747462053	0.17774658663248616	-0.9763200577779079	-0.12330975517388446	0.9807373745562115	0.16543386352240255	0.10385489371541895
301														9.601865184355628	-1.1946667293227233	0.8342321575644125	-0.08059287480025362	-0.13947986709621968	0.9869397931010033	0.17782903853326704	-0.9762869477537229	-0.12345294123694636	0.9807556380596363	0.16555712706054068	0.1034853424099062
302														9.577635549891243	-1.154136294323001	0.7944795293317319	-0.0800853253828755	-0.13959898875018958	0.9869642663228714	0.1777896820015292	-0.9762679525925027	-0.12365966890881824	0.9808043482938452	0.16556873823511453	0.10300399646187541
303														9.590035120009954	-1.1244586002100991	0.7992335016520309	-0.07937384418101207	-0.13967676793577757	0.9870107361923393	0.17755100247892489	-0.976283415650851	-0.12388032064794123	0.98090541561287	0.165411888400208	0.10229111788039041
304														9.583892170182231	-1.1689621902616256	0.8119525566463799	-0.07830271264965799	-0.139682786736037	0.9870954382841409	0.1772064832290477	-0.976318041618671	-0.12410053952935352	0.9810537943932017	0.1652023023433336	0.10120104647266975
305														9.70494397062839	-1.2502650534378097	0.841732495111357	-0.07705483365973231	-0.13955302975780112	0.9872119855912858	0.17678828189301352	-0.9763783173307488	-0.12422272268668072	0.9812280346560565	0.16495554956349262	0.09990600919473647
306														9.73285928879047	-1.3253189960408056	0.9066211994079297	-0.07569978937818433	-0.13926938945942915	0.9873568650937189	0.17663327038140994	-0.9764114014221617	-0.12418318310938074	0.9813614164427223	0.16499943130934755	0.09851374515835665
307														9.783230291326536	-1.3033692243882355	0.9495000571001779	-0.07435892715184156	-0.13891770279960355	0.98750828948506	0.17663723171710746	-0.9764265875571498	-0.124058081086309	0.9814632129245318	0.16520590473824281	0.09714407195230512
308														9.79904511881769	-1.3049829338883672	0.9895704650681553	-0.07318439965497059	-0.13858274764111622	0.9876430861922642	0.17683416935816365	-0.9764106041059819	-0.12390322327041974	0.9815160315524906	0.1655812617587808	0.09596418894473224
309														9.804408370091975	-1.2695606081410287	1.0476779371452811	-0.07206897297431969	-0.13832009149478788	0.9877619224404738	0.17676679636424777	-0.9764313080953748	-0.12383618321910674	0.981610698208586	0.16567876405873244	0.09482080100074841
310														9.751847020545362	-1.2640576567565736	1.0290004413493201	-0.07097811301455498	-0.1381531991953845	0.9878642624495398	0.17638326049390912	-0.9764938502974843	-0.12388989365050082	0.9817591623664282	0.16544924866337415	0.09367760258617924
311														9.749473959154477	-1.4001028087505816	0.9636593219918804	-0.06993816374056577	-0.13811506893135242	0.9879437640810768	0.17589268677444017	-0.976559244254497	-0.12407177439028919	0.9819217972893092	0.1650947309733836	0.09259219088540677
312														9.713410693266145	-1.4353044076313912	1.0401448167765097	-0.06883386830441568	-0.13815032770274088	0.9880163893022602	0.17559742886589752	-0.9765811008155421	-0.12431772402030984	0.9820526674012633	0.1649358677957259	0.09148069722370072
313														9.640360681767897	-1.4604594452268451	1.0708482111736268	-0.06767778632589055	-0.1382431311168983	0.9880832727746293	0.17553085093704185	-0.9765561316785094	-0.12460755214040263	0.9821449168057351	0.16500593437843755	0.09035709165612654
314														9.688033496474887	-1.4078772936409654	1.0742159168722716	-0.0665511058743612	-0.13840908547027597	0.9881365671637612	0.17582469366148828	-0.9764618155157879	-0.12493198124762211	0.9821693476207372	0.16542444770617865	0.08932034871944017
315														9.623208643893438	-1.3224349762037169	1.1122814238372365	-0.06549017046226208	-0.1386450128872994	0.9881743762991957	0.176044561921528	-0.976372223178855	-0.12532196145383817	0.9822012776364533	0.16575536855939416	0.08835048388695027
316														9.636052299050688	-1.294738632279396	1.1135161945942966	-0.06444515353231622	-0.1389241108440861	0.98820388261349	0.17649613125464395	-0.976237995796996	-0.12573182260035864	0.9821893594609645	0.16631135556072124	0.08743337562519066
317														9.612948866031287	-1.245015456769001	1.1495940339231585	-0.06343245889286808	-0.13922459903610124	0.9882271167004283	0.17676863928166525	-0.9761316229583683	-0.1261740972908896	0.9822062773803238	0.16668402948062902	0.0865289719734823
318														9.6182236693218	-1.2148012323090942	1.210337552276938	-0.062390055152730606	-0.13952208926350013	0.9882515204266509	0.17710096791907182	-0.9760144487692995	-0.12661375500192842	0.9822131785820059	0.16712086165738962	0.08560309234323554
319														9.66853124723057	-1.1980081521784622	1.2572314316976516	-0.061372681595997125	-0.1398208601477798	0.9882729992371801	0.17731687493940404	-0.9759170952021765	-0.1270612023942398	0.9822383212924652	0.1674393930939826	0.08468724712067738
320														9.671817772762518	-1.2356436087610776	1.2915360196281138	-0.06053451425136702	-0.14016401916255486	0.9882760850676039	0.1773289435600837	-0.9758524257360757	-0.1275401464672263	0.982288154443601	0.16752937329679188	0.08392789001618273
321														9.701024256750536	-1.2021441894436904	1.2575681773234568	-0.05995726953377645	-0.14056393372453901	0.9882544744983134	0.1775997997157847	-0.975741742007233	-0.1280092342200499	0.9822746240084629	0.16783871258018468	0.0834669370976251
322														9.672717848690386	-1.1859562256236629	1.2297515578116034	-0.059604868902006725	-0.14098291033655128	0.9882161092575906	0.1778936701093289	-0.9756292962924615	-0.12845745735810493	0.9822428934526365	0.1681407006316794	0.08323222364493282
323														9.659658602185894	-1.1176734713910663	1.2036579385791157	-0.05948496453234392	-0.14151175638120783	0.9881477429010765	0.17818384660021852	-0.9755080234631608	-0.12897524169292207	0.9821975645486687	0.1683998781617836	0.08324316926787961
324														9.631758843962507	-1.1481723001378228	1.1421825662619873	-0.05951504580965927	-0.14202343785656243	0.9880725188070347	0.17854878592589454	-0.9753791583393556	-0.12944430664034617	0.9821294672122733	0.1687152648002368	0.08340784769266452
325														9.610191752095782	-1.1350804925420626	1.0608514642567475	-0.059736924323660956	-0.1425555541234025	0.9879824967381344	0.1787303457242919	-0.9752831216742157	-0.1299164966225272	0.9820829717440495	0.1688216412844209	0.08373941750699021
326														9.609360905725232	-1.1385672527980133	1.0646347662487345	-0.06003147088102556	-0.14308849505396087	0.987887597395095	0.17902395008311944	-0.9751690870009149	-0.13036746931055707	0.9820115313989431	0.16902938898604256	0.08415710224638073
327														9.632557258844189	-1.1389025294174484	0.9712040489981139	-0.060349287674727636	-0.1436200927737509	0.9877910874414751	0.17924557495505247	-0.9750678808083335	-0.13081915637619	0.9819516216882508	0.16916233850241189	0.08458791814561811
328														9.63595204535917	-1.1666091339427798	0.9272770094920296	-0.060714621982936534	-0.14413738187493122	0.9876933480710042	0.1794907028588231	-0.9749653620713876	-0.13124644889768977	0.9818843222420426	0.1693131947228227	0.0850659733855832
329														9.582039875927046	-1.1084399362176527	0.8720510843846149	-0.0610790291306727	-0.14460274674699197	0.9876028543061628	0.17988731165939953	-0.9748433499896607	-0.1316092629144705	0.9817891358659498	0.16961865644486596	0.08555468474274236
330														9.601288956960275	-1.0833491619929607	0.827419755787455	-0.061391078714570335	-0.14503426175152564	0.9875202268168747	0.18016242575489047	-0.9747454066451744	-0.13195791969505852	0.9817192245241891	0.16981300051033746	0.08597039640074439
331														9.587339624251365	-1.0702315906424602	0.8586932663096034	-0.06158790302623646	-0.14547589055640278	0.9874430087188085	0.18036444569156215	-0.9746559042856344	-0.1323424911792448	0.9816698003561112	0.16994891440657833	0.08626569167878434
332														9.558656556082417	-1.0530745925051903	0.8367081987890157	-0.06173270418027027	-0.1458300490191765	0.9873817245815599	0.18070898344645903	-0.9745520498228792	-0.1326369687823546	0.9815973393078947	0.17024070896553645	0.08651453331419451
333														9.603119592410694	-1.0685793871331601	0.8250169387414765	-0.061799765703773046	-0.14612260388564838	0.9873342765206916	0.1808529978973081	-0.9744892895820996	-0.132901533630473	0.9815665958611854	0.1703490801955014	0.08664992075029038
334														9.612880753489783	-1.107123490971901	0.8095609785112422	-0.06188053613364991	-0.14630380461054557	0.9873023832667944	0.18097752175210494	-0.974445155473568	-0.13305553575316303	0.9815385554670175	0.1704459906556155	0.08677688863486294
335														9.634201825414863	-1.0679065432493433	0.8419073884400143	-0.06196107788398597	-0.1464465190947844	0.9872761730501126	0.181217071441932	-0.9743861758203884	-0.13316138099362396	0.9814892754612577	0.17066047408565438	0.08691262704230818
336														9.653165453024396	-1.0961420567569355	0.8474978991005958	-0.06210340152167376	-0.14653944602930724	0.987253441765012	0.18134671810943082	-0.9743544289832983	-0.1332171706334058	0.9814563338989549	0.1707619321688972	0.08708517193855986
337														9.688823130813862	-1.118311996235458	0.8150616437151669	-0.062280521492679486	-0.14664472118361355	0.9872266519860476	0.18146164358658828	-0.9743243795521391	-0.13328043861420064	0.9814238679334503	0.1708429956402075	0.08729182259081403
338														9.63904027354858	-1.1379915501698836	0.7620768158104942	-0.06255767409458235	-0.14677917008443095	0.987189147347762	0.18155058666285065	-0.9742972540217933	-0.13335758429113612	0.9813897910077577	0.17088222855205984	0.08759761452705672
339														9.635446598971923	-1.1592700696382963	0.7764880815416216	-0.06292624041820072	-0.14691229224032878	0.9871459196367693	0.18170816464145054	-0.9742604944597915	-0.13341151313735394	0.9813370629755438	0.1709773883402571	0.08800171309059046
340														9.590389435610613	-1.1447153071363494	0.7937990357311675	-0.06321884339065031	-0.1469663073802372	0.9871191834501881	0.1818794346035173	-0.9742302350269874	-0.13339910204932412	0.9812865275283532	0.17110334203129626	0.0883198575466918
341														9.549821464438459	-1.1543381661718402	0.7618438651793745	-0.0634459179107747	-0.1469484875868596	0.9871072674721799	0.18205490436212915	-0.974207384525519	-0.1333266054980907	0.9812393323232387	0.17124869030705628	0.0885621746004619
342														9.54420712561767	-1.1396894376041848	0.7324182458843399	-0.06361873474219126	-0.1469071796629149	0.9871022931557253	0.18206278303769946	-0.9742156599827938	-0.13325535965527913	0.9812266810591582	0.17123705325594185	0.0887246976317837
343														9.588247734362659	-1.2070072184358116	0.7733122126136913	-0.06368036939979915	-0.14677948532729565	0.9871173148315043	0.18215427246182256	-0.9742183697395527	-0.13311043943249698	0.981205702988425	0.17133111436356954	0.08877509602319911
344														9.6043087423516	-1.2542217740660055	0.7889090947106422	-0.06377883339403945	-0.14656833913736028	0.9871423313653466	0.18228444647444536	-0.9742263945143863	-0.13287329605682685	0.9811751326773427	0.17146618965270044	0.08885215147414127
345														9.620379374413998	-1.198620429082151	0.788709918066122	-0.06378734966250144	-0.14635794736286678	0.9871729966255977	0.18248391037701533	-0.9742200096083952	-0.13264612822141533	0.9811375013098559	0.17168204368059883	0.08885088295062549
346														9.629741050717323	-1.1865045634455191	0.8100111653819643	-0.06386005886551943	-0.14616594172713038	0.9871967434917492	0.18268880977118157	-0.9742116201311577	-0.13242551863524996	0.9810946395053244	0.17189309666315003	0.08891609333226208
347														9.631119708076234	-1.2301268754749863	0.7733399301808981	-0.06397351842336996	-0.14601802418758883	0.98721128718876	0.18275656286347433	-0.9742222415060611	-0.13225378212072303	0.9810746290017209	0.1719586018995835	0.08901017673208411
348														9.638209436066814	-1.286319350138026	0.768531233944833	-0.06409541124358403	-0.1458066928676156	0.9872346157689793	0.18301579029541193	-0.9742079151896862	-0.1320006003179933	0.981018347820295	0.1722188906501654	0.08912718408636461
349														9.600383997499456	-1.3288532206609116	0.7778871470822923	-0.06429478048434267	-0.14569010475421915	0.9872388639934994	0.18338519790339405	-0.9741632557173854	-0.131817375182626	0.9809363131174232	0.17256982524998063	0.08935102137518047
350														9.600583295985693	-1.3257783159452041	0.7806695887127855	-0.06454276647097018	-0.14554430272390487	0.987244188253791	0.18402559184803832	-0.9740756662360481	-0.13157194986690257	0.9808000881123806	0.1731861784075503	0.08965341469980453
351														9.540034450591325	-1.2587833476078332	0.7821509437958178	-0.0647339997691429	-0.14540245526347675	0.9872525691418801	0.18473085448704887	-0.9739742693950986	-0.131334054824978	0.9806548937696558	0.17387423201739294	0.08990956993551041
352														9.55586160789386	-1.203335693324533	0.7832837741589415	-0.0648037335548598	-0.14526052451970858	0.9872688874534684	0.1853659319116722	-0.9738819671971783	-0.13112354958080943	0.9805304418547481	0.1745087218004098	0.09003754001370279
353														9.563063810045694	-1.2597944634231144	0.7778112550913687	-0.06468806689144807	-0.14513640762383354	0.9872947266059395	0.1857341225783037	-0.9738301031663563	-0.13098765543772573	0.9804684032195612	0.17490098155543077	0.08995197017871065
354														9.582586401353526	-1.2858722894056396	0.7814568957631663	-0.06460659616210385	-0.1449974796898416	0.9873204741196959	0.1860650829020935	-0.973787495622644	-0.1308346219225489	0.9804110223049229	0.17525308628544378	0.0898920635564836
355														9.61684386007613	-1.3151047167400756	0.8374072408547693	-0.06445441663542978	-0.1448218896587605	0.9873561912764064	0.18648406255142871	-0.9737321462626997	-0.13064992058532088	0.9803414316402732	0.17570522931973775	0.08976831177646766
356														9.608315367681055	-1.3213410107720003	0.8159561976691828	-0.0643427589060625	-0.14462975285373186	0.9873916365687042	0.1871944396491314	-0.9736273001831284	-0.13041519122617404	0.9802133702112023	0.17644295091496368	0.08971975218209033
357														9.604261824737641	-1.293306507926097	0.8637328877045872	-0.06419177842437346	-0.14445031081950058	0.9874277306653207	0.18782281300650036	-0.973534059993225	-0.13020762246286727	0.9801030591203359	0.17710319516388473	0.08962394638544774
358														9.626814584448205	-1.1945697831337	0.8397554110273067	-0.06400533641503003	-0.1442161002959799	0.9874740671662313	0.18824746700014747	-0.9734836327667398	-0.129971181049108	0.9800337790496955	0.17757064270506961	0.08945646299111809
359														9.625845865689431	-1.3027941930025053	0.9445921080096653	-0.06368172773622693	-0.14401056614685667	0.9875249841855094	0.1884375507823208	-0.9734684842468007	-0.1298090891786715	0.9800183299345422	0.17782032228150374	0.0891291533450913
360														9.708605129928904	-1.3835837654887087	0.8559927075641101	-0.06322754090086186	-0.14387128866605614	0.9875744682651525	0.1885651006756961	-0.9734527949492906	-0.1297415076703659	0.9800232042552844	0.17801884255039796	0.0886781304393715
361														9.656568249669215	-1.364900926797648	0.9245491011659305	-0.062755928320338	-0.1437762710352334	0.9876183864974649	0.18885122676272423	-0.9734019853277648	-0.12970654998950693	0.9799984222491723	0.1783730889096487	0.08823907038247764
362														9.748944025468353	-1.3223479270952012	0.920467143955912	-0.06239480394365671	-0.14371666222737395	0.9876499427626447	0.1891466928069891	-0.9733473411027929	-0.12968609088218327	0.9799644978472491	0.17871898210975326	0.08791534787875521
363														9.637095143600078	-1.287034325507911	0.9514838616144152	-0.06205166043421084	-0.14365563691644442	0.9876804389171068	0.18958276505012964	-0.9732674877764298	-0.1296486499478688	0.9799020188943919	0.17920227459351168	0.08762749652481738
364														9.664614550049551	-1.2576229527214617	1.0114269628078358	-0.06180848097868685	-0.14354222254987511	0.9877121756992521	0.1897495574077335	-0.9732460105464561	-0.1295658458814565	0.9798851040518358	0.17940968006451105	0.08739193072860474
365														9.623991520450787	-1.3225544551263109	1.0285261281693334	-0.06160375931194512	-0.1434057587836162	0.9877447874761632	0.18995426362803589	-0.9732214792380616	-0.1294501065245196	0.9798583339280053	0.17965172055222323	0.0871946370739583
366														9.669386019826698	-1.3336821378260955	1.0136523939537183	-0.061484904915518446	-0.1432301230624558	0.9877776765624152	0.19018816957693668	-0.9731987079566267	-0.12927774357764327	0.9798204257008035	0.17991499848280096	0.08707770495614647
367														9.702502524153266	-1.3754477297435543	0.9898103456345012	-0.061434268392271896	-0.14309930751257638	0.9877997868275368	0.1904487201300855	-0.97316672156943	-0.1291348792178919	0.9797729919057365	0.18019189831740012	0.08703886553059542
368														9.68676827501804	-1.3229674182149762	0.9747680366993042	-0.0614663801693362	-0.1429540039748964	0.9878188279519803	0.1906440266064239	-0.9731505365466784	-0.1289685556180308	0.9797329938448373	0.18039452864889574	0.08706936777865665
369														9.652357912116779	-1.3447266242977305	0.972343677788651	-0.061500928449385706	-0.14288716062014895	0.9878263486715543	0.19077150466476883	-0.9731366105318331	-0.12888510484363638	0.9797060114176107	0.18052256527239693	0.08710760368457837
370														9.637660053132143	-1.3402740211295134	0.9202947569236105	-0.061490840651698964	-0.1429140922641972	0.9878230806922095	0.19078223132535443	-0.9731308771619169	-0.12891251345232788	0.9797045558363326	0.18053215266643832	0.08710410511081257
371														9.657038619470105	-1.3678560973250269	0.9246158953736423	-0.06145170729684102	-0.14295405600717717	0.9878197333225329	0.19082143445224117	-0.9731174947434527	-0.1289555023169441	0.9796993762496189	0.18057264271013815	0.0870784294804654
372														9.625643958823414	-1.3698169232916737	0.9105333232484424	-0.061378618064312995	-0.14300792156781206	0.9878164807358555	0.19095729684388535	-0.9730836502855509	-0.12900976834730404	0.9796774857199652	0.18071232364120415	0.08703493584535604
373														9.628912532003326	-1.3478347446645895	0.8992166505731581	-0.061267330328982905	-0.1430725413813778	0.987814032162448	0.19118615822078952	-0.9730302809189271	-0.1290733331080043	0.9796398150030119	0.18094839130953486	0.08696845717475343
374														9.653426373043521	-1.2858101813166474	0.9179215003076574	-0.06110976425919701	-0.14311692519130204	0.9878173628945648	0.19139680558327626	-0.9729817408076843	-0.12912704932494018	0.9796085236076209	0.1811741642139829	0.08685080711577664
375														9.64772558050118	-1.2733304216483976	0.8849212473746508	-0.06089513480443226	-0.1431967017596699	0.9878190558813404	0.19150115832747802	-0.9729468089546282	-0.12923549552750957	0.9796014949541394	0.1812986804975671	0.08667006134448546
376														9.676210076191692	-1.2923983882302499	0.9080087894550839	-0.06064380157608673	-0.14326734641734581	0.9878242742415941	0.1913841642303342	-0.9729531220140724	-0.12936121538129536	0.9796399496816453	0.1812089672549393	0.086422677429837
377														9.637333796898856	-1.2912692413251396	0.9511590154586977	-0.06039792839697766	-0.14335004021065645	0.9878273412985475	0.19135441937493347	-0.9729418306057144	-0.12949007855153855	0.9796609497326286	0.18120419484439293	0.08619433473123184
378														9.64779849692403	-1.3289369747411799	0.9324344387086464	-0.060078233343025866	-0.14341165574980616	0.9878378930135654	0.19156302883150814	-0.972887378824254	-0.12959071768213803	0.9796398378298423	0.1814476374042162	0.08592172610666271
379														9.694851604657565	-1.2744288708357008	0.9426473275041969	-0.05977958658669141	-0.1435551069261716	0.9878351746637394	0.19170014905258323	-0.9728358729110219	-0.12977448605434075	0.9796312846580301	0.18161028509659452	0.08567526169433054
380														9.65477204306351	-1.2269209041148728	1.0228533904672623	-0.05948034402227392	-0.14367659981747233	0.9878355750527932	0.19185295056447338	-0.9727842644921837	-0.12993544595724316	0.9796195863878481	0.18179056472020722	0.08542632231350294
381														9.65809229390985	-1.2056651252226638	1.01000131291217	-0.05927354590299633	-0.14377805786824713	0.9878332434331819	0.19201853515888193	-0.9727351162881419	-0.13005873940390095	0.9795996778845543	0.1819732497251439	0.0852655116266115
382														9.594453601272987	-1.1085049508086058	0.9643498182121929	-0.05914121660234173	-0.14387786596522933	0.9878266427790288	0.19193739017437872	-0.9727338020601205	-0.13018828128027185	0.9796235780910154	0.1819013744174419	0.08514420258128219
383														9.622403626045383	-1.183124150080863	1.042459946343402	-0.05909831038084079	-0.1439914750985947	0.9878126567366207	0.19168504363733527	-0.9727645940550356	-0.13032992211574002	0.9796755757677552	0.18164663402296438	0.08508975609463554
384														9.663725908784299	-1.2783262106941384	0.9229077677411859	-0.05913501539638916	-0.14410890022298914	0.9877933360934307	0.19136240448277256	-0.9728097555880576	-0.13046689075499235	0.9797364339987772	0.18131134633338286	0.0851041455284966
385														9.627796398808888	-1.2554750025828423	0.958090235689811	-0.059243831197085484	-0.14421949104374954	0.9877706752420689	0.19134040507598005	-0.9728018747014853	-0.1305578874010876	0.9797341567233689	0.18126569168035372	0.08522752588918586
386														9.629268463077864	-1.2468429106193288	0.8689220534683694	-0.0594043760429836	-0.14439127040428687	0.9877359369477151	0.1914139500352314	-0.9727694779140059	-0.13069140205393337	0.9797100692750148	0.18130279608971572	0.08542526728783023
387														9.62199914821697	-1.1876970546296342	0.8765597521839131	-0.05958430576473395	-0.14454278963750866	0.9877029373603897	0.19151760554192654	-0.9727346436345619	-0.13079877614346813	0.9796788847750174	0.18136894727860386	0.0856422074039973
388														9.611609254657786	-1.1498807562626745	0.8949226289862169	-0.059714139929140764	-0.14464060374351279	0.9876807769928682	0.1913862231261091	-0.97274918107434	-0.1308829412747307	0.9796966546283838	0.181212931293309	0.08576909957578127
389														9.59666828277036	-1.1462808862764626	0.843618788868318	-0.05977334901132203	-0.14467682878252208	0.9876718898305271	0.1912979596517005	-0.9727621525446466	-0.13091556519300274	0.9797102823697771	0.181114355560623	0.08582163380403085
390														9.61602488601786	-1.1737210017892707	0.8482909904630878	-0.05978354244804962	-0.14464954777099343	0.9876752686900738	0.19122745230208998	-0.9727790498096862	-0.1308930163813797	0.9797234250228042	0.18104537713239552	0.08581714211376723
391														9.612987170534675	-1.1942762862975815	0.8592297268516241	-0.059756624833455174	-0.14463810615967426	0.9876785732388128	0.1910552061083589	-0.9728117218267729	-0.13090172686149748	0.9797586713101377	0.18087888799683727	0.08576580827824926
392														9.63712443600195	-1.1868461887723585	0.9318238702167261	-0.05968439435669498	-0.1445729159956026	0.9876924850533203	0.19090372580389867	-0.9728465488148088	-0.13086389851026892	0.9797926007806269	0.18074364281944888	0.08566326538190733
393														9.644943792071139	-1.1891469880167789	0.8716303623196815	-0.05958758519842061	-0.14449193608462851	0.987710180213172	0.19064299474519592	-0.9729029765550465	-0.1308244883992054	0.9798492579191986	0.18050451134762885	0.08551931441697586
394														9.625494360979125	-1.2146449857745552	0.9201896618038923	-0.05955414876354642	-0.14439442748326584	0.9877264564021913	0.19023457082212972	-0.9729902277633855	-0.13077012174451802	0.979930666643906	0.18011181523913372	0.0854144167110838
395														9.630100353772898	-1.2382470352380806	0.87198924811669	-0.05964888117493594	-0.14434204278973695	0.98772839670522	0.1900155260793579	-0.9730396998370892	-0.13072047425607336	0.9799674029391812	0.1798864008874313	0.0854679586301389
396														9.652688831896787	-1.2434439111434423	0.8660216435004527	-0.059765387251524305	-0.144284937790869	0.9877296974442754	0.18979102607993534	-0.9730912660978428	-0.13066275009972034	0.9800038086182116	0.17965312290851426	0.08554116274062235
397														9.652798367530611	-1.241857708208874	0.867076202161694	-0.059891720218353706	-0.14424193333075985	0.9877283262710909	0.1896981354054978	-0.9731170393402132	-0.13060568582345383	0.9800140811605532	0.1795480225865546	0.08564407926000611
398														9.66820773363566	-1.1878093309626538	0.867013959068438	-0.060034204907814526	-0.14417640769721496	0.9877292431150421	0.1896234451905302	-0.9731428313174262	-0.13052194792286187	0.9800198177971512	0.17946084062834083	0.08576108328262155
399														9.636811604979204	-1.1887021030294918	0.8543100178640654	-0.06017182656816844	-0.14413530562118484	0.9877268675909034	0.18945436496282633	-0.973182535234622	-0.13047144021143656	0.9800440780311785	0.17927846158365454	0.0858652335244926
400														9.659389191259866	-1.1938621950195893	0.8485185651161417	-0.060268263546009226	-0.14409847446332097	0.9877263619376028	0.18913701056408638	-0.9732477268600825	-0.1304455955429805	0.980099447833754	0.1789538818216185	0.08591030518479581
401														9.669887106784147	-1.229553964817981	0.832722829193601	-0.06037296826599853	-0.14398587006394303	0.9877363888835331	0.18888131278993137	-0.9733117663855848	-0.13033823343181006	0.9801423133308269	0.17869603979188292	0.0859579605457979
402														9.718169997467406	-1.2191693198782692	0.8091730889162615	-0.060523534284590064	-0.14385994449369138	0.9877455229804761	0.18875690915108795	-0.9733546652888874	-0.1301980215213972	0.980156993060515	0.17856374752628346	0.08606542292895386
403														9.683753684014858	-1.24093344104432	0.8074984727898014	-0.06067814207920996	-0.14374337488948094	0.9877530082207784	0.1886361964063855	-0.9733957154206858	-0.13006600864938694	0.9801706731376667	0.17843380670722964	0.08617904701735946
404														9.661512277010544	-1.2316222715177552	0.8153918583132564	-0.06079329211908313	-0.14358405757507225	0.9877690995590022	0.1885846016080982	-0.9734288291160298	-0.12989288926692652	0.9801734661118094	0.17838142575972835	0.0862556854606571
405														9.68740254243223	-1.2139812155127732	0.798375724740209	-0.06087098499436716	-0.14342559766773122	0.9877873359784832	0.18847051566791895	-0.973472267251128	-0.12973283939240873	0.9801905875439141	0.17827182286217272	0.08628771212469277
406														9.6589930523812	-1.2478012853026554	0.8274942215058922	-0.060924314944944546	-0.14327516975699833	0.9878058784900974	0.1882926045475179	-0.9735256270496582	-0.12959069623349526	0.980221466262192	0.17810131725698528	0.08628903678988098
407														9.666601484658216	-1.3042894316517493	0.8222361739464928	-0.06098172770178839	-0.14312148982423825	0.9878246140064517	0.18815627484015487	-0.9735719048966955	-0.1294409604186238	0.980244074261498	0.17797186616516136	0.08629930317742357
408														9.657909862667218	-1.3109503575653152	0.8022640565669905	-0.061124388901239	-0.14301274875122086	0.987831545748601	0.1879676143081884	-0.97362377165087	-0.12932489028652894	0.9802713833692883	0.17777543410425073	0.08639392326030221
409														9.651925693960822	-1.3518394549352095	0.8254065843226626	-0.061239187158990294	-0.14294290822987174	0.9878345443154402	0.1879667097508971	-0.9736358004768865	-0.12923561449985535	0.9802643918767675	0.1777657250892862	0.08649317315229083
410														9.64475268632708	-1.2906998057035883	0.83233937217259	-0.06141011292052523	-0.14284903103331154	0.9878375131386394	0.1879136393538221	-0.9736617513124746	-0.12911722648789337	0.9802638737482319	0.1776990387255043	0.08663595939413216
411														9.639048946439738	-1.2764892679100106	0.8016009492209824	-0.0614454801881692	-0.14279454667800012	0.9878431912016553	0.1878451918595142	-0.9736821144445356	-0.1290632554450752	0.9802747762029317	0.1776312400729187	0.08665163408989773
412														9.673757899438908	-1.2508429019694949	0.8049852062731215	-0.06148866367175382	-0.14276277400222712	0.987845096459486	0.1877397045050129	-0.9737063959705697	-0.1290335529944638	0.9802922766156188	0.17752364576358184	0.08667414610236396
413														9.681287435915397	-1.308655177964357	0.7995038778523836	-0.061487260460028836	-0.1427225738397862	0.9878509926692728	0.18747341190154876	-0.9737598003976191	-0.1290177156811478	0.980343325897164	0.17726285015799567	0.08663051034566949
414														9.695033045498224	-1.3232310887852168	0.7717339836816995	-0.06146926511844403	-0.14267417539202396	0.9878591038817248	0.18728793694673737	-0.9737992156494606	-0.12898959754464878	0.9803799049960344	0.17708519779106757	0.0865798741236386
415														9.689089354822515	-1.3651240477737119	0.7931946987344978	-0.061397532308878955	-0.14264280250462708	0.9878680954054577	0.1872407174693812	-0.973810148650404	-0.12897561051233564	0.980393419372005	0.17705034673534048	0.08649808074728699
416														9.70723117277068	-1.3453689473972115	0.8340262708441292	-0.06128374368155737	-0.1426168416198238	0.987878909202317	0.18740599673163855	-0.9737809901175827	-0.1289557120667469	0.9803689586831046	0.17723154282465284	0.08640419595482035
417														9.722548426491391	-1.291704115111375	0.8322805570785158	-0.06120874495282713	-0.1426055408989639	0.9878851903162704	0.18749642622967536	-0.97376434228417	-0.1289499742030914	0.9803563534207345	0.17733207662685274	0.0863409225501347
418														9.673147150151133	-1.2522607558698606	0.8933797084469385	-0.06110611837646496	-0.14259704835748527	0.9878927695335635	0.1874105317512047	-0.9737785618687159	-0.1289674572658787	0.9803791791371808	0.177260808541055	0.08622801673284208
419														9.680766958469876	-1.3104834980799425	0.8867662732631764	-0.06098663572773377	-0.14259052261548544	0.9879010948080053	0.18723380914087856	-0.9738085324971497	-0.12899784009953308	0.9804203848233725	0.17710134075153233	0.08608707293664852
420														9.649514601607443	-1.3124753873954242	0.8714344001291588	-0.06083792507160751	-0.1425997710197692	0.9879089290911843	0.18697571969396978	-0.9738504066990765	-0.12905605610340415	0.980478876426159	0.17686348033766708	0.08590973288832954
421														9.702132253188047	-1.3843597605893954	0.8508202218771787	-0.060696913744083425	-0.14262670594968305	0.9879137145580508	0.1867396442173325	-0.9738861223513997	-0.12912833139531626	0.9805326052404006	0.17664496438137484	0.0857459422898566
422														9.676748844726818	-1.398736950215833	0.86751998538737	-0.06061676804207111	-0.1426244473527905	0.9879189614788477	0.18670918542852472	-0.9738900172579299	-0.12914299966303316	0.9805433634004928	0.17662531331227838	0.08566335966204558
423														9.688866780637476	-1.367250051839041	0.8772233186602221	-0.0606086916854105	-0.14270263471079725	0.9879081660451944	0.186837428582723	-0.9738564947372523	-0.12921030507923023	0.9805194346736726	0.176746953876633	0.0856863613567097
424														9.62463561927465	-1.270079529338504	0.833036362507191	-0.060530639924226304	-0.14281420429612293	0.987896828966279	0.18685658523032236	-0.9738366008731667	-0.12933248376127388	0.9805206056919086	0.1767664500154431	0.08563272716964526
425														9.645602305547362	-1.2304479858521962	0.863050474364575	-0.060427840619952544	-0.1429793439274796	0.9878792351740555	0.18670196579582446	-0.9738403996962102	-0.1295270314934313	0.9805563992172934	0.17661195636081112	0.08554159704157116
426														9.642524325709008	-1.253073819214311	0.8727784409488007	-0.06024644644009475	-0.14314470907879784	0.9878663664454247	0.18627566787031424	-0.9738911042464657	-0.12975936432129698	0.9806486329215006	0.17619792658355843	0.08533785453622428
427														9.633379641109617	-1.31922643445333	0.9033991358015417	-0.05997141951271179	-0.1433180091872471	0.9878579741462	0.18586862470837104	-0.9739348807598398	-0.1300142391753114	0.9807427201823365	0.1758146645815431	0.08504657857568665
428														9.687378952630397	-1.3246963392136455	0.9081229463999181	-0.05971480060148704	-0.14354637939542997	0.9878403613699879	0.18555919720418912	-0.9739541552439048	-0.1303115030074816	0.9808169691242407	0.17552133900353914	0.08479582909756345
429														9.699429313784805	-1.2951182371707277	0.915984375214047	-0.059493695995051554	-0.14372056368018063	0.9878283756363246	0.18550979841760937	-0.9739347743318936	-0.1305265108632777	0.9808397498204824	0.17548633827889443	0.08460455217988633
430														9.715961278768042	-1.2307222254430503	0.9935162423066285	-0.059340755642601994	-0.14386858012116083	0.9878160286073956	0.18547938789030416	-0.9739170255946958	-0.13070204254188045	0.9808547656955151	0.17546355436586414	0.08447762840950457
431														9.699551668026892	-1.1813340559584669	0.9782157553172315	-0.059332868274193096	-0.1440373247340231	0.9877919111967981	0.1855306144468779	-0.9738853323805704	-0.13086539067664166	0.9808455545320687	0.17550102124332978	0.08450674350149295
432														9.705276704583602	-1.1941275090371353	1.0113589815603576	-0.059526299398163396	-0.1442115242420663	0.987754856204585	0.18562722479147747	-0.9738495412080794	-0.1309946735750261	0.980815555084734	0.1755565645727703	0.08473924438671981
433														9.637536527178135	-1.2339246291238333	0.917472088656021	-0.05986048996001708	-0.1444087905466672	0.9877058382709886	0.18555249081891526	-0.9738446710518506	-0.1311366837113464	0.9808093570580593	0.1754213723488735	0.08509022993619658
434														9.614635278328429	-1.2276295567637128	0.9280342686272871	-0.06022565706067712	-0.14462462946271526	0.9876520575508267	0.18542528223679816	-0.9738474073812069	-0.13129619889511238	0.9808110597556561	0.175228261675089	0.08546766272288647
435														9.599381952571344	-1.2245998975433527	0.8796184278184319	-0.0606150283689163	-0.14479395263625494	0.9876034273005566	0.18536930556033965	-0.9738441340891395	-0.13139947890403408	0.9807976544078362	0.17510657834628668	0.08586994426423522
436														9.590111275990484	-1.2335674916040549	0.8626780882844793	-0.06094948934827116	-0.14489829597785933	0.9875675387389451	0.1853399706000973	-0.9738434292197762	-0.13144607511607947	0.9807824708089661	0.175024167440327	0.0862107056326552
437														9.666305455062826	-1.2438433045728832	0.8667076297879321	-0.06128250940572083	-0.1450334181025346	0.9875270941470078	0.1853050978105039	-0.9738395707905012	-0.13152380426376062	0.9807683084023349	0.17493369599956385	0.0865547643839139
438														9.648143680877121	-1.2618714048169053	0.82900242221787	-0.0616718406304802	-0.1451543278468309	0.9874850911181309	0.1852831212385378	-0.9738366314298698	-0.1315765186856279	0.9807480558519369	0.17484975376779574	0.08695294445840945
439														9.628445487471424	-1.2331172000872415	0.8287925566342458	-0.06201959422651038	-0.1452837785471534	0.9874442736798066	0.18540278555833745	-0.9738063051038832	-0.13163239436830165	0.980703511281156	0.1749111312380794	0.08733108913684307
440														9.608763387725803	-1.2043738599534415	0.8283527014985186	-0.06233076123241699	-0.14543350767827373	0.9874026387693023	0.18551913353011834	-0.97377298565071	-0.13171493275683227	0.9806617802782068	0.1749721899654234	0.0876767097938913
441														9.602713440324225	-1.1916161648272188	0.7999027884301243	-0.06258026979036646	-0.1455670803763418	0.9873671733168332	0.18557827619596579	-0.9737505495945242	-0.13179746040230225	0.9806346991806376	0.17498597736696	0.08795165994926402
442														9.616134529147132	-1.207292637576203	0.7749837884942368	-0.0627925227513193	-0.14567183049285787	0.9873382484677604	0.1855262234488832	-0.9737509050426734	-0.13186809827008775	0.9806309802873454	0.174896805944061	0.08817022043323564
443														9.611313568742887	-1.1820128702726165	0.8248525167298514	-0.06287204191296453	-0.14575615181797613	0.9873207435038069	0.18540727647284028	-0.9737627395617495	-0.13194797790084045	0.9806483815194	0.17476061126126796	0.08824670291274223
444														9.615628149363316	-1.2620396898026238	0.8312149922710824	-0.06299147857252668	-0.14575696229854737	0.9873130109386518	0.18534417735903672	-0.9737767172970357	-0.13193347099697728	0.980652644694516	0.1746820333969929	0.08835483949361805
445														9.647091779270747	-1.2582938563361128	0.8464966578911993	-0.06309696062175907	-0.14575944391831747	0.9873059090620895	0.1853722128012154	-0.9737739023138894	-0.13191485850183984	0.9806405642647447	0.17469565444223958	0.0884619242246093
446														9.638695317025793	-1.2105377922467524	0.7730689005846396	-0.063144781500375	-0.1457232143391377	0.9873081997896809	0.1853691923993579	-0.9737804182558771	-0.13187099578989914	0.9806380571232591	0.17468955842888695	0.08850174629599555
447														9.653527723712386	-1.2122151031878017	0.8260356597411336	-0.0631917936847472	-0.1456826948243496	0.9873111716371995	0.1852167050515493	-0.9738140990585206	-0.13183653759367728	0.9806638411712504	0.1745355347874957	0.08851992835340045
448														9.673130647286415	-1.2389662114561273	0.8304861790933262	-0.06322501077433956	-0.14561851339670515	0.9873185132310235	0.18491759922256748	-0.9738766438319039	-0.13179440085401795	0.9807181447849055	0.17423986672068265	0.08850078719882776
449														9.694448773311603	-1.3125549557280567	0.7968952890244765	-0.0631587457236823	-0.14557520382926975	0.9873291411017294	0.18455804805409265	-0.9739446695667078	-0.1317957037276277	0.9807901405178762	0.17389548772945193	0.08838019919790618
450														9.641979565748848	-1.4099247562948913	0.8052355993457698	-0.06316078116520107	-0.14559121448227863	0.9873266500951834	0.18444976319309347	-0.9739617731388625	-0.13182089865501073	0.9808103795232865	0.17378625587133756	0.08837045145074607
451														9.628417909438381	-1.3933376128618793	0.8330549647500665	-0.06315788402720979	-0.14564593112264332	0.9873187653603185	0.18465003559445556	-0.9739188920668214	-0.13185733210671827	0.9807728819865339	0.17398061507752335	0.08840418280304863
452														9.622639953113634	-1.3801704184026664	0.8023991637770154	-0.06322998254768197	-0.145716153955038	0.9873037890049704	0.1850458535977531	-0.9738409294259986	-0.13187826295863006	0.9806936327790133	0.1743578121314279	0.08854011506341586
453														9.616181198612454	-1.3074635728549897	0.8895253000464367	-0.06329220754008985	-0.14577404210510475	0.987291256475535	0.1855276466413519	-0.973748900234042	-0.13188089939302958	0.9805985869847167	0.1748227901085321	0.08867583245870464
454														9.622329918397439	-1.2632613296189068	0.869252799513357	-0.06339357178586547	-0.14582863478546637	0.9872766908687943	0.18585466691978897	-0.9736856689603033	-0.13188730357945944	0.9805301106240257	0.17512917329198258	0.08882834469752388
455														9.635963359864949	-1.2785546583671146	0.842894121724924	-0.06340091044532087	-0.14592594430819833	0.9872618413229922	0.18593365617123947	-0.9736587295747285	-0.13197482269630464	0.9805146608070171	0.17519787984072846	0.08886339427353623
456														9.652663709105438	-1.272825266717289	0.8049451057572223	-0.06340630301546463	-0.14607126182002766	0.9872400048662013	0.185793313320613	-0.9736644861639764	-0.13212990996889937	0.9805409147318946	0.17504472243785543	0.08887552915957536
457														9.628695426243514	-1.3348660646312966	0.7854251145962333	-0.06338643467671295	-0.14620042469521963	0.9872221612777502	0.185568879100084	-0.973686752840667	-0.13228113415047763	0.9805846985388428	0.17481288042228368	0.08884878068916385
458														9.660105783390666	-1.332388205975229	0.7991958281113811	-0.06331502291135965	-0.14627144408995954	0.987216223791714	0.18542065529511145	-0.9737019406340153	-0.1323771558671796	0.9806173506845904	0.17466881647675395	0.08877170769420067
459														9.60888884843102	-1.3625978956880593	0.8339232461749837	-0.06318979960277732	-0.14642098960870115	0.9872020781117556	0.18561503693745396	-0.9736442383984286	-0.1325290726454056	0.9805886534571302	0.1748650646514398	0.08870232170343312
460														9.676290219936098	-1.2671864150144512	0.8764997006126466	-0.06295782652318688	-0.1464469076598924	0.9872130546727648	0.18588662348785948	-0.9735867260403749	-0.13257092473942617	0.980552127776876	0.1751633241144926	0.08851742538846313
461														9.643462436494644	-1.222122226725635	0.8980823876807027	-0.06274307425387377	-0.14641280212481247	0.9872317853509036	0.18608427712525796	-0.973550819221297	-0.13255732420470387	0.980528402668654	0.17539125909663025	0.0883286917856006
462														9.700783878382163	-1.2033057162204341	0.8928382117032294	-0.06255911026554023	-0.14639938936093447	0.9872454489728124	0.18595014086537345	-0.9735721886361959	-0.13258860669859893	0.9805656035344765	0.1752838050387813	0.08812879697462556
463														9.674040187772803	-1.2857476280254017	0.8827831444162493	-0.06245453348105068	-0.14639934898051757	0.9872520761516512	0.18573186646861392	-0.9736086793398203	-0.1326265934579368	0.9806136369772502	0.17508103875706385	0.08799730019721175
464														9.675505193714454	-1.38777051926456	0.8984521888962573	-0.062405643746801076	-0.14651027388686502	0.9872387124065504	0.1855927313474419	-0.9736174287246466	-0.13275707346354199	0.9806430919042585	0.1749395384960296	0.08795046430379189
465														9.632379186779268	-1.3661419356187579	0.8211282941211752	-0.06241287542850449	-0.1466855639056488	0.9872122255738265	0.185602694675634	-0.9735922376958344	-0.1329277789913039	0.9806407459971715	0.17493284437206	0.08798992698037233
466														9.627474152867327	-1.3414657926087463	0.8703178928758251	-0.06246936603296177	-0.14684513337530708	0.9871849295402702	0.18585001618553137	-0.9735279516376938	-0.13305299269071016	0.9805903068005912	0.17515659903099487	0.08810684436874189
467														9.585730179522285	-1.2511613783737565	0.8200310401236036	-0.062441783003528706	-0.14695338931969562	0.9871705653547386	0.18612856759036753	-0.9734628956243427	-0.13313957777245633	0.980539229231599	0.17542717067240166	0.08813698274718657
468														9.632169166544097	-1.1960092951657342	0.8330608506133663	-0.06235694728564212	-0.14707254641879353	0.9871581824688014	0.1862405114157782	-0.9734247344804521	-0.1332619908648034	0.9805233719972233	0.17553903381172337	0.08809066111479469
469														9.615531865106451	-1.2015893970902907	0.8707758359953085	-0.06220501970883807	-0.14711024270366024	0.987162150821583	0.18626108265682773	-0.9734122883370615	-0.1333241388568191	0.9805291146164553	0.17557646028461837	0.08795204365672449
470														9.617390737847725	-1.2478582359412305	0.8322334223258769	-0.06204087621012505	-0.14712111203587197	0.9871708606276876	0.18620993263715596	-0.9734160084222425	-0.13336842030471685	0.9805492290886505	0.17554672580438002	0.08778699444118149
471														9.668422876246826	-1.2731666073080115	0.8491601562346619	-0.06186763681031887	-0.14720449299959276	0.9871693029851769	0.18616320797151054	-0.9734089112287534	-0.1334853982209652	0.980569046785214	0.17551617811810508	0.08762656963245236
472														9.64016871144685	-1.254424521543984	0.8226906050775052	-0.0616690877284628	-0.14731480994326185	0.9871652700485969	0.1861045490709265	-0.9733996763281638	-0.13363445266596632	0.9805926883440677	0.17547483265587097	0.08744462631029881
