// Start Time: 1748431178.2324173
// Update Rate: 100Hz 
// Filter Profile: 46.1 human
// Option Flags: AHS Disabled ICC Disabled 
// Firmware Version: 4.0.2 
PacketCounter	SampleTimeFine	Year	Month	Day	Second	UTC_Nano	UTC_Year	UTC_Month	UTC_Day	UTC_Hour	UTC_Minute	UTC_Second	UTC_Valid	Acc_X	Acc_Y	Acc_Z	Mat[1][1]	Mat[2][1]	Mat[3][1]	Mat[1][2]	Mat[2][2]	Mat[3][2]	Mat[1][3]	Mat[2][3]	Mat[3][3]
0														9.749698460207018	0.19724128035699992	0.7892913576805797	-0.054534502493851555	0.04340003279650703	0.9975682559058356	-0.4017592407523305	-0.9155709653501927	0.017869523715753427	0.9141200689777353	-0.39980775950571423	0.067366571318139
1														9.77461973078319	0.1802793683781848	0.8681936529325683	-0.05425882276439353	0.04322004826170037	0.9975911023964067	-0.4017142181026856	-0.9155917185915393	0.017818300164134465	0.9141562596877898	-0.39977972969480025	0.06704103667741412
2														9.796400067655687	0.1901493196054994	0.8612017187203144	-0.05410427812778568	0.04318359741486877	0.9976010745797049	-0.40199106250285704	-0.9154700417551509	0.017826618205560085	0.9140437149043231	-0.400062219614816	0.066890265964275
3														9.803401329214664	0.18974161071460713	0.8938181287902247	-0.05401860863983643	0.043244838769971206	0.9976030642697404	-0.40254044274177403	-0.9152276236899005	0.017877046517668943	0.9138069718916972	-0.4006098859922176	0.06684711936523302
4														9.728040940762508	0.1734854119881072	0.8909259448082097	-0.05394533773295623	0.043346828169531115	0.997602602755485	-0.4029064993153287	-0.9150646495527082	0.017973312116748436	0.9136499621552796	-0.4009709959917551	0.06682819036181892
5														9.74674305723087	0.1269807708792489	0.8690424074671271	-0.05396078171773405	0.04339786786762015	0.997599548466696	-0.40308018113872135	-0.9149876088488278	0.01800120068995742	0.9135724391692137	-0.40114124783877453	0.06686626707663773
6														9.7428068447951	0.14235836874185792	0.8876219993213151	-0.05396977082955423	0.04350204581900194	0.9975945247675365	-0.40331873074320734	-0.9148810152465774	0.018075656919744998	0.9134666196792819	-0.40137301846406365	0.06692110863362033
7														9.757422143731656	0.15340695787129116	0.8496638616453874	-0.05400728658919901	0.043595078897301354	0.9975884332184344	-0.4031657272761222	-0.9149468382420232	0.018157079634149004	0.9135319421592154	-0.4012128515973329	0.06698983779610884
8														9.77891337593106	0.16430828987702314	0.8457196489172847	-0.05406114124069389	0.043697781551583936	0.9975810227220762	-0.4031843793032826	-0.9149372047145707	0.01822821206026884	0.9135205248343247	-0.4012236475041787	0.06708081238224589
9														9.750434834188804	0.15421048578523894	0.8168562500923375	-0.05409451356390038	0.04384723144377234	0.9975726559489302	-0.4032631160327929	-0.9149001485119166	0.018346048631693812	0.9134837945195353	-0.4012918371305234	0.06717304967471893
10														9.772000511354713	0.12382498874382647	0.8482948431187871	-0.05413633315614019	0.0440393316536167	0.9975619252457011	-0.40328425672453994	-0.9148876525513637	0.01850382358297792	0.9134719840862895	-0.40129929040126316	0.06728903189153401
11														9.74360348458216	0.07272006354869721	0.8548115376479652	-0.054189727683256805	0.044278929226880065	0.9975484197973224	-0.40307301021830155	-0.9149763921323113	0.018717646061818194	0.9135620514487076	-0.4010705402632552	0.0674299628189805
12														9.771805193639505	0.12634669694327855	0.8501708526089966	-0.0542140404101672	0.04444148238584114	0.9975398701133471	-0.40301785372967025	-0.9149977437698976	0.018861030489515485	0.9135849426285081	-0.4010038447937193	0.0675164355036596
13														9.721922049464125	0.0641485131243344	0.8607299738770284	-0.05427500590220069	0.04461368788256043	0.9975288680473533	-0.40296501057032313	-0.9150181762046438	0.018998354433667736	0.9136046322071576	-0.4009380950578847	0.06764037212330498
14														9.764892495151358	0.08605265208626167	0.8529486285799783	-0.0543530766037173	0.04472841871779945	0.9975194793199353	-0.40292199956314423	-0.9150355146000781	0.019075358151485228	0.9136189606897109	-0.4008857388079239	0.06775705932725323
15														9.760704714461662	0.14344947328382845	0.837820089304822	-0.054519948923940575	0.04485378818363764	0.9975047432743906	-0.402992322744938	-0.9150036564285888	0.0191179635670784	0.9135780004892686	-0.400944443044033	0.06796168489773918
16														9.732213948488774	0.09123283028101777	0.8457199178822461	-0.0547746143686787	0.045066471526289675	0.9974812052188916	-0.4028999301256649	-0.9150422592491627	0.01921744241366105	0.9136035179034158	-0.4008324798869949	0.06827836511036978
17														9.73868927435145	0.1336976402308399	0.8476374824731115	-0.055057432649628923	0.0453570183820515	0.9974524650295485	-0.4029151484639104	-0.9150323626070449	0.01936900926932933	0.9135798061736794	-0.4008223001097376	0.06865436247175283
18														9.763748387712681	0.17171761280495382	0.7937458051627151	-0.05544896520035203	0.04567717412623562	0.9974161659117282	-0.40284033682331405	-0.9150622885962072	0.01951079232504524	0.913589117320412	-0.4007176109842363	0.06913986520667548
19														9.710731814941138	0.09407798869816524	0.7555898343742078	-0.05579491629913952	0.04598550392605588	0.997382705256031	-0.40313803803676834	-0.9149285848953828	0.019631781100996976	0.9134367244659244	-0.4009875533853876	0.06958686964481026
20														9.682135998727809	0.042567004993624556	0.7650743090898197	-0.05611005497601579	0.04629877521039538	0.9973505327339056	-0.4030453859217989	-0.9149657930470729	0.019799354557375526	0.9134583069947617	-0.40086658749234483	0.06999928867142552
21														9.714133989790803	0.08039094956036642	0.7445160286752435	-0.056387519766544436	0.04653294686282031	0.9973239857091771	-0.40287629360238053	-0.9150377395740548	0.019915501711286615	0.9135158124891902	-0.40067520513686106	0.0703437297898557
22														9.735384708819963	0.13335689362795344	0.7082368743221036	-0.05667568016689023	0.04673630565542164	0.9972981424886458	-0.4027727762808559	-0.9150815948962174	0.019994133369724137	0.913543626744028	-0.40055136052181584	0.07068698338089069
23														9.724397860846587	0.10686746042475156	0.7311676895842777	-0.05699028006858081	0.04688049872549238	0.9972734463611044	-0.4031195081002186	-0.9149293661885176	0.019972908524192312	0.9133711021084163	-0.40088211948792013	0.07104052440776615
24														9.686369198892097	0.03825593097784349	0.6537599564921243	-0.057340119324891636	0.04695102968125045	0.9972500747193147	-0.40300432141426146	-0.9149815725039452	0.019905750416390228	0.9134000370249824	-0.40075469153845134	0.07138662040384641
25														9.675407319770267	0.05302067507637674	0.6412502234598937	-0.05766283067494704	0.047072606164976966	0.9972257355821649	-0.4027325921978645	-0.9151011429293673	0.019908726502586988	0.9134995660317203	-0.4004673119721548	0.07172499495751694
26														9.67798289625613	0.10950233191838031	0.6609195293983783	-0.05792900695229153	0.04711446592463259	0.9972083319217492	-0.40248153013997656	-0.9152126553780571	0.019859842195450506	0.9135933712816134	-0.40020747436358767	0.0719800626132946
27														9.742486935551396	0.14009978089659947	0.65023987685309	-0.058227862682035114	0.04707039696302756	0.997193007264504	-0.4021616833096751	-0.9153561729748141	0.019724529764510418	0.9137152162928067	-0.3998843011755344	0.07222914362183636
28														9.720812896567482	0.12747284603397924	0.6568125691942142	-0.05857585729646447	0.047030047373708195	0.9971745301530776	-0.4019812427142906	-0.9154389156085947	0.01956201153345341	0.9137723728849866	-0.3996995952379576	0.07252781617251441
29														9.670902849808435	0.14619618374518986	0.5989885836107386	-0.05889687906867014	0.047040040249205245	0.9971551495375849	-0.40177134603676534	-0.9155332505171953	0.01945900051965685	0.9138440474937591	-0.3994822922368042	0.07282139142760458
30														9.69624646043895	0.0984580125893844	0.6142735329513339	-0.059215723960996225	0.047153311238628814	0.9971309158154751	-0.40166649860730386	-0.915579585431203	0.019443421462673915	0.9138695322267418	-0.39936272733050515	0.07315661341817797
31														9.696067118681706	0.09785124981617732	0.617194330385286	-0.05954377825180501	0.04726420092479838	0.9971061296484142	-0.4012993927366224	-0.9157405539284669	0.01944312937781628	0.9140094834632285	-0.39898036693767863	0.07349374760860505
32														9.70271533915016	0.13908904480497838	0.6182726663486012	-0.05975324499339035	0.047344846496227805	0.9970897729006192	-0.40102248689823483	-0.9158615869885374	0.01945555141323113	0.9141173418739603	-0.3986928880593262	0.07371204987109387
33														9.702723531233804	0.18057377287709053	0.5848237340065632	-0.05995138176293513	0.04743847908125984	0.9970734288542509	-0.40059620604294666	-0.9160472478670988	0.019496650458796366	0.9142912618682917	-0.3982549816104908	0.0739219730101669
34														9.713376975095139	0.16468652150421428	0.6014888311459965	-0.06006566505368088	0.04747060183914148	0.9970650218730418	-0.40039911217354385	-0.916133419242739	0.019496387287038258	0.9143700929340907	-0.3980528860687208	0.07403534993545374
35														9.695960540028883	0.17943874787117287	0.5527525268259389	-0.06016064963955198	0.04744565428104447	0.9970604826813619	-0.40036777276235713	-0.916148356027815	0.019438011236789454	0.9143775712298813	-0.3980214813767915	0.07411179119659544
36														9.738999689957401	0.15752078639325495	0.5791026419888692	-0.06014301436938024	0.04728142221248735	0.9970693481078079	-0.40020552348525773	-0.9162220076450618	0.019307295997708585	0.9144497562985379	-0.3978714614299658	0.0740266396990153
37														9.71755469515797	0.14516072078629794	0.5818232739386116	-0.060013101401318714	0.04710238090886948	0.9970856499684027	-0.40021061930688323	-0.9162221558716481	0.019194303423452075	0.9144560611938648	-0.3978923557981811	0.07383620618082737
38														9.70979326171608	0.21644496096150206	0.581171206366227	-0.0598465433909407	0.046920171042146824	0.997104251717709	-0.40003359717254283	-0.9163012694227557	0.01910771539045167	0.9145444288701082	-0.3977316698524552	0.07360710848162394
39														9.709844095396697	0.17366221579388366	0.6137657839090835	-0.059647417793464774	0.04679189122342817	0.9971222113995392	-0.39988500876638045	-0.9163666746838872	0.019081333619723834	0.9146224168007716	-0.39759607196818514	0.07337028172895393
40														9.727449398506792	0.1578638656324728	0.6603918502303183	-0.05940317355495467	0.046742270983038264	0.9971391192180497	-0.3995521868930646	-0.9165102005030323	0.019159914479479206	0.9147837519985635	-0.39727095599507345	0.07311959109698912
41														9.727736876630503	0.20031529008665427	0.6223385662441647	-0.05913424035798204	0.046778456503410226	0.9971534072671279	-0.39896382370567907	-0.9167625352057753	0.01934738786562662	0.9150579265770161	-0.39668404310009464	0.07287496798170162
42														9.73221094095141	0.3476755472292006	0.7243368198984704	-0.058896690762076875	0.04689272802128494	0.997162099097232	-0.39825586954374037	-0.9170648673489716	0.019603352982898836	0.9153815828337576	-0.3959710862334959	0.07268739007441233
43														9.753916452906093	0.40177644150191427	0.6829880373440755	-0.058732682177509876	0.04704033814545741	0.9971648201934306	-0.3979118159274293	-0.9172092962128104	0.01983163347121497	0.9155417296822529	-0.3956188993563908	0.07258806845802385
44														9.693204112132364	0.3143553969827786	0.7115757642842393	-0.058550166460786535	0.04719027425282138	0.9971684692284238	-0.39781794710028606	-0.9172452767464423	0.0200495199757261	0.9155942108665435	-0.3955176106095487	0.07247800166523127
45														9.724053202625754	0.22239074942446724	0.6335202049597634	-0.05829369006436186	0.04728948189445703	0.9971787957035757	-0.3978480710075606	-0.9172280209066059	0.02024030778702232	0.9155974869418563	-0.39554577809136604	0.07228263511973437
46														9.68109558076273	0.20264295958518544	0.6394340612783422	-0.057931629083096625	0.04735817468534967	0.99719663539457	-0.3976077691266202	-0.9173272014522906	0.02046625041040606	0.915724843106231	-0.39530748635230917	0.07197223736891983
47														9.766255236663518	0.2784692315441143	0.6889144724302848	-0.05748125283447947	0.047453659930625836	0.9972181585449433	-0.39723999762416085	-0.9174798836349273	0.020761681357677086	0.915912817827186	-0.3949415314757737	0.07158838491986752
48														9.78002180768504	0.36438107022134053	0.6819103701862104	-0.05704333189688515	0.047592494200224406	0.9972366884455786	-0.39704795802843507	-0.9175557932649173	0.0210780756104256	0.916023458930803	-0.39474842715556246	0.07123694228879973
49														9.776223539534536	0.3407843129245873	0.7318848911648879	-0.05664473431659117	0.047686757745668024	0.997254905833964	-0.39668656031000504	-0.9177057891308371	0.021350818840596086	0.9162047516486799	-0.394388206886886	0.07089989650857947
50														9.752090092712988	0.2749058188223386	0.7161337391912668	-0.05630360456886946	0.047811189225342554	0.9972682659632823	-0.39661895260383323	-0.917729045979377	0.02160566132341063	0.9162550466698625	-0.39431901849979556	0.07063427709948761
51														9.738662594325852	0.23548991380964598	0.6810813369294006	-0.055964546308643615	0.04804238499606403	0.9972762399658168	-0.3965715995025695	-0.9177411868607068	0.021956329553788345	0.9162963145317355	-0.39426265760707147	0.07041321461322297
52														9.831667951655554	0.28164788172885097	0.695052313185629	-0.05563724330694436	0.04836529503737916	0.9972789456281282	-0.39623882753837514	-0.917873982023204	0.02240858487010361	0.9164601948302052	-0.39391388825581425	0.07023218586209762
53														9.78738310506572	0.33744390782219946	0.7369650170351133	-0.05530879996937105	0.048729890709555135	0.9972794665475585	-0.395834816059434	-0.9180360347888779	0.02290496069214118	0.9166546432769226	-0.3934910883114754	0.07006445873842565
54														9.795362782286876	0.3105240559314959	0.6983860884721638	-0.05496942900362828	0.049100302223101994	0.9972800620671282	-0.3956035109668319	-0.9181233092594654	0.023397673071565234	0.9167749036626879	-0.39324133724221844	0.0698929660139061
55														9.778024300507248	0.2470044579823531	0.717659433706179	-0.05457903094908284	0.04943390270409875	0.9972850237740971	-0.39522616271333866	-0.9182731956568702	0.023887621166826273	0.9169609641023708	-0.39284936986275276	0.06965603283915495
56														9.78214079005775	0.23636637079998368	0.6959623462185849	-0.053978929607039206	0.04983636027933083	0.9972976548416163	-0.3948522138702901	-0.918417304127981	0.024523145801932045	0.9171575679021623	-0.3924614537408749	0.06925318019694215
57														9.781187833567966	0.27393744125437397	0.7618364418287661	-0.053308156200480517	0.05025814253304234	0.9973125686521923	-0.3941828243071189	-0.9186857711978973	0.025226074204831556	0.9174846818905308	-0.3917787295242724	0.06878434115828075
58														9.83151715071682	0.26070379602710686	0.8172488156540435	-0.05260744313205312	0.05070193435433837	0.9973273137640603	-0.39355644129220446	-0.9189339237615249	0.025957104570107914	0.9177939771236917	-0.3911390515059526	0.06829683698752331
59														9.749245798713446	0.4539702394515909	0.8629991999786805	-0.051982328528727306	0.051203261136189004	0.9973344792845334	-0.39317956583701474	-0.9190741793781138	0.026692354872962565	0.9179911037308307	-0.39074400679916615	0.06790769191766965
60														9.810035629224647	0.46745350172766587	0.8993027343801228	-0.051344042923601785	0.05178215426999391	0.997337654836825	-0.39299643280469576	-0.9191290026107259	0.02748964100523521	0.9181054367876512	-0.39053871134494594	0.06754200087342249
61														9.743113494185735	0.38504034255254754	0.89272803495892	-0.05076461360338208	0.05236132001270119	0.9973370775080139	-0.39295010991801316	-0.9191256321913122	0.028253908832968966	0.918157483834402	-0.39046941546739333	0.06723444402559936
62														9.777952062297286	0.44513039118992814	0.9175255076520235	-0.05025096113577854	0.05301776050992876	0.9973284102919369	-0.3928194611683512	-0.9191560386453456	0.02906970156712868	0.9182416413081778	-0.3903092282950885	0.0670148824915463
63														9.719913586655903	0.46249245884143914	0.9272563909960422	-0.04977526182875419	0.05379949402823503	0.9973104019071417	-0.3930069770417816	-0.919047193786148	0.02996283681974915	0.9181873116670471	-0.39045853817801485	0.06688939121810139
64														9.749652336848955	0.4091784404168769	0.9203421263300626	-0.04929673113989602	0.054662821014110186	0.9972872245735935	-0.39307115707108686	-0.9189873254451075	0.030941253207423802	0.9181856553974903	-0.39047954065485724	0.06678944940822557
65														9.711689332955343	0.3490629703690113	0.8400963661272938	-0.048959642182702656	0.055543943413216085	0.9972551447786323	-0.39301886216524407	-0.9189772901862339	0.03188909067852519	0.9182260764210949	-0.3903788038201815	0.06682261674198053
66														9.747819720670913	0.3379105351966139	0.8330725767418452	-0.04862659246612461	0.056505289507789436	0.9972174320391591	-0.39314327478983124	-0.9188885642314726	0.032896382964558296	0.9181905139962301	-0.3904496879013537	0.06689709429470597
67														9.77137462983696	0.24283241762083763	0.8295818368811464	-0.04832077013943625	0.05729277714520875	0.9971873649721603	-0.3930053744233717	-0.9189165281170621	0.03375188924533212	0.9182656907711821	-0.390269076459144	0.06691912366618091
68														9.660908187742313	0.3515666340960596	0.8169066387730545	-0.048251217882499475	0.058072768980614586	0.9971456129752458	-0.3933424827124578	-0.9187454962839692	0.03447324109395675	0.9181249976263877	-0.39055635516637854	0.06717307624858487
69														9.69253611167785	0.09251393679936297	0.7273838937771268	-0.0482268765440112	0.058830844365438645	0.9971023518827237	-0.3934302090370324	-0.9186813392832369	0.0351748130035667	0.9180886879794817	-0.3905938153683548	0.06745096292941916
70														9.675734569831347	0.2121436466430172	0.6616494667256663	-0.048306085752151895	0.059535446318826096	0.9970566948328085	-0.3933551718721108	-0.9186893796032833	0.035798499488061186	0.9181166760498188	-0.3904681221761294	0.0677968636699321
71														9.685723676072504	0.24316895735804112	0.6451481442869054	-0.04855275127872566	0.06014184262306471	0.9970083194784128	-0.3930178813221969	-0.918814614526696	0.03628565960776961	0.9182481011710714	-0.3900803287760892	0.0682477970169027
72														9.648059459819734	0.30784890353370115	0.6215787176613843	-0.04900497102554141	0.060649797218729457	0.9969554227306816	-0.3928922040317271	-0.9188564456843973	0.03658617546734444	0.9182778603592034	-0.3899031088893273	0.06885736600073983
73														9.558723781594443	0.2915364648611575	0.55743696627791	-0.04947937675394426	0.061095604965786116	0.9969047689372874	-0.39295885238396544	-0.9188191502939633	0.03680637697677988	0.918223900586953	-0.38992139734431674	0.06947065771919331
74														9.592303126040145	0.2561006385884328	0.5032951703295492	-0.049937184592645956	0.06131023152682047	0.9968687642338322	-0.3930622884790322	-0.9187744750244622	0.03681713485797253	0.91815484258952	-0.38999297372344	0.06997975046941929
75														9.583767532242005	0.28640843201428	0.5437260292862152	-0.05029073885472124	0.06135822408847372	0.9968480375273634	-0.39328129054766925	-0.9186851923961673	0.03670618172975201	0.9180417572695736	-0.3901957016789478	0.07033239865572305
76														9.604407547610995	0.3370998662471468	0.5065661596076342	-0.05060079708528886	0.06137309617271203	0.9968314312864079	-0.393439182296532	-0.9186223670823721	0.03658628882267195	0.9179570628129454	-0.39034124783598617	0.07062960476794111
77														9.751073820916362	0.34466780024484994	0.5679370872053479	-0.05096759573281012	0.06143158059661763	0.9968091417571467	-0.39370106016916584	-0.9185145412544429	0.03647619396012233	0.9178244818084191	-0.3905857119884736	0.07100015622211991
78														9.783266305921403	0.3391198792412217	0.5831174209091959	-0.051419352128537654	0.061616915260338745	0.9967745010685629	-0.3940632617745549	-0.9183605799045952	0.03644161078897071	0.9176438284793729	-0.39091840712749315	0.07150246864705789
79														9.774201047933131	0.281037272497986	0.5373034825730517	-0.05181961374176408	0.0619026021592414	0.9967360711229277	-0.3944650251345888	-0.9181851177277993	0.036516209123570176	0.9174486751732892	-0.39128526349595993	0.07199840966073229
80														9.771942285574013	0.2242648780398385	0.5250727732557938	-0.05215904501881696	0.06223964937760776	0.9966973763726266	-0.3947511111858738	-0.9180559983756299	0.036670752160856857	0.9173063797010477	-0.3915346854263074	0.07245409490069932
81														9.772285081754905	0.1839440303214684	0.5641302357983634	-0.052375189137742806	0.0625489077372208	0.9966666813452062	-0.3950849216677572	-0.917905449026605	0.036844149034133716	0.9171503389486199	-0.39183825845385223	0.07278760181709681
82														9.750152689470411	0.2156934441556347	0.535744026997814	-0.05256736096557757	0.06283884553322225	0.9966383255991951	-0.3952798129841276	-0.9178144619355184	0.03702003389042727	0.9170553647454163	-0.3920049654711878	0.07308601123050229
83														9.66442319512045	0.17305729500894534	0.5555219619368142	-0.05273281777534372	0.06307017780690713	0.9966149720934747	-0.39547863560627483	-0.9177234739626348	0.037152040548971255	0.9169601401961109	-0.39218079760406205	0.07333705258714779
84														9.66435585697234	0.1738775070800843	0.5564362734489994	-0.05268384074826754	0.06321338255462802	0.99660848942301	-0.3956915532519514	-0.9176262510371576	0.037286164894636126	0.9168710965065207	-0.3923851827904491	0.07335707680542197
85														9.604455558086304	0.1260177332146302	0.5502530802305233	-0.052505089004680816	0.06321895819328524	0.9966175690572422	-0.39574757622390877	-0.9175991994782224	0.03735726207616588	0.916857170742266	-0.3924475410062872	0.07319737711562119
86														9.5984322358773	0.08401508794801822	0.5490907723158394	-0.052170154673758795	0.06308061458590714	0.9966439238889585	-0.395980900244366	-0.9174991013018241	0.03734334950170262	0.9167755459233068	-0.39270374988508716	0.07284478857964632
87														9.608581074645167	0.0579155582295256	0.6663804122623601	-0.05178352286676979	0.0628593891925332	0.9966780643466816	-0.3961463301852621	-0.9174302993675983	0.03727909445021227	0.9167259960534858	-0.39289991472717345	0.07240928923227863
88														9.64746561950262	0.09425508583182289	0.6715067902078377	-0.05144540201356729	0.06263605969894465	0.9967096340645313	-0.396020824498471	-0.9174870124585286	0.03721677758046921	0.9167992567488331	-0.39280313898352837	0.07200567220346743
89														9.688935010145538	0.14674947161041285	0.7291520790146337	-0.05110883336213723	0.06246342123661061	0.9967377830501759	-0.39581609248742433	-0.9175757679446682	0.03720659899452752	0.9169064881875079	-0.3926232686535154	0.07162025433829033
90														9.665038470008524	0.2501684117862938	0.7291789690408078	-0.05077212601327369	0.06237182341741937	0.9967607269870129	-0.3953719709193045	-0.9177638564819084	0.03728952060350624	0.9171167841837138	-0.3921979849247583	0.07125689292610343
91														9.710687400226062	0.2882447334927615	0.7692325217523885	-0.05051629764032367	0.06231686275430251	0.9967771628047947	-0.39502965960352243	-0.917908132275931	0.0373661442383027	0.9172784046876062	-0.3918689440593294	0.070986329497916
92														9.663299263336711	0.32416234252350995	0.7580742429415758	-0.05022858633773497	0.062351500307366525	0.9967895362231357	-0.39479249299235886	-0.9180034984004788	0.03752951373734173	0.9173963029091582	-0.39163997157325947	0.07072592222591023
93														9.682867313952615	0.27887894857030565	0.7339798926097166	-0.049899435033674944	0.062365138937200165	0.9968052145874158	-0.39411789541404074	-0.9182853808686051	0.03772325274162289	0.917704272027611	-0.39097640431149405	0.07040113901016004
94														9.65686822182828	0.32664445412240717	0.7175796118162174	-0.04948650132061394	0.06243726534461699	0.9968212849269075	-0.39387080210585057	-0.9183811971300241	0.03797062030725723	0.917832706671286	-0.39073976589836606	0.07003968810718209
95														9.688052684253428	0.3557445439208405	0.7950420934733496	-0.04905768539735328	0.0624585502284252	0.996841147328308	-0.39351910190338846	-0.9185230613879529	0.03818510358311328	0.9180065685716005	-0.3904027602385334	0.06963924796786164
96														9.772548929616631	0.30186901443603753	0.7919181110376265	-0.048623636929403136	0.06243357044930492	0.9968639782902727	-0.39347666757408406	-0.9185349809882977	0.03833537238140869	0.9180478495190495	-0.3903787109740735	0.06922866466767547
97														9.819743181458781	0.308415002543515	0.7608257099182862	-0.048309131523978366	0.06233882767534804	0.9968851981925816	-0.39362794663041684	-0.9184691361039261	0.038359948592634946	0.9179996010036829	-0.39054873778898724	0.06890875102995392
98														9.831046228687095	0.29279032069335675	0.7733028942108452	-0.048082330486665326	0.062236317402651564	0.9969025681033863	-0.3935675767003287	-0.9184950495432553	0.038358917278294324	0.9180373914308726	-0.3905041417970987	0.06865757914541892
99														9.798859269551418	0.2961930808180098	0.7595640149727905	-0.047907513330539	0.06205713121288439	0.9969221547503656	-0.3933788210095699	-0.918579348698097	0.038276406917339634	0.918127427619721	-0.39033433439938103	0.0684188135046725
100														9.799098781647324	0.29489012754537075	0.7569766701034654	-0.047738640638072594	0.061881303445445596	0.99694118506255	-0.39317907392839235	-0.9186682362602734	0.03819538599425745	0.9182217804075663	-0.39015301609795516	0.06818640637860324
101														9.78414174621802	0.324282316051991	0.7573246621471552	-0.04763269331338138	0.06167870463487346	0.9969588075353352	-0.39286608361411457	-0.9188071940772127	0.03807335627005792	0.9183612398579445	-0.38985776573838216	0.06799673242190274
102														9.743706877818497	0.3579975447736542	0.7806347721991445	-0.047532377848893415	0.06143322456782274	0.9969787520179301	-0.3926738227060374	-0.9188965209966152	0.0379005628156695	0.9184486605235251	-0.389685953839135	0.06780055577225019
103														9.776370960339563	0.35154830208220617	0.7897261847247776	-0.047485117596844484	0.061231120646510345	0.9969934370251324	-0.39259940120502246	-0.9189350000907817	0.03773825355807228	0.9184829196998016	-0.3896270209732996	0.06767503784409956
104														9.705487852712574	0.31696317015206127	0.76776454929282	-0.047368090864675916	0.061117787135152285	0.9970059578876838	-0.3923655791632876	-0.9190365652157049	0.03769673837849935	0.9185888722685973	-0.3894051975670348	0.06751352347555967
105														9.776761120951456	0.3492083261688505	0.785925079106197	-0.047216398870412846	0.06099295558516493	0.997020797700177	-0.39213090759937524	-0.9191383005505344	0.03765814342697832	0.9186968830811397	-0.3891845883768559	0.06731562364664656
106														9.764677915148065	0.39535483285316475	0.8385781854797529	-0.04709289623929763	0.06086295213405998	0.9970345832423879	-0.39186955095304754	-0.9192519087224194	0.03760562918029567	0.9188147333165984	-0.3889365364268522	0.06714057247769206
107														9.761956389136566	0.37827431438676784	0.7851021287539499	-0.047089347459694675	0.06080773629294964	0.9970381199145535	-0.39172451613875126	-0.9193153139987031	0.03756669939357471	0.9188767582280453	-0.3887952837347607	0.06710983932275166
108														9.730319402753073	0.3405161601430314	0.8094536516627092	-0.047142207342240894	0.06079983020073565	0.9970361041278608	-0.39167835745010776	-0.9193359834669139	0.037542160408098074	0.9188937243185886	-0.388747643273221	0.06715350517604984
109														9.738478587686041	0.30830561093363984	0.7735159988181732	-0.047264204253023245	0.06081138282770954	0.9970296237900406	-0.3917171953141382	-0.9193210594913219	0.037502379537548675	0.9188709016459023	-0.38878112774970797	0.06727184265434827
110														9.705991498042161	0.31161685633217634	0.7635747290126907	-0.047433587966758006	0.06080048348413661	0.9970222444563089	-0.3916229785146169	-0.9193640199499248	0.037433160711524555	0.9189023329124485	-0.3886812318978242	0.06741960055095331
111														9.731410380077827	0.3053804757900601	0.7420114318051684	-0.04760287356160264	0.06075850955448392	0.9970167350377807	-0.3917568599773662	-0.919311637020548	0.037318583832655794	0.9188365083568201	-0.3888116736356026	0.06756443854076855
112														9.705879446273913	0.3083911547648119	0.7663039984259371	-0.04785119463343557	0.060690226620858156	0.997009006762157	-0.3917190486569549	-0.9193341113425461	0.03716152097670547	0.9188397303618537	-0.38876919645815666	0.06776475332970622
113														9.700800403924251	0.2322123691975054	0.6993921731592712	-0.04812313116707212	0.06052451118257415	0.9970059918540046	-0.3916689818827709	-0.9193657227137787	0.036906321001765274	0.9188468712890037	-0.3887202740340181	0.06794833093849639
114														9.722202256549927	0.2395421398744481	0.6958852082927769	-0.04837853319320484	0.060218646691757166	0.9970121524418282	-0.39147454327612574	-0.9194632024301764	0.03653903862436739	0.9189163180033438	-0.38853717192497494	0.0680563482690607
115														9.712791108874839	0.3492656831161402	0.661851305609846	-0.048704688894578685	0.05988401376204511	0.9970164282374837	-0.39100179033131893	-0.919680172817931	0.03613834090386378	0.9191003499277898	-0.38807510177970417	0.06820749329279474
116														9.7163297370992	0.32037535216370705	0.7509180450974473	-0.048991766078481935	0.05968316598744705	0.9970144063925188	-0.3908395095931136	-0.9197603037137962	0.0358533325274015	0.9191541136270491	-0.3879161035714047	0.0683872209733179
117														9.719781435315515	0.3429265998631934	0.6984211961051396	-0.04924879487900019	0.059537973769484	0.9970104241593419	-0.3906996214634067	-0.9198284223174016	0.03562975281181982	0.9191998487768139	-0.3877768729263066	0.06856190510901966
118														9.748110540916128	0.3516011708837908	0.729157278519721	-0.04950758210397188	0.05940144343900855	0.9970057511527108	-0.3905536289232486	-0.919898751235664	0.03541398607821061	0.9192479873511283	-0.38763095334664455	0.06874141225252473
119														9.73710149293373	0.36397217791242176	0.7151435210549304	-0.04980720937218441	0.05922106339788877	0.9970015584464146	-0.3902825629437967	-0.9200238620817048	0.03515130527144539	0.9193469219813474	-0.38736153506806564	0.06893676952929428
120														9.762562905536807	0.3557797733781199	0.6943904700643857	-0.05016578353934359	0.0590518139883994	0.9969936195515816	-0.39029055529707446	-0.9200317410236845	0.03485509940926235	0.9193240324324092	-0.3873686600302195	0.06920147844235153
121														9.712782299403637	0.33029494108861435	0.6716468531311541	-0.05046595163121392	0.05886478516653715	0.99698953093463	-0.39034077335994444	-0.9200214937863979	0.034561996814506835	0.9192862820572908	-0.3874214604772726	0.06940708597067458
122														9.705905497142117	0.3263419491165388	0.6390850311356244	-0.050696831181884894	0.058622695996499496	0.9969920816246322	-0.39027403641051506	-0.9200613295662299	0.03425385147198928	0.9193019133081141	-0.38736356223956214	0.06952311009382012
123														9.714759447919523	0.42239910609124515	0.6537692051162071	-0.05081361683174879	0.05839533747059583	0.9969994788896187	-0.3900902994453703	-0.9201481982293719	0.034012520839562105	0.9193734467685574	-0.3871915260655062	0.06953551265336944
124														9.721334304375075	0.46141838787775846	0.6513701536516376	-0.05085785863848796	0.058175293246992776	0.997010086945129	-0.3899830562208889	-0.9202014737908244	0.03380034753977704	0.9194164965212026	-0.38709802749280586	0.0694868551299907
125														9.771728356496542	0.43987083003214805	0.7115043320663847	-0.05093130774194127	0.05803837767104239	0.9970143171534749	-0.3901460957574162	-0.9201384883484129	0.03363311203476682	0.9193432579058496	-0.3872682648723125	0.06950730296772917
126														9.750358208326578	0.42726169105411693	0.7162102322525161	-0.05102354144756027	0.05796970291415632	0.9970135965783986	-0.39023061394660236	-0.9201065025703062	0.033527479277404404	0.9193022713759642	-0.38735453717735574	0.06956864502855908
127														9.769433986746916	0.37922483587113515	0.6956454133680349	-0.05109905650574503	0.057947922047594635	0.9970109953027547	-0.3902706518456905	-0.9200914323746276	0.03347498138530866	0.9192810803732249	-0.3873935910687899	0.06963117740398089
128														9.741575741190498	0.32586276429670413	0.702057945211344	-0.05110903465290362	0.05792400280719259	0.997011873788693	-0.3901947982629034	-0.9201243381276479	0.033454772361055984	0.919312724803383	-0.38731900583879214	0.06962831127227831
129														9.797850712172322	0.3888249776872526	0.7249125050702387	-0.051243430173025295	0.057906756947717714	0.9970059770953739	-0.38982955294007726	-0.9202806114704078	0.033414305412394346	0.9194601843030739	-0.38695013070349416	0.06973210042661132
130														9.790918348258629	0.3874296700969111	0.6919505299051654	-0.05140405971366552	0.057933879093301	0.9969961325392176	-0.38976779263432637	-0.9203079561413747	0.03338163698578808	0.9194774007390933	-0.3868810301838137	0.06988832530539263
131														9.801762550248188	0.37116072856004745	0.7094927800076836	-0.0517441166140899	0.0579661912464742	0.9969766632515549	-0.38942242896441404	-0.9204568965867199	0.03330575543956027	0.9196046532153277	-0.3865216969308723	0.07020156398824423
132														9.736432439217989	0.42008069192613406	0.6542283965530779	-0.05208606178662778	0.05800947071330753	0.996956339803866	-0.3892666225802087	-0.9205257182301274	0.03322496985559953	0.9196513136578216	-0.3863512694226202	0.07052771017814907
133														9.739935621627025	0.4445191147532988	0.6030670495323694	-0.05238193139887254	0.0581135124782782	0.9969347786742928	-0.38916056163561763	-0.920570941498821	0.03321443865888701	0.9196793955125746	-0.38622786193568603	0.07083677106005198
134														9.715549785704303	0.4169435000613862	0.5577957749487634	-0.05256188049468197	0.05819938553765561	0.9969202978382488	-0.38908359228446265	-0.920602917743347	0.033229897042494766	0.9197016945368108	-0.38613870482700396	0.07103304653922077
135														9.71143297539739	0.4326172244556957	0.5771428572980274	-0.05262434901957286	0.05829649695825165	0.9969113282196478	-0.3890091699460201	-0.9206317948764582	0.03330111049888379	0.919729603518433	-0.38605519903887703	0.07112552078458473
136														9.719538825335109	0.4012945194166777	0.5406559030895344	-0.052536529082808814	0.058343081855623535	0.9969132348963571	-0.3888685319971332	-0.9206880236921169	0.033389037906157826	0.9197940954008815	-0.38591404202165575	0.07105754172627965
137														9.722396742958082	0.4184809566813388	0.591282151008964	-0.05233458498791649	0.058459686581759096	0.9969170257643836	-0.38874033925906665	-0.9207350356696331	0.03358485854049359	0.9198597935810044	-0.3857842131751916	0.07091192437037647
138														9.726893915887281	0.3636827935460231	0.6067871322505715	-0.05200587340026891	0.058682826770195956	0.9969211177290481	-0.38840999381704977	-0.9208612844913406	0.03394365077592215	0.9200179703869457	-0.38544885596823036	0.07068319176344445
139														9.786014579778223	0.4466587588001845	0.6789859210917677	-0.05171646266449387	0.05886676486688189	0.9969253289407283	-0.38789048730016595	-0.9210683232636556	0.03426534316649346	0.92025343104577	-0.38492576930414124	0.07046825366151194
140														9.70314443983379	0.30074956583952933	0.5905299401369386	-0.05144720836741412	0.05907154610006915	0.9969271473846761	-0.3875922915173338	-0.9211820365487904	0.03458136920605795	0.920394154863851	-0.3846221626234908	0.07028792009504214
141														9.773206499634997	0.36803664471126224	0.6788799561012573	-0.051243813392475246	0.05922929331635032	0.9969282634183075	-0.38732044708716884	-0.9212871398408826	0.034826387007571485	0.9205199307224109	-0.38434606382406367	0.07015098264283931
142														9.702057858712193	0.3366457750676754	0.6569390834572086	-0.051045904909727435	0.05930476600265147	0.996933929767323	-0.3871576152837647	-0.9213495750057645	0.034984876225095024	0.9205994223981109	-0.3841847281791242	0.06999141457491026
143														9.727655506077742	0.33242773134179776	0.6321142098163265	-0.05082042859439495	0.05931955565984032	0.9969445693486676	-0.3868461665878631	-0.9214756609020465	0.03510911222761451	0.9207428128602235	-0.38387992482214417	0.06977733073704995
144														9.726113399395937	0.40651056795714796	0.6640682116154111	-0.05060602958769661	0.05935739652687988	0.9969532231990222	-0.38670478145758364	-0.9215301069434121	0.03523739483425978	0.9208140104099259	-0.38374335365503565	0.0695887689097498
145														9.791005330723774	0.39843860047146057	0.6844273008678546	-0.05046976774028067	0.05944191076043112	0.9969550951719899	-0.38666221293574965	-0.9215428422348994	0.03537121729955878	0.9208393647275681	-0.38369968617497274	0.06949399396607114
146														9.773131950475896	0.4138565054196716	0.6340902911977905	-0.05040701977446538	0.059589633724215774	0.9969494510305281	-0.3867976027302664	-0.921480234305979	0.03552171597090639	0.9207859397707898	-0.3838271138624948	0.06949819986454175
147														9.752163796889409	0.363091195530647	0.6746459111307447	-0.05036582666309142	0.059782851615673094	0.9969399651720469	-0.3870026509213788	-0.9213872197639394	0.03570069236728807	0.9207020319758011	-0.384020314447526	0.06954255105512319
148														9.75375062596489	0.2914339453166427	0.6410114372455689	-0.05035414700566743	0.06009457115912736	0.9969218135824555	-0.3871551572167473	-0.9213122150872559	0.035981753313168	0.9206385523753647	-0.3841515909744675	0.06965781386160574
149														9.700991277238076	0.2549070041848545	0.5651712778616051	-0.050343429634220116	0.06035921926183019	0.9969063665875382	-0.38708192598638924	-0.9213330201836931	0.036236011009250085	0.9206699309021298	-0.3840601913363286	0.0697470269142052
150														9.68184164309426	0.3035694135033348	0.5859512691749614	-0.05023790693335145	0.06057199789879361	0.9968987841187812	-0.3870653867351199	-0.9213305543878456	0.03647459311598658	0.9206826484183069	-0.3840326061963141	0.0697310424382051
151														9.703263040529851	0.3159094340982189	0.5805815469091259	-0.050078050995258305	0.06072868563339617	0.9968972943838079	-0.3872959622086588	-0.9212261499581021	0.03666358261601904	0.9205943875917264	-0.3842582560916716	0.0696531848518207
152														9.707380569031793	0.30114209149019544	0.5608414716360898	-0.04985941797464566	0.06077912079159545	0.9969051795005535	-0.38731411211101174	-0.9212133535160953	0.03679314967882899	0.9205986188339024	-0.3842809594286851	0.06947177284106876
153														9.720824807305773	0.3442583478334078	0.5898984232396197	-0.04950022243683727	0.06078296584345852	0.9969228450797865	-0.3875280772921871	-0.9211183220400689	0.03691918352710291	0.9205279557346011	-0.38450808556564864	0.06915066771706191
154														9.671240291547587	0.32260300735284353	0.5616558156967806	-0.04910442951538646	0.060723689489985716	0.9969460309047286	-0.3876025407514506	-0.921083281487806	0.03701160583756263	0.920517802872377	-0.38460138078064515	0.06876592540373944
155														9.714923797284182	0.30325627055926385	0.5837857754767952	-0.04861261234523662	0.06060116051420095	0.9969775891489758	-0.38790483789769625	-0.9209538320993664	0.03706583166548763	0.9204165636582895	-0.38493056320046126	0.06827745497338
156														9.700805035431	0.2933526069105345	0.6169554726878881	-0.04808467807147987	0.06049028784082519	0.9970099241289909	-0.3879662681122622	-0.9209240455072976	0.03716284722027341	0.9204184040651331	-0.3850192559904078	0.06775052748714472
157														9.76602535593282	0.28494707389802454	0.6331973478187689	-0.047524205176731726	0.06033562556459554	0.9970461685448924	-0.3878373591787584	-0.9209749841604027	0.03724595784771445	0.9205018374493164	-0.3849216684449914	0.06716901379324725
158														9.749708991963605	0.3895671460135904	0.6639100614809739	-0.04696198126228529	0.060183497510695405	0.9970820021158243	-0.3878287653975356	-0.9209754749448931	0.03732322708785618	0.9205343128021594	-0.3849443091895352	0.06659172453426504
159														9.743728869029878	0.34802717209197076	0.6603008039862246	-0.04644838407521512	0.06005843288793822	0.9971136004768194	-0.3880013134827794	-0.9208999356486762	0.037393706126861104	0.9204876579033742	-0.3851445094523731	0.06607706475208797
160														9.748076496013962	0.33235578022029044	0.6367320758138086	-0.045947317218998474	0.0599252920732562	0.9971448256949997	-0.38811428072338494	-0.9208497861672307	0.037456326759770175	0.9204651808400717	-0.3852851290741703	0.06556843886622332
161														9.715089188849564	0.368958484562529	0.6906581963462076	-0.045470132359941684	0.05977310305497868	0.9971758336493858	-0.3883028916396706	-0.920769024313697	0.03748690716333017	0.9204093281836289	-0.38550172504877434	0.06507755816700245
162														9.719421297927322	0.3532522958837724	0.667297923521226	-0.04495998668367707	0.059685868426855776	0.9972041900772052	-0.3886293513583018	-0.9206274570557464	0.03758074743661413	0.9202965972229976	-0.38585318765717225	0.06458707854183976
163														9.711841472311242	0.3848797288211364	0.6986876367703124	-0.044481629927178135	0.05954790002789906	0.9972338904195389	-0.38914672408013834	-0.9204079962047047	0.03760249539773919	0.920101196465214	-0.38639768131383456	0.06411411809090167
164														9.748608625531649	0.36476676884860343	0.6865870540912239	-0.04400700714107664	0.05948478964945436	0.9972587142376074	-0.3894603376595375	-0.9202710819797029	0.03770651219652282	0.9199913199115547	-0.38673336482939724	0.0636653423388901
165														9.740964983488503	0.3971950981532022	0.7190166913862527	-0.04363215062296072	0.059549942342361495	0.9972712969894587	-0.38979756489244727	-0.9201208048726226	0.03788882215740813	0.9198663456371986	-0.3870807523083249	0.06335927206406028
166														9.719731685321221	0.3879726123689261	0.7208413305725347	-0.04330010705758491	0.05970764545064272	0.9972763397391627	-0.39011689183126896	-0.9199750269139234	0.03814132355642216	0.9197466561160804	-0.38740282256259573	0.06312797821744565
167														9.73007815168996	0.416016571921321	0.6983947261160277	-0.04302821622299596	0.05993212317525132	0.9972746428243197	-0.39058297354009247	-0.9197655575498831	0.03842212807137371	0.9195615875998994	-0.3878652597960536	0.06298433816508159
168														9.723811959247783	0.37620078100475224	0.698581201037354	-0.04275782536721745	0.06009200425247918	0.9972766513835499	-0.3909407676753428	-0.9196039736655939	0.0386503271378576	0.9194221470789575	-0.3882234957384339	0.06281268038660687
169														9.700189431700778	0.3090492169169613	0.6847996750042541	-0.04245241928668897	0.06012164448282967	0.9972879122707682	-0.3911770258272109	-0.9194980192685294	0.038780498014189646	0.9193358072878944	-0.3884697934536625	0.06255312152390191
170														9.732869252723116	0.3053199186695528	0.69275043963102	-0.042134355957926806	0.06013459005929389	0.9973006202376552	-0.3914339907944309	-0.9193836539117549	0.038898943052687734	0.9192410602767679	-0.3887383798884174	0.062276360707513745
171														9.786279594972488	0.34471106390397094	0.7658858222344298	-0.0417704094774054	0.060184275763296186	0.9973129327562831	-0.3915488609048615	-0.9193271072240657	0.039078887485923114	0.9192087480089581	-0.38886440165420066	0.06196575433193041
172														9.776286617266503	0.3198578150027764	0.7827002752871085	-0.04137853000325181	0.0602245578793186	0.9973268370414043	-0.39178584304038533	-0.9192187221954489	0.03925294840520968	0.9191254922195913	-0.3891143063337663	0.0616310486563984
173														9.777130115837066	0.2889479500967667	0.7091456204787638	-0.0410387238958807	0.06027625063414449	0.9973377545999585	-0.3919867180827502	-0.9191259402876486	0.03941977596410268	0.9190550777770133	-0.38932541594382886	0.06134724535341818
174														9.76946880752235	0.3217627883662239	0.7426556311883634	-0.04069844172531023	0.060375240087856386	0.9973457109876519	-0.3920987699077201	-0.919068827965394	0.03963639866548713	0.9190224107593808	-0.3894448867897104	0.0610777265078305
175														9.73413581090007	0.3021141997241497	0.7835523006394194	-0.040457100389803324	0.06050162879960483	0.9973478710764082	-0.3923034012670985	-0.9189729755825091	0.039833547460586455	0.9189457352761995	-0.38965141224127975	0.06091397668894227
176														9.698756836435345	0.28241117726967796	0.8253348170963827	-0.0402843888129093	0.0606641487958367	0.9973449899953613	-0.39242306050447906	-0.9189127877545291	0.04004285311385514	0.918902230709159	-0.3897680714887719	0.0608238509604192
177														9.62984037633979	0.30830212083129677	0.8210497675191852	-0.04014938846002131	0.06082403729043945	0.997340695597035	-0.392506719564256	-0.918868558177558	0.040237394170130614	0.9188724077385244	-0.3898474179475698	0.060765854033494826
178														9.629864304386393	0.3092995365119123	0.8203936053393348	-0.04009538855748418	0.060929098210504795	0.997336455168304	-0.39251825908210036	-0.9188584917878878	0.040354533282456445	0.9188698363226323	-0.38985473840976004	0.06075777181460895
179														9.557959584150359	0.3084832531125783	0.8713370304175313	-0.04019525645427702	0.06099942594328303	0.9973281362686832	-0.39232365361446586	-0.9189399010224429	0.040393181645665494	0.9189485797220494	-0.3896518039781839	0.06086854264211883
180														9.620189577234898	0.2517015996288561	0.7712107898871653	-0.040241262379468234	0.06113990466257685	0.997317679007024	-0.39237470748283965	-0.9189133457590855	0.04050125817303543	0.9189247682644441	-0.38969241081100603	0.06096798525819369
181														9.715368981777234	0.18125862103090387	0.787871301340686	-0.04032981210901543	0.061209245324514716	0.9973098488143264	-0.3924557537551775	-0.9188776809989047	0.04052516140042578	0.9188862756618508	-0.3897656162989219	0.06108008473647164
182														9.852644434145768	0.1637604423034364	0.8655296129196304	-0.04047935293073912	0.06123242054905198	0.9973023677200474	-0.39252592428647887	-0.9188495488492083	0.04048339588833491	0.9188497269681013	-0.38982829201240665	0.06122974765043254
183														9.789404573603868	-0.0736661236342032	0.7947660201337781	-0.04044269989678678	0.06116290487852222	0.9973081204381521	-0.39242304905078734	-0.9188953773930291	0.04044052397542047	0.9188952816282941	-0.3897311694906427	0.061164343605683846
184														9.989119500121156	0.18612507874582468	0.9054985828465357	-0.04038612358627813	0.06100436212371094	0.9973201235428638	-0.3918689090039411	-0.9191356616117329	0.0403533605740945	0.9191342226126361	-0.3891890329331507	0.061026039252306874
185														9.989641525481057	0.17466034298049546	1.010769710496267	-0.04057446221750599	0.060713273210460494	0.9973302419318447	-0.39138198176147004	-0.9193566374523183	0.04004394492093291	0.9193333766203772	-0.3887123250276975	0.06106448233905798
186														9.924533977128075	0.17898428257709587	0.9907308193959888	-0.041079215000831226	0.06035233967742559	0.9973314861120025	-0.391012180145045	-0.9195358223373934	0.03953917571867041	0.9194683099885138	-0.388344520411649	0.06137230966088847
187														9.845067786407558	0.17159638298964497	1.0118853638700853	-0.041886302483646165	0.05999257429803326	0.9973196221339193	-0.39068043726615176	-0.9197034184187922	0.03891552500373835	0.9195729082578374	-0.3880032386177763	0.06196090073861066
188														9.786570490002896	0.35459734701699036	0.9398582626733089	-0.043093746843788694	0.05959584325291736	0.997291965499541	-0.390327976951203	-0.9198870368235024	0.03810393540381751	0.9196667871529042	-0.38762891397708055	0.06290330402136718
189														9.56466689540268	0.24695265421202936	0.8569119559264617	-0.044409366794118554	0.05921158635524035	0.997257136440869	-0.3898480151877569	-0.9201246493075254	0.037271366903704806	0.9198077696970778	-0.387123517469554	0.06394567246411653
190														9.506568022080506	0.429483339468194	0.7876116806500028	-0.0458297387626484	0.05892915978866581	0.9972096014236674	-0.38897273988607106	-0.9205250743952155	0.03652115873307368	0.920108603736793	-0.38621359574241476	0.06510926042618159
191														9.439207550179916	0.5542438717859748	0.6690258247358466	-0.04731567031031042	0.05868746348014725	0.9971544559261384	-0.38805754940129134	-0.9209400296429717	0.035788268383190686	0.9204197768929953	-0.3852599686334791	0.06634900807683802
192														9.399297932105965	0.5511467235785628	0.6357311577506544	-0.04877737534129095	0.05856612886236301	0.9970911574198682	-0.3874199570079493	-0.9212327033959753	0.035157973572186085	0.920612048892895	-0.38457809966744194	0.0676250004761963
193														9.351147824923023	0.41707673019966446	0.5187911380205154	-0.05020842200459985	0.058504149413569795	0.9970237604296115	-0.3868382483178503	-0.9214985457339432	0.03459190437957266	0.9207797152403965	-0.38395012008283447	0.068898630539306
194														9.382033007607953	0.3257706958137935	0.3483971637959351	-0.051383153649044444	0.058478235870543266	0.9969654294159594	-0.38607358960226357	-0.9218347841911823	0.034173294643918245	0.9210358054563906	-0.3831460903945989	0.06994368079127766
195														9.425168265991358	0.30193010787710656	0.3834522269472626	-0.05224771808323292	0.05845182470951457	0.996922043162465	-0.38526494668320355	-0.9221839161691681	0.03387839453229349	0.9213257278575715	-0.38230904899966145	0.07070144440314552
196														9.465043731012745	0.30332243735495373	0.32801485913256934	-0.05284561849918351	0.05840274713191801	0.9968934043983256	-0.38431959157051704	-0.9225856824341805	0.0336765512267545	0.9216863849165341	-0.3813460078392096	0.07119993093106042
197														9.580977436033306	0.2401567624091655	0.34402874322127625	-0.05312651438373317	0.05828258872492001	0.9968855066259905	-0.3836450689296337	-0.9228724389383262	0.03351003631754165	0.9219512105070489	-0.38066993747805744	0.07138882367037735
198														9.63774026351689	0.0559806181503107	0.32003065860581986	-0.0532194463006197	0.058133081771674144	0.9968892793781982	-0.38301507022800263	-0.9231386162681356	0.03338489378132059	0.9222077566978569	-0.38004689178873663	0.07139477241385839
199														9.709720439782032	0.005208503305096168	0.4111379807527162	-0.05307434255426757	0.0579301933541089	0.9969088257510754	-0.38227195520544144	-0.9234493024214021	0.03330973012251895	0.9225243988241403	-0.3793223939545115	0.07115655288711742
200														9.788439493664667	-0.00396075675965869	0.49826060980851306	-0.05288344044919474	0.05761533106922126	0.996937217357262	-0.38154125400002525	-0.9237573031667328	0.03314689038527366	0.9228378043959539	-0.3786197544660199	0.07083408999730395
201														9.749540437140682	-0.044573716187758156	0.48662782093561596	-0.05281097597962786	0.05709797675108119	0.9969708229767875	-0.3809198224457571	-0.9240281450158161	0.032742572997916886	0.9230986348619377	-0.3780367816358139	0.07054857933696418
202														9.792896657234417	-0.06981687057683406	0.5109156418292775	-0.05285087352988377	0.056411188944716334	0.9970078048485742	-0.38040022826487196	-0.9242636525224768	0.032130467812414715	0.9233105931934078	-0.3775638732554465	0.07030697055899676
203														9.778171421086313	-0.046315645091812484	0.510963975523094	-0.053012042553357064	0.055569037304665475	0.997046541259411	-0.3800573757281043	-0.9244326803667733	0.03131470300944983	0.9234425344865744	-0.377274835581352	0.07012548707906557
204														9.724113710318232	-0.020825441605558867	0.4668370450914654	-0.05331755085367307	0.05463619280221152	0.9970818046715353	-0.3797873218782898	-0.9245756819675527	0.03035454586633421	0.9235360463519995	-0.37706059824690596	0.07004624428335215
205														9.73094319524923	0.009489348485816418	0.46342172314265867	-0.05373826175011892	0.05345039437236246	0.9971234901282361	-0.379653880354077	-0.9246706353665723	0.029105793630674698	0.9235665273038905	-0.3769977074628148	0.06998284226590085
206														9.716322508877111	0.027632945553144318	0.46464387521019984	-0.05416454080587707	0.052182589402659796	0.9971675786358687	-0.37919577911972874	-0.9248986606386052	0.02780339271916049	0.923729810938821	-0.37661577889428294	0.06988412889048723
207														9.704100560976118	0.2577978366062271	0.44162515983295547	-0.054658457615762934	0.050808937577264346	0.9972115647510992	-0.37886506602295467	-0.9250762225565249	0.026367483914348677	0.9238364112539018	-0.37636741931631235	0.06981297099172223
208														9.711499328107465	0.20349097107218322	0.5105011150721843	-0.05509879342916407	0.04940889831795023	0.9972576817100266	-0.37861544695390503	-0.9252185046720818	0.024921114346102835	0.9239125858491944	-0.3762040395574764	0.06968539538591795
209														9.739788860946318	0.5108757594432114	0.45845884502621453	-0.05539171416582239	0.048053179176001354	0.9973077007487965	-0.3785789371742141	-0.9252692208255637	0.02355540958881283	0.9239100315127087	-0.3762549148701362	0.06944416970669548
210														9.736878216284422	0.5134665158946112	0.473586382848445	-0.05561524691303915	0.04675369788554162	0.9973570253649541	-0.3787456091070612	-0.9252332537472978	0.022252859194046293	0.9238282891819903	-0.37650699581045816	0.0691648336429776
211														9.784491044840069	0.4646633157103267	0.47902785486480465	-0.055692618240691494	0.04552553444341775	0.9974095237098645	-0.3791074729308671	-0.9251130271493275	0.021057325722426745	0.9236751897942638	-0.37695266640819736	0.06878103696718918
212														9.71687699283991	0.4793835149966962	0.4701543036033636	-0.05554249231063524	0.04441196949596821	0.9974680989953576	-0.3795044991577764	-0.9249725685216366	0.0200519974439414	0.9235211782449434	-0.37742989342124944	0.06822982401483935
213														9.803763214065805	0.4297776992156936	0.5173098346364313	-0.05513485914138344	0.04342068828650958	0.9975343558675989	-0.3800603791158963	-0.9247614148621142	0.0192466570734251	0.923316985403031	-0.37806212374548526	0.06748907359945316
214														9.761068255088702	0.434846279024596	0.5885030419981795	-0.054523916336970735	0.042541493309653344	0.9976058158883518	-0.38050740323194693	-0.924590174487323	0.018631299664342682	0.9231691386918	-0.37858054702861677	0.0665996304685974
215														9.840848883531745	0.4204786600485357	0.6685902770268877	-0.05377936615976542	0.04171834354778317	0.9976809908919201	-0.38089296606284306	-0.9244414900247359	0.018124015137282123	0.9230538056794436	-0.37903497375898665	0.0656061009984632
216														9.902904280708867	0.4212519875966776	0.6983940987982105	-0.05298321906807146	0.04095436773840391	0.9977552396556644	-0.38145174871712373	-0.9242196610071667	0.01767997761440976	0.9228690816675098	-0.37965873883126317	0.06459024795757984
217														9.925158626555591	0.344896415878715	0.7561065999273628	-0.05222947990683269	0.040198513719285844	0.9978257167077935	-0.3820280285506936	-0.923990153288083	0.017227362779460853	0.9226736513146627	-0.38029761519292377	0.06361648409211806
218														9.92262806092225	0.3971745412219188	0.728474523643867	-0.051525981495077144	0.039558290799638574	0.9978878768979907	-0.3824612973318473	-0.9238174268835841	0.016873583775636913	0.9225337008880535	-0.3807840640247493	0.06273011486189362
219														9.862244476624749	0.37916181132135046	0.7866201603934326	-0.050991692186887594	0.03895248569037793	0.9979391520460849	-0.38267752836887126	-0.9237345832700312	0.016502392324565462	0.9224737159450179	-0.38104740325776143	0.06200903048030604
220														9.953052415111598	0.4409992613906963	0.7059695744427108	-0.050534250442947626	0.038483115153429864	0.9979806307640735	-0.3830182616347032	-0.9235983530787659	0.016220155502401273	0.9223574690902114	-0.38142513293997793	0.06141308635153114
221														9.892526003172714	0.4239669118962911	0.7666670678723395	-0.05011237881184927	0.038073158967452225	0.9980176271269244	-0.3833556254087597	-0.9234625631684464	0.015979952872954395	0.9222403233199449	-0.3817948781644435	0.06087246545131331
222														9.896583051008374	0.4462848733978968	0.7071004543273087	-0.049697924133812466	0.03776354513746394	0.998050114470932	-0.3836772416906002	-0.9233315482403057	0.01583117913651369	0.9221289988637611	-0.3821423382495197	0.06037667406960301
223														9.87194390502917	0.4501217645791418	0.7251670437820033	-0.0492976712741478	0.037476408280741474	0.9980807875264013	-0.38405352422884487	-0.9231774323451101	0.015694551159372988	0.92199383410864	-0.3825427390907652	0.05990344426311883
224														9.81884359143719	0.5175239660664777	0.7481384038867731	-0.048789994116756885	0.03732991787895615	0.9981112231135553	-0.3845716257367955	-0.9229612831072026	0.015720514090334814	0.9218048606685935	-0.3830782519489415	0.05938730278012605
225														9.782309056210924	0.39159126776881953	0.6825319855674425	-0.04817406711158784	0.03725336132364923	0.9981440007974887	-0.38532030641475734	-0.9226469523140663	0.015838650510754365	0.9215245632767284	-0.3838421400206783	0.05880213280128793
226														9.782690750989817	0.35157528010846817	0.7125944698882771	-0.04748116706047656	0.03722522375735632	0.9981782513613433	-0.3860389692247432	-0.9223431157767433	0.016034058099747645	0.9212597098617046	-0.3845743874667982	0.05816431457572635
227														9.75696453893869	0.21189923658756707	0.6611371420298902	-0.046685945952623986	0.0372308856689863	0.9982155496699153	-0.38680330503740085	-0.9220182030104092	0.016298359721116484	0.9209797096910722	-0.38535216941099265	0.05744632161931296
228														9.768341139804663	0.1582770594216703	0.7050411568414366	-0.045756528441218414	0.03730283643665061	0.9982558983040313	-0.3870452108090249	-0.9219093283836011	0.016709130111861675	0.9209247227079993	-0.3856056128132449	0.056621254596806836
229														9.845147732146007	0.2510169346773904	0.7307485155914107	-0.044723571251365946	0.037400794685878785	0.9982990447412983	-0.3869955652545981	-0.9219211045677507	0.01720201807499533	0.9209963271630337	-0.38556796743173977	0.055705545888706576
230														9.896388668270879	0.27623418124762067	0.7455055766976809	-0.04377730731586621	0.037503048777750875	0.9983371518162316	-0.38714411850074315	-0.921850198373962	0.017653420863080332	0.9209793585496118	-0.3857275373761382	0.0548752041935619
231														9.864605212687238	0.24387586563413846	0.7632683687127996	-0.042976034977591726	0.03761024544718869	0.9983679331063309	-0.38774517170804357	-0.9215903169879752	0.0180269090834633	0.9207642164173762	-0.38633762057481	0.054189488776786976
232														9.864180916704306	0.21460990953186124	0.6870542540579863	-0.04232046226083974	0.037812516984465694	0.9983882972237448	-0.3883066282482606	-0.9213458203147433	0.018434799890967246	0.9205579508822332	-0.38690062412440274	0.05367463199363043
233														9.839234301845169	0.1093576354152297	0.7075110811513741	-0.041774434442418074	0.038091337730621316	0.9984006944192836	-0.38882156803375834	-0.9211197304504648	0.018874067040051068	0.9203655169870204	-0.3874112700538726	0.05328998945824431
234														9.80359340958012	0.13413238459229243	0.7114725842759001	-0.041300123839048686	0.03840370351146838	0.9984084611658107	-0.38926790492625535	-0.9209219330740799	0.019320749918765256	0.9201982384058355	-0.3878504205743535	0.05298351908937404
235														9.782185335513658	0.12730665326303145	0.7137521617309558	-0.04093154227830753	0.03869970312607482	0.9984122103743887	-0.3897189342613956	-0.9207228794712611	0.019711202305073644	0.9200237829126381	-0.38829333267016475	0.05276861452620929
236														9.78916212456742	0.21297143386054376	0.6733642818431987	-0.040608491558198845	0.038977978782668704	0.9984145770086621	-0.39020930465791737	-0.9205075085712486	0.020065523226101556	0.9198302283420308	-0.38877582722434073	0.052589991388830415
237														9.814221436553057	0.32377447666981624	0.6472050393507209	-0.04051644875030064	0.039168084355063276	0.9984108766177476	-0.39104125663981804	-0.9201508135069638	0.020229088165926667	0.9194809149657303	-0.38960023302152624	0.0525975802043806
238														9.75951488752411	0.13075416381591262	0.6100930091306632	-0.04066193291614573	0.03929883616660362	0.9983998240622209	-0.3922657315996858	-0.9196296256124232	0.02022245060615127	0.9189527751871076	-0.39081575348481723	0.0528095048642615
239														9.707848255420075	0.07629179688631331	0.5183974630460851	-0.0409444099643696	0.0393803726572689	0.9983850667663481	-0.3935260995086188	-0.9190933765735918	0.020114028539486434	0.9184012000744572	-0.39206702410165695	0.05312894045497679
240														9.714463039307102	0.04338250032943026	0.48456057750497	-0.041223690807738134	0.039519165258202454	0.9983680898814238	-0.39443684577385507	-0.9187036559212443	0.020079026194323196	0.9179979204835707	-0.39296542872654217	0.05346017034769712
241														9.735900777377593	0.053545431143468464	0.48196065084150613	-0.04137797266959764	0.03972652090420792	0.9983534779398536	-0.39485162738076646	-0.9185231439936407	0.020184803759223963	0.917812647402788	-0.39336628920750893	0.05369270697776429
242														9.779808311389747	0.22180821231898937	0.5428287049069381	-0.0414607730992847	0.04002210408818083	0.9983382370110663	-0.3951255520828896	-0.9184004087782915	0.02040801918507354	0.917691016838021	-0.3936228148116181	0.05389134693600833
243														9.79146913002655	0.35493372857233474	0.6289473641046405	-0.04148798966446032	0.040414126900708225	0.9983213135361054	-0.3956749272048009	-0.9181567426516908	0.020725537501167623	0.9174530498587256	-0.3941508521747609	0.05408333416897115
244														9.816177402517297	0.3521754901600648	0.6079689195845918	-0.041582962657002065	0.04089701064334236	0.9982976969507164	-0.3965581249459855	-0.9177675613922704	0.02107977218588461	0.9170673425414243	-0.39500650346104815	0.05438153608980251
245														9.804935229956671	0.2561224939817747	0.5966410041858059	-0.04170050626728988	0.04143330762712197	0.9982706791227159	-0.3977412618089491	-0.9172467189520226	0.021455657211435164	0.9165494838969018	-0.3961587277731312	0.054729388608839746
246														9.743441501631178	0.21227204895679944	0.5962676106738197	-0.041830458246490454	0.04197718822423957	0.9982425198475944	-0.39903261098636056	-0.9166769300124982	0.02182616210580382	0.9159820894167614	-0.3974183207297416	0.05509528306539313
247														9.761651951689108	0.19995017454302338	0.6487390671370405	-0.04199508003115454	0.04252764339938414	0.9982123084795498	-0.40024303271811296	-0.9161402719211751	0.02219272233871003	0.9154462999072008	-0.3985955364916802	0.055494777007617346
248														9.77597845581265	0.24467965602147343	0.6845172803231891	-0.04220376375002116	0.04311672426192936	0.9981782357947164	-0.40163990119368814	-0.9155196494825648	0.02256460016143841	0.9148247001991454	-0.39995589694395295	0.055955771867621185
249														9.819015461963989	0.22653970035562215	0.7153876058384675	-0.04258557120303724	0.04371746136002458	0.9981358888936642	-0.40324030231756275	-0.9148084601299189	0.02286350501490253	0.9141026899162648	-0.40151496217072735	0.056586283151376204
250														9.768301478475161	0.16556929706019524	0.7333576516001279	-0.04315334549850092	0.04429166915452118	0.9980861870679274	-0.4049755303436088	-0.9140368766377491	0.023052287722071046	0.9133086053438892	-0.40320569959986274	0.057380791341575366
251														9.814504956490207	0.05681501262532918	0.7134120936143764	-0.04389915123091004	0.044815905665299915	0.9980302596217235	-0.40660960636449583	-0.9133092533082684	0.02312651797403545	0.9125467070420646	-0.40479345649465803	0.058316078793005155
252														9.784640761780409	0.16058420797971407	0.6935628628238645	-0.04473394152003424	0.04530915888938353	0.9979709187129746	-0.4080922049340619	-0.9126473410620735	0.023142668912274483	0.9118440802835415	-0.4062288898799101	0.059316627338361794
253														9.755025319441097	0.14922437698837285	0.6742865863624034	-0.04566209941301452	0.04575218349981022	0.9979086683570778	-0.40955559138372666	-0.9119933468917922	0.02307277164611307	0.9111416960295048	-0.40764552362329143	0.060381593440142434
254														9.768560102013195	0.1586128581305152	0.6457569231271069	-0.04655542005986696	0.04619303139518208	0.9978470808263021	-0.4108149177217969	-0.9114279611016061	0.023025531468398225	0.9105293494667167	-0.40885850311897964	0.0614086979753255
255														9.77524714954462	0.23015403629782005	0.7245208031757592	-0.047359799147313864	0.046624918415979405	0.9977891392510894	-0.41200114177942804	-0.9108927766956942	0.023008879504577057	0.9099517067389753	-0.4100005687146199	0.062349218571803255
256														9.738424347294902	0.29211743221800385	0.7058637702514351	-0.04804204711475246	0.04705796848515717	0.9977361922427561	-0.4132008361908832	-0.9103484025103997	0.0230402911856252	0.909371778031504	-0.41115852617793724	0.06317939277175544
257														9.75611007174364	0.2032959252607769	0.7264163699198376	-0.04863885524806172	0.047469840130470564	0.9976877648032709	-0.4143067638184663	-0.9098443042610145	0.023092151438554726	0.908836710974215	-0.41222561332573593	0.06392086125666013
258														9.780816553470592	0.25981816872954105	0.8518957132396054	-0.049156397546641806	0.047948946934753794	0.9976394875244691	-0.4152324765425207	-0.9094182016413958	0.02324919240953044	0.9083862829240664	-0.4131094685566751	0.06461368263936018
259														9.762115190795198	0.3078836760611807	0.8802478885953077	-0.049591287079700896	0.04853578697536978	0.9975895857658404	-0.4160203969291729	-0.9090503597331334	0.023547246292403345	0.908002055936369	-0.413849877191891	0.0652728547221943
260														9.793881306457152	0.3051106846521776	0.8972230466607	-0.050011709046427155	0.049186457506453785	0.9975367268207327	-0.4168779603302826	-0.9086481162979918	0.023903283016655757	0.9075855855780868	-0.41465563199609	0.06594779529904182
261														9.750584342397026	0.14219050303118674	0.8402693880979937	-0.05045597548636366	0.04987914927345985	0.9974799571948678	-0.4173966766451932	-0.9083991280058772	0.02431128469887528	0.9073225495176824	-0.415118169568519	0.06665355527513034
262														9.768415241234427	0.015555065564022218	0.8940877946102632	-0.05082782701982963	0.050649470650719425	0.9974222591877745	-0.41750015317519507	-0.9083369907055372	0.024850219610644902	0.9072541838421749	-0.4151608633274704	0.0673149571942116
263														9.771806092423335	-0.02489297005102497	0.810592489022305	-0.05115237716925913	0.051449171497673085	0.9973647362234821	-0.41693611566093486	-0.9085784308461309	0.02548549506588904	0.907495294625545	-0.4145337353622561	0.0679269643007081
264														9.753672809442097	-0.08684882553096686	0.8364313749869625	-0.05134024747709626	0.052135433895004135	0.9973194450734277	-0.4153466664115855	-0.9092871988285327	0.02615218437039535	0.9082132600274966	-0.4128906472410579	0.06833730848582403
265														9.742612161843477	-0.06442488575001809	0.8244005298311078	-0.051316338731954014	0.05270034791993691	0.9972909839702077	-0.4125838812786201	-0.910522770651744	0.026885405590044764	0.9094730200991213	-0.41008652435039766	0.06846800901146338
266														9.770626014937276	0.06837527141042606	0.8545801392516864	-0.050966483707021115	0.053159918773043796	0.9972845334078858	-0.40862545169567055	-0.9122803329403637	0.027745889005897584	0.9112780353794611	-0.4061017325329477	0.06821821654578103
267														9.718154093822552	0.43034741070270505	0.8970463742790701	-0.05040493549906233	0.05335878624129248	0.9973024528237117	-0.40383914194901166	-0.9143855954512227	0.02851193190927448	0.9134403592502477	-0.40131262472313173	0.06763791341111491
268														9.745150969712453	0.7508583183034951	0.9522523837579958	-0.04976133551253392	0.05338946524945354	0.9973331311494605	-0.3988199328647762	-0.9165653020433537	0.029166903159430713	0.9156781479525135	-0.39630494835486674	0.06690229646059964
269														9.758913173331662	0.9143057020938453	0.9727036298274007	-0.04917383089006949	0.05331786541093719	0.9973661010800478	-0.39382287769919955	-0.9187065331571043	0.029695907717662784	0.9178700754226147	-0.3913253265027397	0.06617411488798336
270														9.80554571624418	0.9998564601978662	0.9685918503523898	-0.04853199568501826	0.053433180572562106	0.9973913678234484	-0.38930349068409986	-0.9206085236706558	0.03037660754775423	0.919830113410082	-0.38681370368542434	0.0654806926136276
271														9.765086235192404	1.1283031903755159	0.9108239621581907	-0.047651656978210166	0.053984431348661044	0.9974041311119545	-0.3850533062408269	-0.9223557049192679	0.031526258196755946	0.9216633175624594	-0.38255147990151894	0.06473866143904106
272														9.735306803162317	1.1965414007462956	1.0110367395765196	-0.04677592386911078	0.054936232490833736	0.9973936150316504	-0.38115570133576	-0.9239212166441623	0.033013887593188324	0.9233267808774074	-0.3786180077525154	0.0641565267145916
273														9.859679649155256	1.252249289590028	1.02752528180357	-0.04596745177570233	0.05634846267158905	0.9973524172186066	-0.3777322374937834	-0.9252581979310484	0.0348657987048864	0.9247731344147001	-0.3751294682052293	0.06381639247774301
274														9.89790814988851	1.1965743439249221	1.0346277597003717	-0.04531522242395253	0.05844495210419262	0.9972616097043976	-0.37520289939298057	-0.9261947096804961	0.03723095549354791	0.9258343884862825	-0.3724883183851545	0.06389943476143672
275														9.964197816923207	0.8772874108313455	0.9633183631705441	-0.044949492397413415	0.06118295243044894	0.9971139300326264	-0.3734168811325087	-0.9267993496248402	0.04003496497118428	0.9265739992134927	-0.3705396225329587	0.06450590759494623
276														9.946378120760517	0.4850607150224263	0.8491280990893652	-0.04483921918141587	0.06433897546469663	0.9969202278313719	-0.3722864280458431	-0.9271170993427188	0.043089437211584036	0.9270341201466473	-0.36920777394645543	0.0655237341841477
277														9.893561351962463	0.1542836231853497	0.7099149884718693	-0.045028071397127334	0.06763550610030092	0.9966934890430519	-0.37113350907467935	-0.9274310691513745	0.0461685002426335	0.9274871380392133	-0.3678274735352095	0.06686223511470873
278														9.808708932611346	-0.09994317999809202	0.5957709106770083	-0.04555000046051011	0.07082023515705371	0.9964485394391158	-0.37001779585602507	-0.9277303954776497	0.04902187324789525	0.9279073381582326	-0.3664707458982004	0.0684628672560546
279														9.747266871649272	-0.2089062629801388	0.41996225912533247	-0.04640064982932329	0.07371003608577142	0.9961996839367349	-0.368632678208614	-0.9281471942956743	0.05150470151172684	0.9284163550111344	-0.36484190590076393	0.07023856096573405
280														9.715794327567181	-0.2181542724464543	0.3579282535086331	-0.04745364217538056	0.07618343927232041	0.995963972955313	-0.36720476891719167	-0.928598242853276	0.053534671515571564	0.9289288506278416	-0.3631823053928274	0.07204029095435577
281														9.64945259046963	-0.24703530259163306	0.23260357937702958	-0.04856347114547255	0.07805667985840747	0.9957654061071738	-0.3657442610842206	-0.9290893066957382	0.05499268740105187	0.9294475373867318	-0.3615248468820842	0.0736685844347863
282														9.600727717201293	-0.16209200829831816	0.20086220504887187	-0.049553798208083255	0.07933812762379228	0.995615328622608	-0.3640513916006774	-0.9296958840179015	0.05596559223114947	0.9300596783845451	-0.3596818382200079	0.07495311799994242
283														9.59632970686758	-0.002173799987770884	0.1698324395104109	-0.0504298546716746	0.08007590779326582	0.9955122695119728	-0.3622243443442901	-0.9303777167362054	0.056487419529263866	0.9307257136891317	-0.35775012675303175	0.07592425624296084
284														9.52794036137059	0.12179872939084894	0.15007755212333113	-0.051134986716292186	0.08050386402016418	0.9954417818292279	-0.36072210594409426	-0.9309447403067541	0.056757843320977275	0.9312705167762926	-0.35617554432191706	0.07664337029517848
285														9.497088484256505	0.18423551832481821	0.1591206130518504	-0.051723155297416945	0.0807803453134546	0.9953889948241935	-0.3593038017788044	-0.9314829438257558	0.05692366282137559	0.9317861842898171	-0.3547027786369076	0.07720392214052346
286														9.561013859106346	0.21694707952719017	0.149500871415423	-0.05218516163435605	0.08103328078142621	0.9953443204795984	-0.35813461152630766	-0.931922722507198	0.05709325092926376	0.9322104424067001	-0.3534878310219034	0.07765336043812554
287														9.506476858044904	0.2500286811304211	0.10976863685416648	-0.05262346132915391	0.08132573219077671	0.9952973910351481	-0.3569238382533669	-0.9323736390179218	0.0573129213263634	0.9326500656753438	-0.35222936071274863	0.07809182061947956
288														9.508736394764098	0.2700127217884129	0.16503472313776682	-0.05296182678303113	0.08172238541551724	0.995246952583027	-0.3559993797299408	-0.932706690457805	0.0576426162413341	0.9329841834327641	-0.3512544395409771	0.07849096869737576
289														9.465941028265416	0.2505355916006329	0.17784003773737053	-0.05314711481325751	0.08207625315815606	0.995207954577607	-0.35508000235362014	-0.9330357766123827	0.05798647678451102	0.9333239395384537	-0.35029662891447555	0.07873179570906952
290														9.472537739243926	0.25468432015001247	0.2127575517738499	-0.053111210373405604	0.08230596385026573	0.9951909001027641	-0.35436742530331006	-0.9332887012398643	0.0582745915636437	0.9335967690692668	-0.3495682028627394	0.07873464504739891
291														9.47326189509738	0.2164890267497304	0.2491184376419505	-0.052885928549932626	0.08234022934822693	0.9952000628980551	-0.3535611731553246	-0.9335832426835422	0.05845362108127242	0.9339151864052977	-0.3487727277345002	0.07848572475421384
292														9.47206636546739	0.21274758588430992	0.35194829995089805	-0.05248209181212049	0.08222625513945112	0.9952308641741203	-0.3527733871093074	-0.9338749198618594	0.058554004136629034	0.9342358200082306	-0.34801792628936157	0.07801894382008512
293														9.55127138741649	0.3075966085020733	0.41296486670985805	-0.05197455202279716	0.08199037610579785	0.9952769585236357	-0.3519378371136656	-0.9341885360212174	0.05857933060636086	0.9345792661672866	-0.347230985645815	0.07740954629534597
294														9.523207025443984	0.38725085018898164	0.45958721856732543	-0.051385026604144235	0.08163926339791455	0.9953364304157344	-0.3512448705225437	-0.9344535077366094	0.05851224496075019	0.9348725153583732	-0.34660016236376934	0.07669229085713802
295														9.532018189960947	0.4460647951326805	0.4994196458435068	-0.05076195674500955	0.0812021821861321	0.9954041537765592	-0.3507610660524767	-0.9346448566321643	0.0583580886661908	0.9350881767454595	-0.34618665135913473	0.07592696577370278
296														9.557164634967606	0.4342868086967302	0.5754193425419414	-0.05006086505698759	0.08074942200159396	0.9954764892432938	-0.35042264269664236	-0.9347814072922227	0.05820388360128645	0.9352528435002198	-0.34592376534025426	0.0750923917422619
297														9.551731325245079	0.4842637951585078	0.6531281677085339	-0.04937998558614076	0.08028633209787556	0.9955479505788668	-0.3502182823233796	-0.9348693111489785	0.058021770037596565	0.9353655818715877	-0.3457939790541527	0.07428157443082439
298														9.5899391429201	0.422237004570425	0.6770177337908825	-0.04873997125311891	0.07979958606241871	0.9956186223984119	-0.3502577501230223	-0.9348692640711591	0.05778380027142216	0.9353843721599177	-0.3459067578977256	0.07351592453122391
299														9.576128352456628	0.4115200318691578	0.7080373344332743	-0.048054072087289124	0.07940815789746439	0.9956832581775998	-0.3503050527064231	-0.9348597535186325	0.05765077015471659	0.935402146781896	-0.3460225219699047	0.07274089692468094
300														9.646755390437251	0.3465486842344504	0.7437008361108302	-0.047482986750948364	0.07902465801534866	0.995741165863281	-0.35026821144645626	-0.93488334086768	0.057491903935992156	0.935445105828936	-0.34604658991766113	0.07207087891130642
301														9.662635587491367	0.31385489844449277	0.7363595093618526	-0.046988730733633355	0.0787139174723151	0.9957892238723031	-0.3500466176702082	-0.9349726706823289	0.0573887666255391	0.9355530047205712	-0.3458760244268387	0.07148671964075387
302														9.702499355488332	0.3110613028844447	0.7756933273325101	-0.04655057571379201	0.0784027218415573	0.9958343522436598	-0.34969341986602076	-0.935111775610871	0.05727546783999679	0.9357069819142748	-0.3455705142539204	0.07094690743901083
303														9.730310242978833	0.36149909514238565	0.7610999004720878	-0.046188178573978944	0.07802492216795073	0.9958808983411137	-0.34921232788557044	-0.9353033330588739	0.05708261750920571	0.9359045903364077	-0.34513734467548807	0.07044722207152143
304														9.736883134072956	0.4001844498350435	0.7512044088432823	-0.045758554730961354	0.07748545995609049	0.9959428488444135	-0.3487157160300157	-0.9355081201040221	0.056761841170911626	0.9361108396245643	-0.3447035838439041	0.06982789716554183
305														9.761739114041317	0.42556416903760474	0.7905310455990463	-0.04532302468153793	0.07678262388496421	0.9960171946824293	-0.3481888083859308	-0.9357327873718048	0.05629124578633815	0.9363281354036638	-0.3442507506262441	0.0691450905326273
306														9.814162648703164	0.5024529130911388	0.8196084509019077	-0.04479506110752446	0.07603128952079011	0.9960987127359312	-0.3477587834479813	-0.9359221548473812	0.05579918100308512	0.9365133373503837	-0.3439025488123646	0.0683652388660056
307														9.841343405075067	0.5847273547394707	0.870945949274137	-0.04434617948844494	0.0752327603686182	0.9961794256719498	-0.3476476808251319	-0.9359982607589138	0.05521182729447188	0.9365759480051177	-0.3438710334174797	0.06766244153671014
308														9.844351548423484	0.6368991574786891	0.8769883259694857	-0.043911779827787656	0.07449013075657479	0.9962544735218126	-0.3477575784504858	-0.9359900529489062	0.05465608301879599	0.9365556161929787	-0.3440549973486386	0.06700549661645822
309														9.82592026513789	0.5415923155043062	0.951848665743428	-0.0435990564773866	0.0737599982579159	0.9963225305749507	-0.34781525042338923	-0.9360024340952564	0.05407397655684407	0.9365488101787308	-0.3441785961165327	0.06646367525239616
310														9.877636216513041	0.6568516398733747	0.94546235898137	-0.04341346861848494	0.07316604668584917	0.996374427790515	-0.3480335733691886	-0.935950564368015	0.053564660617499926	0.9364763224718421	-0.3444463248048359	0.06609710113201706
311														9.842742920748957	0.6323798068483338	0.9866118799442507	-0.04338269357468866	0.07265064219420805	0.9964134814859609	-0.34835585686719683	-0.9358589288499453	0.05306846783310962	0.9363579117434344	-0.3448042190585867	0.06590835785294896
312														9.840074316517313	0.6082137406636258	0.9343027756537248	-0.0435058942082322	0.07227064625580468	0.9964357434671389	-0.34868283700031644	-0.9357610188141964	0.05264593858245126	0.9362304824937886	-0.34514963328618037	0.06591065385703837
313														9.771294393484993	0.6279699876094654	0.9301631227074962	-0.043779641170589245	0.07202892197536981	0.9964412563809472	-0.34898567610524783	-0.9356673647641501	0.052302776108669125	0.9361048770796664	-0.34545392878700426	0.06610024351911198
314														9.71847041392494	0.5777868940724354	0.9637671958336905	-0.044078277436756186	0.07176126729516477	0.9964474025127471	-0.3491224243631186	-0.9356366541734298	0.05193827272800847	0.9360398700189151	-0.3455927833206913	0.06629471963611233
315														9.682945283359532	0.5586664908626702	0.9030403248693027	-0.044367286457853594	0.07151383139410192	0.9964523650489785	-0.3490957448199733	-0.9356649041297767	0.05160763633808246	0.9360361664171715	-0.34556758976957264	0.06647808706553993
316														9.6906898531877	0.694386998721415	0.8752034756321188	-0.044592013903910044	0.07127327730249586	0.9964595687927108	-0.34889681650422355	-0.9357550287958466	0.051318003824220165	0.9360996548066941	-0.3453731981868976	0.06659422080738159
317														9.697151110141258	0.7324243424862514	0.8717161227879743	-0.044809328550785454	0.07097794192465712	0.9964709006463602	-0.3488204928069826	-0.93580245842385	0.050970801502160185	0.9361177211615653	-0.34530550324027387	0.06669124049873132
318														9.672037552952514	0.7346145823000095	0.8948959112998275	-0.04502354640834244	0.07066508637910265	0.9964834799613334	-0.3487012773915438	-0.9358663989773526	0.05061128738401649	0.9361518570265834	-0.3451963627157677	0.06677703013374209
319														9.740356044595202	0.74638732859698	0.8622326694654835	-0.04516522564551606	0.07049914722189712	0.9964888221316763	-0.3486651495989739	-0.935890779183977	0.05040895648130439	0.9361584886372154	-0.345164192348213	0.066850313934125
320														9.751523252071625	0.730346644042628	0.8791929087851152	-0.04528872213149421	0.07050781190937408	0.996482604016472	-0.3486866100145891	-0.9358847309127936	0.050372794649711006	0.936144529249747	-0.3451788216331361	0.06697015343964369
321														9.741964149508558	0.6700079745190053	0.8333864117797559	-0.04534647848680817	0.0707493246388469	0.996462859293809	-0.34874629117306877	-0.9358515689660936	0.0505753423787802	0.9361195016032278	-0.34521931279528484	0.06711113760976395
322														9.748826264548372	0.6739333174885627	0.8686709375878438	-0.04548220765872513	0.07104231635229907	0.9964358273736392	-0.3486924756095906	-0.9358590534014062	0.05080737761269988	0.9361329639745329	-0.34513884373382875	0.0673368569680235
323														9.731967519358832	0.6132459701450338	0.7903703692899419	-0.04566135490951606	0.07146450760507123	0.9963974432025566	-0.34867882184110605	-0.9358458670610057	0.05114286171434679	0.9361293286011958	-0.3450874342215307	0.06765015059166735
324														9.725294976482015	0.5743606619712435	0.7972391456851965	-0.0458281438786633	0.07187836357212965	0.9963600162987418	-0.3487408329897439	-0.9358048621568197	0.051469324546519785	0.9360980785335775	-0.34511267843104254	0.06795312025135958
325														9.712386449711598	0.49365999886805656	0.8082146774161787	-0.04600438731695272	0.07226358340744812	0.9963240290491373	-0.3488406604205758	-0.9357514642689515	0.05176283179897875	0.9360522367821829	-0.3451770149236876	0.06825714895484608
326														9.713068695518354	0.45979893271281796	0.7420574307206829	-0.04616857467734636	0.07252929475655065	0.9962971264208182	-0.34886026462035724	-0.9357335560792395	0.05195409316228372	0.9360368467540563	-0.34516983273371143	0.06850407352344134
327														9.710645979824891	0.40217466728355256	0.7308412126251371	-0.04636188000173658	0.07265085757105322	0.9962792926568813	-0.3487987697569666	-0.9357536061767012	0.052005833743210494	0.9360502092829912	-0.345089903389668	0.06872382614332839
328														9.66999025726737	0.4391139699083954	0.7564087390009501	-0.046609828875049664	0.07274393153278491	0.9962609318232813	-0.34866333361983987	-0.9358034366447388	0.05201737933611661	0.9360883524760575	-0.3449351364953282	0.06898077971152877
329														9.69299566472438	0.37430251917583307	0.7230092137799472	-0.04689261625514979	0.07283217164024572	0.9962412144229496	-0.348319591430567	-0.9359308564416817	0.052027821268849306	0.936202192246093	-0.34457061211674195	0.06925711876120472
330														9.688036502881099	0.4298482559231673	0.7047714427631099	-0.04717300322176132	0.07291286480003745	0.9962220745966694	-0.3478572647060721	-0.9361020541932221	0.05204101773063485	0.9363599901524253	-0.34408815481193483	0.06952201492957888
331														9.748728755485171	0.43819139273526597	0.7473403000263941	-0.04762032582625436	0.07294080852794596	0.9961987467465974	-0.3473328022319716	-0.936301722540711	0.05195198611202462	0.9365320224433802	-0.3435385317814981	0.06992172852214901
332														9.718653389666752	0.5018435409095129	0.6468292124315947	-0.04817960010134009	0.07292327147362282	0.9961731388727864	-0.34686464659484845	-0.9364848995647276	0.05177788939183736	0.9366769149908127	-0.3430426057573997	0.07041397275021061
333														9.736877028557481	0.4910405696044766	0.5955721133607791	-0.04881881314552455	0.07295274402443641	0.9961398599706606	-0.3464973396118375	-0.9366299448661572	0.05161337057331025	0.9367797591349747	-0.34264010786731314	0.07100309398677446
334														9.710533021003966	0.5343507438296011	0.5854925326686039	-0.04945151806917847	0.07300726068505972	0.9961046567745367	-0.34610076321722216	-0.9367840434532057	0.05147735066919362	0.9368931684355001	-0.34220694881712516	0.07159326169524205
335														9.646635154800187	0.5041828857042704	0.49964246758375425	-0.04999561742582931	0.07305435284679887	0.9960740433162311	-0.3456226147138558	-0.9369663672090222	0.05137153800972727	0.9370407923012568	-0.3416973635386476	0.07209344848299065
336														9.672603129309648	0.4573742718511922	0.5188547695264567	-0.05034705733258532	0.07307100233050803	0.9960551201797844	-0.3451815421636958	-0.9371328280964586	0.05130073540824032	0.9371845478706115	-0.3412370013969008	0.07240464149631193
337														9.704372133765506	0.49122227584354206	0.49435133163105777	-0.050642509594804486	0.07301660371436675	0.9960441314540027	-0.3446117367436484	-0.9373484294440466	0.051192506456559844	0.9373783052324531	-0.3406559810142744	0.07263205544892565
338														9.713629787786086	0.5501537011219028	0.5423273167290538	-0.050840759301862215	0.07288743606772344	0.9960434924525554	-0.34419512424080667	-0.9375100510117429	0.05103548472205546	0.9375206310489737	-0.34023863083934636	0.07275122295948849
339														9.709640334814189	0.5648399783473074	0.5604505280381922	-0.05102721837616914	0.07277111732259506	0.9960424626833999	-0.3439224866380251	-0.9376183618488867	0.05088350133911995	0.9376105514388735	-0.33996495702856183	0.07287168052858345
340														9.739238536574813	0.5397371928053354	0.5217512611611148	-0.05122243420087741	0.0726747604102023	0.9960394778490743	-0.3437848463490415	-0.9376767823115149	0.050736883375805036	0.9376503834880584	-0.33982441217964876	0.07301456862471684
341														9.670960186979045	0.5231619705432112	0.5555218808853152	-0.05139035350792309	0.07259234388216593	0.9960368382625331	-0.3436273174217942	-0.9377411477855241	0.050614291177381615	0.9376989379794731	-0.33966438046928127	0.07313556147721278
342														9.707457913336748	0.5010416946858808	0.5503533536110647	-0.05153791609892788	0.07253721331491925	0.9960332303134696	-0.3432954377062297	-0.9378668105986637	0.05053798598655962	0.9378123936343918	-0.33932904128882846	0.0732373953915385
343														9.709835614643712	0.5583564458922352	0.5635552147881655	-0.051642179150206746	0.07250365647187434	0.9960302731999797	-0.3426964314315513	-0.9380869466231821	0.05051768461909942	0.9380257145818007	-0.33872717690407306	0.07329159849463529
344														9.683902420929074	0.6028883644808313	0.5474806729026491	-0.05164131717489989	0.07244731852372227	0.9960344172764128	-0.34234109619897535	-0.9382180260163472	0.05049266789616691	0.938155503215605	-0.338376006384482	0.0732525091008061
345														9.67760886801233	0.5605206140790407	0.5508084125698268	-0.051544571185221766	0.07237819960864794	0.996044453527423	-0.34224656336917253	-0.9382538521252862	0.050467799972386485	0.9381953139103408	-0.3382914500744477	0.07313308254958811
346														9.77156586016855	0.567901728284734	0.49385569907130256	-0.05142470138322219	0.0722803899518561	0.996057751998374	-0.3420609586855273	-0.9383235226260757	0.05043081825363083	0.9382695778030878	-0.3381190797855105	0.07297730643299472
347														9.727728364173263	0.5823953193654737	0.5701254907077259	-0.05121680827848657	0.07218077927869834	0.9960756867088382	-0.3419579340571909	-0.9383618940139067	0.0504155452015603	0.9383185013017178	-0.33803386067870855	0.07274269138232964
348														9.696047388289747	0.5468784782967253	0.5940360311419777	-0.050921467914820884	0.07212135554192942	0.9960951330973333	-0.3417807069519776	-0.9384233458847693	0.050473480698685236	0.9383991434676429	-0.33787591505348347	0.07243558218144575
349														9.698613197084532	0.6057933052817672	0.6032848825133055	-0.05058117021802355	0.07214891934689793	0.9961104751263535	-0.34153362054833064	-0.9385046602932287	0.0506338685371753	0.9385075019702954	-0.33764409671274553	0.07211194561589573
350														9.72714511491397	0.6202281629045224	0.6281752680712932	-0.05019811513215594	0.07224235264129036	0.9961230806090332	-0.34139330126741213	-0.9385433517280913	0.05086246923556284	0.9385791192472358	-0.3375165468711898	0.07177616248610091
351														9.753268871762565	0.5766592273716965	0.640713819293291	-0.049877827406870134	0.07237704455539032	0.9961293920744418	-0.3413758999500154	-0.9385368212478014	0.05109921814851015	0.938602523577732	-0.33750584970263703	0.0715199563060091
352														9.75393637531069	0.5396875794756802	0.6761979235086018	-0.049562654385410077	0.07255134462132534	0.9961324438466559	-0.34137658357010386	-0.9385217815168508	0.05137016457479168	0.9386189703390173	-0.33751024875116753	0.07128296085074426
353														9.742979117593446	0.5558170181518534	0.6573225485509763	-0.04931135258515129	0.07270514201512979	0.9961337022863862	-0.3414367233058163	-0.9384875349145463	0.05159564698892499	0.9386103315457434	-0.33757237614262536	0.07110229518807065
354														9.758729959899567	0.4875107649798525	0.6923097879812814	-0.04897215919606024	0.07282547164864736	0.9961416457024712	-0.3414311327284578	-0.9384769665939996	0.05182436469737753	0.938630123758788	-0.3375758194119902	0.07082412668635896
355														9.765244638042757	0.530385237794706	0.6846860990799247	-0.0486553974762986	0.07286798341060435	0.9961540590140143	-0.34141702667751767	-0.9384738896958449	0.05197280302076562	0.9386517278475055	-0.3375751995523723	0.07054019036031461
356														9.76841947945546	0.5507539945498484	0.7326315547509152	-0.04837029015832689	0.07290962591226102	0.9961648967311256	-0.34134810899631424	-0.9384911406595259	0.05211379268699656	0.9386915273478504	-0.33751824447415735	0.07028265171749931
357														9.753504896397612	0.5827338629187576	0.7308688206655478	-0.04815237152521645	0.07299084323761942	0.9961695066202132	-0.3413335676870234	-0.9384880090824322	0.052265211934335865	0.9387080188677126	-0.3375093978127929	0.07010464821607887
358														9.759920241214056	0.6254683833114763	0.7244590296982198	-0.04796467662958104	0.07313323798603213	0.9961681179888756	-0.3413575524217075	-0.9384683527835421	0.05246114970534471	0.938708906530923	-0.3375332284759884	0.0699779141879443
359														9.764650290164537	0.571099290312436	0.74402511597953	-0.04779486146679546	0.07328028092998018	0.9961654740273795	-0.34134815039640815	-0.9384607535641049	0.052657898181034085	0.9387209870021664	-0.33752246509931183	0.06986769006459881
360														9.70685015950101	0.5824773040089208	0.7536482896663318	-0.04757439188858903	0.0733943638963209	0.9961676287576734	-0.3414063249572735	-0.9384295960793885	0.0528357311054235	0.938711030357905	-0.33758430139822926	0.06970251741415079
361														9.754442596192854	0.5493444625708034	0.7619045724769532	-0.04726487513087274	0.07357174948581921	0.9961692774104502	-0.341481941316514	-0.9383870476913563	0.05310209487209186	0.9386991612511262	-0.33766395484667233	0.0694761704740301
362														9.744198136199332	0.5266373714206511	0.7812635705052078	-0.04698313859576292	0.07373595426378543	0.9961704641960136	-0.34147074189109283	-0.9383768874127378	0.05335306553450858	0.9387173787248422	-0.3376563729864903	0.0692665623628757
363														9.772701048309681	0.5416036137236564	0.8078491500072312	-0.046802558834743435	0.07391932735779835	0.9961653745887229	-0.3415293750338054	-0.9383424662833678	0.05358266471784223	0.9387050689516587	-0.33771193199562416	0.06916245016079375
364														9.81619885963882	0.5254696951690403	0.8348236104068235	-0.046735740659899494	0.07415318990372322	0.9961511305881622	-0.34157784699301874	-0.9383111233826562	0.05382202318746687	0.938690761107504	-0.3377477463484852	0.06918175227568901
365														9.77651038805762	0.5284519889194024	0.7905734126940681	-0.04680821310309635	0.07445155286743524	0.9961254727501565	-0.34147328221556594	-0.938333990416961	0.05408622709259134	0.9387251933974201	-0.33761855503483573	0.06934495350900471
366														9.754893478334758	0.5202700480825756	0.797234573086814	-0.04686948712523026	0.07480325151990941	0.9960962427088392	-0.3413633165396585	-0.9383555786948709	0.05440490835631201	0.9387621303065342	-0.33748078685202654	0.06951533074131372
367														9.696012172441993	0.571568073676016	0.771595973789853	-0.04694472973189012	0.07511704011091078	0.9960690852723898	-0.34129255070122644	-0.9383653135164212	0.05468028186722565	0.9387841004119372	-0.3373840077333309	0.06968819225338785
368														9.688760151859402	0.5707564806325026	0.7390068226009741	-0.04699529953884701	0.07535822002682468	0.9960484830045386	-0.3412851443582635	-0.9383557092339709	0.05489092081911873	0.9387842627897067	-0.33735693504417574	0.06981694862987436
369														9.6989009664269	0.5969975579168828	0.718036619480319	-0.047011820321039455	0.07559728086924278	0.9960295878513243	-0.3413756982468559	-0.9383102919816113	0.055103798488441186	0.9387505107303931	-0.33742976615372855	0.06991874939432308
370														9.677380614235958	0.5879086241328324	0.7240924189482276	-0.047036809868207075	0.07582581458694118	0.9960110362639812	-0.34154264869196793	-0.9382380993559813	0.055298173942286644	0.938688530686243	-0.33757919775824935	0.07002947664376519
371														9.698611056149074	0.5999645259734248	0.7194781473928408	-0.047014220133615836	0.07608466707799408	0.9959923626920334	-0.3418324240715813	-0.9381189863846089	0.05552802209750493	0.9385841768102502	-0.3378518770413229	0.07011313871936048
372														9.681072988005576	0.5749070843300487	0.7084665678828493	-0.047015162201279215	0.0764878115735737	0.9959614396169529	-0.3420813017593792	-0.9380068367834984	0.0558887925618749	0.9384934509679843	-0.3380721651187823	0.07026559372909924
373														9.704036819553044	0.5135745483764843	0.6744850565755407	-0.046996672492225444	0.0769623837457723	0.9959257523845977	-0.34226670446653457	-0.9379129206628786	0.05632811258374196	0.9384267769987578	-0.3382249913028269	0.07042044781117412
374														9.683203495381697	0.4682122403796331	0.7191169775189943	-0.04693885833524736	0.07750058229427886	0.995886742216318	-0.34241461858854494	-0.9378278357925394	0.05684346391224818	0.9383757097000351	-0.3383380116935274	0.07055790025380326
375														9.684055213892973	0.43623982021887286	0.6516493361711192	-0.04683795764133247	0.07797952688403417	0.9958541053341753	-0.34241199105156117	-0.9377992432870161	0.05732894272882624	0.938381710237414	-0.33830721641319106	0.07062572629477182
376														9.67572498941542	0.4740480397338974	0.6858858673169675	-0.046640440892597446	0.07841504941590191	0.995829176765998	-0.3424289832381576	-0.9377638245090386	0.057804851705220095	0.9383853476647136	-0.3383047287096096	0.07058930387028706
377														9.680559558516324	0.42215081891016887	0.7060254982063313	-0.046425853099903824	0.0787838796413321	0.9958100925741846	-0.3423778252322614	-0.9377562709496287	0.0582288681314834	0.9384146551248937	-0.3382399689618403	0.07050998825358062
378														9.712992374160606	0.42177569738732007	0.7157784631565162	-0.046179887683313214	0.07904840799908935	0.9958005659600553	-0.3423078641103373	-0.937760772955702	0.05856670448081766	0.9384523131953886	-0.3381657609787456	0.07036457887240205
379														9.710954328882478	0.49933737526221056	0.7441746224184557	-0.046030088821354065	0.07924078875987486	0.9957922114175284	-0.3421592763468848	-0.9377997831482999	0.058809831973729715	0.938513857400558	-0.3380125206611658	0.07027997825419796
380														9.704827089200936	0.45968630030067703	0.7475262868536022	-0.04585082976515936	0.07944695528883311	0.9957840542533214	-0.34208919118094894	-0.9378089979096148	0.059070032308519094	0.9385481802694051	-0.3379385517148043	0.07017726539193431
381														9.668275997458936	0.4818716333692752	0.7522803501871078	-0.04570153934591925	0.07961588082672647	0.9957774253424296	-0.3419914307508919	-0.9378309588353462	0.059287047008038746	0.9385910880646435	-0.33783783709075565	0.07008826745945951
382														9.699804932250178	0.5187139830168854	0.7242830228106606	-0.045616371091625196	0.07978745894150366	0.995767597426272	-0.3419641432418843	-0.9378287199867658	0.059479548626647116	0.938605173342485	-0.33780357215938894	0.07006479294967838
383														9.72515757424442	0.5139203669609442	0.7017416604331923	-0.045621806700373524	0.0800057903858987	0.9957498301572146	-0.341887226625026	-0.937843450542801	0.05968908228999403	0.9386329287980698	-0.33771102407043396	0.07013907040485301
384														9.678254213933531	0.5111904823220053	0.7302802147479736	-0.04566057475264945	0.0802770973364583	0.9957262171683996	-0.34189880806225403	-0.9378238252312234	0.05993060882625731	0.938626825186063	-0.3377011407619298	0.07026821877081862
385														9.659912881405246	0.5243175967323812	0.6809754899078064	-0.045702052670290094	0.08051670841291828	0.9957049673713952	-0.34187408696751165	-0.9378191710435184	0.0601440860216397	0.9386338109411213	-0.3376570184219442	0.07038683732453449
386														9.702448547019443	0.5469760058566164	0.6710646842272214	-0.04572310548685504	0.08072494764781382	0.9956871398445881	-0.341922378730075	-0.9377896582427332	0.0603294606021427	0.9386151951402693	-0.33768926503552943	0.0704803215909155
387														9.644425660323986	0.5576810821784864	0.683170944133534	-0.04579671098217242	0.08089307044755784	0.9956701122444024	-0.34203098991996955	-0.9377419856475473	0.06045469616299315	0.9385720341015814	-0.3377814078769887	0.07061343565539324
388														9.667814403681707	0.49375319313167704	0.6486939154410868	-0.04579760433122415	0.08104192295720494	0.995657966452797	-0.3422068664154244	-0.9376696441206753	0.060581342612574224	0.9385078795703617	-0.33794651236254036	0.07067612585830374
389														9.717471637444639	0.5183893213525819	0.6717858092121824	-0.04574138595415289	0.0811628177579646	0.9956507031206174	-0.34234418925707155	-0.9376115881121914	0.06070392013414197	0.9384605381649838	-0.33807855130327524	0.07067327257009581
390														9.680903261376367	0.539211045694519	0.67716557947765	-0.045647495159242546	0.08122013450759208	0.9956503381891936	-0.34232835344172036	-0.9376117320859496	0.060790939165847574	0.9384708863974244	-0.33806438677469985	0.0706035819139414
391														9.73982618439523	0.4911102510484539	0.7031973282538946	-0.04556463707630026	0.08130965036522847	0.9956468272462827	-0.34219064167105645	-0.9376540333528369	0.060913697063201155	0.9385251347730946	-0.33792551619349653	0.07054726716537801
392														9.74081474335711	0.5892838713363444	0.6767373550815309	-0.04549085788271856	0.08143917247836865	0.9956396150390624	-0.3420396433057853	-0.9376988262101622	0.061072037229282394	0.9385837545239876	-0.33776999942286495	0.07051214954553808
393														9.722384810884902	0.5991942522675409	0.7325842589626229	-0.04546280668841002	0.08159369029247604	0.9956282453368162	-0.3420467828219159	-0.9376861468186063	0.06122653367333422	0.9385825118598732	-0.3377679081394951	0.07053870329032358
394														9.698077493223089	0.5699024583569042	0.6870017837734331	-0.04543926529115727	0.08173972996459158	0.9956173410076362	-0.3421860671967434	-0.9376264991384288	0.061361580242364794	0.9385328809297125	-0.33789815722896455	0.07057525596867753
395														9.706282614462637	0.5365831775147959	0.6526235708028579	-0.04545322984092365	0.08178955102455904	0.9956126120335304	-0.3421607181264006	-0.9376328633633717	0.06140567166174887	0.9385414465372607	-0.33786844020151646	0.07060361355865769
396														9.698082318935517	0.5699959078109751	0.6868560991799542	-0.0454415611721104	0.0818040360196492	0.9956119546334999	-0.34222941024000525	-0.9376069792472814	0.061418101839498696	0.9385169659015337	-0.3379367576303069	0.07060207190511969
397														9.704188602962617	0.6108121002616832	0.6822287167933101	-0.04552309755724726	0.08177251917677542	0.9956108188927426	-0.3423721766229203	-0.9375593141526762	0.06135002135327544	0.9384609423216703	-0.338076600126432	0.07067723950237015
398														9.708369293072312	0.592666762869147	0.6651876198040907	-0.04558134670815217	0.08169848616923758	0.9956142316127904	-0.34247752002541365	-0.9375272083696632	0.06125260683292835	0.938419676429216	-0.3381835166359263	0.07071364766609467
399														9.697308629462066	0.6054500107318097	0.6485870269851952	-0.04562379572190178	0.08162841990187344	0.9956180343526572	-0.3423859154901191	-0.9375654639946238	0.061179127147565515	0.9384510398192963	-0.33809436817088273	0.07072371648331566
400														9.703463986420305	0.6459971266720789	0.6437519647235496	-0.045653453758075946	0.0815954416315095	0.99561937810838	-0.3422981135811196	-0.9375997738393311	0.061144628016214175	0.9384816266708502	-0.3380071715236131	0.07073463366584054
401														9.69847320023337	0.7011323084894533	0.6220172192559068	-0.045573411035047584	0.08158777043618856	0.9956236738456368	-0.34225326486649643	-0.93761462614146	0.06116792896473092	0.9385018736767949	-0.33796782178317264	0.07065397755458097
402														9.69036293212914	0.7343384188930021	0.6555382856273816	-0.04554311493792251	0.0815656781817985	0.9956268702804757	-0.3422311602255612	-0.9376232730452984	0.061159061589340646	0.9385114051797229	-0.3379491647963726	0.07061660117151469
403														9.694539637646487	0.7174336032944787	0.6372519492916693	-0.04538609945804656	0.08162367329774534	0.9956292874023787	-0.34228509256462786	-0.9375968087771998	0.06126287276023354	0.9384993433050497	-0.33800857996239586	0.07049242858489263
404														9.681494467434565	0.6735859015228572	0.6062866487212912	-0.04515693510547936	0.08164878463115605	0.995637648534915	-0.34233885888953663	-0.9375708129358793	0.061360218586348936	0.9384907867987249	-0.3380746170581425	0.07028937611688457
405														9.705916782286764	0.7044246516695435	0.6491708138228024	-0.04483838517692118	0.08169224188841781	0.9956484805542416	-0.3423358201041964	-0.9375621454495753	0.061509427680450424	0.938507168586534	-0.3380881557156854	0.07000495322799061
406														9.695909029639942	0.6805798501480128	0.6678030251914617	-0.04449733744484413	0.08172721740591474	0.9956609105992899	-0.3423606005200305	-0.9375434552228861	0.06165621444994168	0.938514361196399	-0.3381315298871423	0.06969836672617796
407														9.7315523310319	0.6977527425369148	0.7265936252289125	-0.04414428982203927	0.08180769214914227	0.9956700172152114	-0.3423704949498809	-0.9375270097234931	0.0618510325435177	0.9385274241405425	-0.3381576666943349	0.06939500408503302
408														9.768243129008303	0.6787657563665196	0.7177210609305656	-0.0438642110856326	0.08191940099568151	0.9956732108108282	-0.342501048660928	-0.9374667298589763	0.062041615659829935	0.9384929209386716	-0.33829771230090544	0.0691787192709879
409														9.748039040633165	0.630525855687633	0.7594847731591955	-0.04370391064693191	0.08205621749472014	0.9956689938752862	-0.34254121182065395	-0.9374401077290707	0.06222188220671737	0.9384857411802289	-0.3383383241540454	0.06907743488310214
410														9.708426022677077	0.6326502157362551	0.713586578910907	-0.04357147471639877	0.08223302348405107	0.9956602113370355	-0.342657574996307	-0.9373840930091938	0.06242474245827573	0.9384494194620662	-0.33845057544936064	0.06902097571976384
411														9.688175798618222	0.5841679665071673	0.7565467394117734	-0.04350816395631413	0.08234478244760471	0.9956537432625899	-0.3427092798337442	-0.9373569973141453	0.06254765464864226	0.9384334761638605	-0.3384984437037578	0.06900300301542711
412														9.691191219248845	0.6071913833348942	0.700052414943737	-0.043327204233044925	0.0824776770415547	0.9956506345918618	-0.3427752351604413	-0.9373207366616114	0.06272937736689571	0.9384177596007294	-0.3385664918652808	0.06888279213261161
413														9.63141151158734	0.5592808232101036	0.697363995176346	-0.04316034592407991	0.082535053197305	0.9956531271147758	-0.3428780794128551	-0.9372762110371381	0.06283253044417353	0.9383878767321462	-0.33867575823726176	0.06875262601930354
414														9.66922273764844	0.5005762927050067	0.7274901815487962	-0.0429156123954913	0.08255738528268991	0.9956618544204682	-0.3428395092834307	-0.937283141773692	0.06293951875517823	0.9384131931548151	-0.33865113359048793	0.06852801347522858
415														9.693757737919622	0.5313643506046012	0.7703327138927507	-0.0426460723458954	0.08257419864010868	0.9956720415038343	-0.3426403097978041	-0.937347788789127	0.06306140621489073	0.9384982315460877	-0.3384680554662116	0.06826745061731837
416														9.736562647166608	0.5531247031282006	0.7566805988795702	-0.04238527854683011	0.08254384704910764	0.9956856941208113	-0.3424276895163648	-0.9374204093126498	0.06313678528868072	0.9385876440775217	-0.3382742814912751	0.06799812399301824
417														9.765193232444576	0.56667309347794	0.782546341327849	-0.04220935817789462	0.08254663354331135	0.9956929362875266	-0.34237085965148195	-0.9374366905756246	0.06320320897016482	0.9386163031525265	-0.3382284796602547	0.067830162929166
418														9.705475977083134	0.5176520426850992	0.7802289313019276	-0.042179147954363505	0.08252462646772987	0.9956960407193581	-0.34234867401994784	-0.9374453907490636	0.06319434120330003	0.9386257533621308	-0.3382097357996917	0.0677928442807596
419														9.724860771897587	0.46907960918989333	0.7622568733401774	-0.04229384766561728	0.0825143991443173	0.9956920228582179	-0.342299908652526	-0.9374662313122446	0.0631493284658626	0.9386383771112866	-0.3381544603920956	0.06789372526839832
420														9.675109040271119	0.4440245351662648	0.7399134677643715	-0.04239601120198205	0.08247811861326565	0.9956906839898512	-0.34221708377101584	-0.9375006982936283	0.06308651420249292	0.9386639685262363	-0.3380677456501521	0.0679717113334743
421														9.644587920653214	0.5045635787885323	0.7418995684869565	-0.04253361882090617	0.08239705441419884	0.9956915268766038	-0.3421201316883643	-0.937543878900536	0.06297055367133375	0.938693084433637	-0.3379677507692141	0.06806682507994827
422														9.66595891428126	0.5133137347310796	0.7369363966137359	-0.04265703195432252	0.08225394958394544	0.9956980794410976	-0.3420085402812517	-0.9375958931926669	0.06280206559447782	0.9387281480809745	-0.3378582969916344	0.06812661120573399
423														9.674159695989845	0.4772640006691492	0.7029161612727524	-0.042808251441096845	0.08208455326269687	0.9957055687924118	-0.341972485889659	-0.9376229624326611	0.06259392313514686	0.9387343993393465	-0.33782437217386374	0.06820865826514994
424														9.695585328235783	0.48518711914881385	0.6977829211416618	-0.04292666236254922	0.08187271316046471	0.9957179121107325	-0.34197589183187793	-0.9376377019078639	0.062354064556625705	0.938727751301837	-0.33783486913088834	0.06824815114794086
425														9.678420236533299	0.4548701003731319	0.6864808786819263	-0.04313558397386774	0.08168547937862977	0.995724260954767	-0.3418441839927986	-0.9377014925529747	0.06211654155070995	0.938766145142405	-0.3377031141736878	0.06837200751668815
426														9.674468219286656	0.4687943820875126	0.7043682564456226	-0.04331869218249035	0.08145579518944143	0.9957351276005352	-0.34160015469438065	-0.9378076397644384	0.06185600304116004	0.9388465397605582	-0.3374637524675925	0.06844991271081052
427														9.680683512467802	0.5073090318845823	0.7001673102641508	-0.04350889198664776	0.08122246785772677	0.9957458948111187	-0.34133546793450675	-0.9379214384598471	0.06159118124653368	0.9389340097408477	-0.3372036268970317	0.06853203163092336
428														9.683798924727697	0.5261347806525343	0.6452992499937438	-0.043731345288045786	0.08099911475685401	0.9957543436249242	-0.34110770211609936	-0.9380219205375999	0.06132219947153866	0.9390064456628463	-0.3369777737471104	0.0686503824029343
429														9.627111579309299	0.49359881402299177	0.6956343632443036	-0.043903691880300466	0.0806603696888763	0.9957742568478728	-0.3408016208785612	-0.9381563055657884	0.06096721687674875	0.9391095362340992	-0.3366847948583436	0.06867771010575435
430														9.64155173761174	0.49722624629443074	0.6560157667338767	-0.0439723522089599	0.08024126365573184	0.9958050872776979	-0.3405164887297445	-0.9382855624606629	0.06056999406508343	0.9392097492809462	-0.3364246466666938	0.0685820965763898
431														9.67252220435361	0.564804483901294	0.6952875967730032	-0.04399452191947806	0.07983460221091657	0.9958367930192684	-0.34017378305520063	-0.9384333953716306	0.06020431689826111	0.9393328906000205	-0.33610890904749563	0.06844356723544198
432														9.707531632850372	0.615882507634815	0.717443141953697	-0.04405937497266044	0.0794968406260379	0.9958609460198231	-0.33982160438069753	-0.9385811046470768	0.0598897920818072	0.9394573160464224	-0.33577635761016844	0.06836804075663616
433														9.782990836898726	0.6299639400315726	0.7170590604551491	-0.04419185615751098	0.07922538656366448	0.9958767082190405	-0.3395633363185526	-0.938692501407159	0.05960812386063433	0.9395444749864519	-0.3355290239693268	0.06838460058100426
434														9.772042456850372	0.6407038575489461	0.7007892100224379	-0.0444113923435695	0.0789679374449585	0.9958873897614101	-0.3393367342448821	-0.9387934452727364	0.05930807622039452	0.9396159901907396	-0.33530722027513066	0.06848984603020525
435														9.720088170464143	0.555079144933442	0.6662604835302675	-0.04459424454149841	0.07873744108601968	0.9958974689821231	-0.339172506296996	-0.9388696074123458	0.05904126734413695	0.9396666240353476	-0.33514813985551706	0.06857375609808403
436														9.702852818884415	0.5248277894623578	0.6547295424784458	-0.0446928359494938	0.07854108077470667	0.9959085545598716	-0.3389423105428511	-0.9389653815500469	0.05883980263774172	0.9397449976130041	-0.33492582892532485	0.06858592115018192
437														9.714151722523562	0.5084058781697199	0.670645167235479	-0.044701377992570734	0.07834094697872876	0.995923934260063	-0.338574231181478	-0.9391084737370101	0.058675075928499076	0.9398772668734132	-0.3345713236095109	0.06850366875389619
438														9.722938010306377	0.606073344559756	0.6767772509407799	-0.04468679969094835	0.0780798241627019	0.9959450943662017	-0.3381363013806382	-0.9392793059348192	0.05846560639577833	0.9400356012524224	-0.33415254974536024	0.06837500915298889
439														9.73668341359915	0.6473230234470282	0.7041855044954207	-0.044739886761081704	0.07772836982354489	0.9959702018921954	-0.33783170840277277	-0.9394092047326005	0.05813848003970959	0.9401425845744198	-0.33386920581005675	0.06828816941090504
440														9.705401996883596	0.6081841595934305	0.7306849698771775	-0.0448463744192259	0.07733078097357568	0.995996361948912	-0.3377585712485598	-0.9394605024262397	0.05773310947081822	0.9401637890546427	-0.33381718753691336	0.06825053153905136
441														9.703336443345467	0.5454521368422549	0.717795012093062	-0.044944582571763037	0.07697775125845269	0.9960192820968086	-0.3376689888449412	-0.9395147201548613	0.05737372730412285	0.9401912775972159	-0.33374618563142355	0.06821909634838619
442														9.707521729131557	0.5245920810335591	0.7002037989170204	-0.045070897184513625	0.07665240716048738	0.9960386652653029	-0.3374604916960919	-0.9396099682136396	0.05703967196430243	0.9402600867691956	-0.3335528685382067	0.06821622328096821
443														9.753768978452717	0.561611138191106	0.7397496759920917	-0.04521628998302635	0.0763351056366191	0.9960564435651312	-0.33711914910423535	-0.9397520537418824	0.056716459649301165	0.9403755454218318	-0.3332251928281544	0.06822612723313642
444														9.734241764208642	0.6446090147196837	0.718697618103092	-0.045389571685230334	0.07601705419970747	0.9960728860143874	-0.33675888243731933	-0.9399011816460697	0.05638460640893339	0.9404962742519504	-0.3328771187857785	0.06826113027982755
445														9.723355908992746	0.6551445821487492	0.7025039351901123	-0.045622614192355415	0.07577092109880257	0.9960809929870631	-0.33656752888357455	-0.9399874392839405	0.0560884345442427	0.9405534942657217	-0.332689617367688	0.06838671596356766
446														9.76379226582348	0.6143898638977685	0.6804269423426077	-0.04585838244848556	0.07560431094163086	0.9960828263383772	-0.3364918409034493	-0.9400282561258739	0.05585802261408848	0.9405691095100968	-0.33261218536305837	0.06854840905078946
447														9.7541938868835	0.5503427018997166	0.635803817718658	-0.04605222143935389	0.07545487053992161	0.9960852149351	-0.3363912525368065	-0.9400760230193632	0.0556596457122758	0.9405956188060942	-0.33251110275583473	0.0686749475928417
448														9.732888908825922	0.5374494593920353	0.6419023351805131	-0.04618153203276243	0.07527734601873232	0.9960926599847442	-0.33622518331267237	-0.9401471656460705	0.055461094778411685	0.9406486550277244	-0.33235015887469677	0.06872757591023448
449														9.729119135055162	0.5521898160446371	0.658921388772331	-0.046243408614924264	0.07512420381817048	0.996101350847573	-0.33610239173232215	-0.94020027191276	0.05530489098611044	0.9406894968221376	-0.3322345597553916	0.0687274899341982
450														9.711165599876605	0.5596143218148608	0.7143529716001344	-0.04622788365918595	0.07492850951024288	0.996116811039231	-0.3359422253628243	-0.9402673703859964	0.05513704204686337	0.9407474708925169	-0.33208882945678503	0.06863822083472304
451														9.750324364171767	0.5947042204677354	0.7195379528223625	-0.04630169188895872	0.07464727309903316	0.9961344979203852	-0.3357605147185061	-0.940348462972645	0.05486023095966336	0.9408087106761838	-0.33192251023975783	0.06860333163887955
452														9.744088369148496	0.5498385864276085	0.724124126922685	-0.04643515377166041	0.07436275840771589	0.9961495654048131	-0.33567675692908866	-0.9403962203918934	0.054553309067472355	0.9408320207942393	-0.3318510642361077	0.06862929267878926
453														9.700731768147461	0.5641706144214729	0.6967033405088259	-0.04663900444756702	0.07410000394273561	0.9961596220886623	-0.3355374127872607	-0.9404636340324608	0.05424755923070823	0.9408716426187854	-0.33171877016253437	0.06872561122088633
454														9.711252645381155	0.585310503685873	0.6752361686214748	-0.046831752162399765	0.07386837477503275	0.9961677821519302	-0.33534957077393945	-0.9405461131808409	0.05397846202095849	0.9409290368413205	-0.33153653220800394	0.06881915024436924
455														9.678910319955358	0.5862056853519059	0.6647284753805395	-0.04700268558097698	0.07369804891282158	0.9961723471039635	-0.3352551521845547	-0.9405918444643653	0.05376769532753628	0.9409541596070913	-0.3314446857524903	0.06891799332936255
456														9.696611373874296	0.6110038047124733	0.6766317479195952	-0.04711728622665823	0.07350394845616334	0.9961812741163073	-0.33511693532756526	-0.9406531495023814	0.05355643740869229	0.9409976625875837	-0.3313137816219006	0.06895344162621597
457														9.682414469008199	0.6026286626461216	0.6092487149634896	-0.04719630702954858	0.07331727122213683	0.9961912900358606	-0.33499417475830495	-0.9407078743300009	0.05336289020970625	0.9410374123703981	-0.33119974775665295	0.06895879643058322
458														9.715682907876152	0.5585076584877776	0.6582681722582405	-0.04713517968686637	0.07321293751148555	0.9962018573646741	-0.33483416659623155	-0.9407686088898207	0.053296392066619375	0.941097420948381	-0.33105028365559674	0.06885749033950533
459														9.741109575176662	0.5507644262797335	0.6344795988335841	-0.04708395887981298	0.07314438441042542	0.9962093152773792	-0.33466688401677575	-0.9408301407868037	0.053260894937897846	0.9411594857189225	-0.33089053358520815	0.0687770108756568
460														9.748435428833757	0.5530355691567459	0.6666622669793233	-0.04695944911866817	0.07309409589105392	0.9962188832201183	-0.33452864370956853	-0.9408790809163785	0.053264825464714005	0.9412148514958244	-0.3307624649802624	0.06863523208872341
461														9.738168895661666	0.528256052334766	0.6871773707850057	-0.046842132972759964	0.07307602844465927	0.9962257317723315	-0.33438004791670933	-0.9409300496816557	0.053297515526484235	0.9412734980513269	-0.33062143861648174	0.06851033639814175
462														9.731739140438176	0.48631820775394285	0.6908168197821204	-0.04674865166473585	0.07301933297942434	0.9962342799656961	-0.334321176581144	-0.9409520027824636	0.05327925815052262	0.9412990568660572	-0.33057148314836615	0.06840014672616446
463														9.753933643424011	0.45723293008569504	0.7230543104988112	-0.04675042912925664	0.07295320136819908	0.996239041488719	-0.3342202546546049	-0.9409910076182215	0.05322353765257942	0.9413348069389773	-0.33047504291818386	0.06837417095207166
464														9.754023946148267	0.4559902762550574	0.7226207806671013	-0.04678628468004098	0.07286065416649026	0.9962441310443291	-0.3340936706784221	-0.9410410501861146	0.05313342711733918	0.9413779595775851	-0.3303529429852966	0.06837009786812609
465														9.725503324838336	0.4409340275101762	0.693900626405589	-0.04679486501959257	0.07267824430744016	0.9962570518757627	-0.33396867874113034	-0.9410947780896568	0.052967351003076174	0.9414218832317962	-0.3302400512608479	0.06831066033592986
466														9.699773515739182	0.483523035995973	0.6771571314518737	-0.046897321702178085	0.07241283364548559	0.9962715607406422	-0.333797945998876	-0.9411706330452572	0.05269507320540076	0.9414773350772153	-0.33008214283208714	0.06830963708938742
467														9.717581139514529	0.5080207221983795	0.6881279285959662	-0.04693305141479037	0.07218730513528454	0.9962862448424162	-0.33355655938644413	-0.941267796445111	0.052487684895064196	0.9415611028367598	-0.3298544047798533	0.06825511901794973
468														9.7205534113753	0.5640301349983402	0.6994383743360345	-0.04700188636083652	0.07198315959976542	0.9962977704544753	-0.33336696282276834	-0.9413461989071916	0.05228577149957217	0.9416248142316803	-0.32967523191319237	0.06824185435740165
469														9.694850146033028	0.6069163387099717	0.6830541720263327	-0.04709749996783258	0.07182802595658447	0.9963044515528173	-0.33337030030216197	-0.9413549117216415	0.05210732246034813	0.9416188551495909	-0.32968418958864343	0.0682807935077871
470														9.703173441623367	0.532369373701703	0.6876685649174774	-0.04713780486941532	0.07172997305613349	0.9963096096683298	-0.3333776316196718	-0.9413582050753488	0.052000812233815696	0.9416142427171287	-0.3296961338910187	0.06828672791666146
471														9.710492276638009	0.533937109551865	0.7210171595453613	-0.0471684154529039	0.07165518912267627	0.9963135422423284	-0.33333607308263696	-0.9413772146659172	0.051923040065916026	0.9416274225857642	-0.32965811620470276	0.06828853091740611
472														9.718183258654463	0.4984796346408455	0.6866003719954823	-0.04718929136680772	0.07157177080245014	0.9963185496639617	-0.33322227846690927	-0.9414217706889065	0.05184556689135092	0.9416666522255208	-0.3295489816357585	0.06827433477679867
