// Start Time: 1748431178.2324173
// Update Rate: 100Hz 
// Filter Profile: 46.1 human
// Option Flags: AHS Disabled ICC Disabled 
// Firmware Version: 4.0.2 
PacketCounter	SampleTimeFine	Year	Month	Day	Second	UTC_Nano	UTC_Year	UTC_Month	UTC_Day	UTC_Hour	UTC_Minute	UTC_Second	UTC_Valid	Acc_X	Acc_Y	Acc_Z	Mat[1][1]	Mat[2][1]	Mat[3][1]	Mat[1][2]	Mat[2][2]	Mat[3][2]	Mat[1][3]	Mat[2][3]	Mat[3][3]
0														9.145178172862025	-3.1787736598183116	2.0076386878287726	0.09841725424441455	-0.3650101158320961	0.9257870486279389	0.7255108121596391	-0.6104380864561206	-0.3178040340260808	0.6811373617020657	0.7029459139535768	0.2047411452286021
1														9.189852831433377	-3.1848772774318523	1.9443836935326444	0.09864904281694503	-0.36496501594140757	0.9257801593738055	0.7256526186249099	-0.6102250315516015	-0.3178894272395012	0.6809527468437966	0.7031542846393921	0.20463970425885877
2														9.157678407646717	-3.152308927839952	2.0226138893607293	0.09870563217247386	-0.3649405632823056	0.9257837671122914	0.7255997889119118	-0.6102679127474653	-0.3179276977582177	0.6810008403140343	0.7031297603871174	0.20456391556072048
3														9.215104884842082	-3.130307999974993	1.9757699635158286	0.09876490323933607	-0.3649256087778294	0.9257833407154484	0.7255806912470826	-0.6102717497127792	-0.31796391617903697	0.6810125948743763	0.703134191716371	0.2045095451606968
4														9.25469575463369	-3.0718037557529283	2.027134470393389	0.09880425654043662	-0.3649351088574234	0.9257753967419491	0.7254146969868572	-0.6104258804748072	-0.31804679190651153	0.6811837023042748	0.7029954557248419	0.20441661611831863
5														9.202186565586718	-3.1595262952910903	1.9583216633578278	0.09888209340378357	-0.3649449518670046	0.9257632060688498	0.7252278169425336	-0.6105877204283319	-0.31816230008425056	0.6813713709401451	0.702849783217526	0.20429203874410812
6														9.158631909868205	-3.239176613444314	1.9431368403215494	0.09881148591682154	-0.36497965076098415	0.9257570657474347	0.7250522004072564	-0.6107819220378666	-0.31818980247067224	0.6815684829388061	0.7026630047484497	0.20427702960042965
7														9.119168835793387	-3.237944848121162	1.9722924191552245	0.0987953983907831	-0.3649768944935788	0.9257598693736023	0.725096272041738	-0.6107431317050179	-0.31816383098385165	0.6815239288007283	0.7026981525242328	0.20430477456743298
8														9.069486599655535	-3.1595378065878847	2.0260536724269	0.09868401513934688	-0.3649688289754953	0.9257749289283187	0.7251360732205796	-0.6107443286962723	-0.31807081016587935	0.681497718609693	0.7027013012949359	0.20438136091187067
9														9.104016332170346	-3.087518726906566	1.9884910379787857	0.09863570418415785	-0.36497467554836993	0.9257777725072349	0.72519641362489	-0.6106972126772949	-0.31802370366653576	0.6814405032911479	0.7027392123942887	0.20444177615585832
10														9.08104922316013	-3.0382521929855164	1.9968727863260596	0.09859726516414863	-0.36495609208863933	0.9257891931479536	0.7251286403861564	-0.6107870957875325	-0.3180056265400904	0.6815181833185924	0.7026707439952371	0.2044181776146764
11														9.139771234357925	-3.108068369374639	1.997315714503023	0.09857351379097457	-0.3649445831502822	0.9257962592321093	0.7250695316815758	-0.6108603977086114	-0.3179996049342465	0.6815845043763543	0.7026129985564907	0.204395542156613
12														9.1090995547373	-3.1591161845957	1.9988539945592871	0.0985091601749043	-0.364931685714148	0.9258081929446647	0.7249838609108556	-0.6109759114822317	-0.31797301301721376	0.681684932194063	0.702519252654535	0.2043828585505387
13														9.110780981439841	-3.183025832742469	2.002309368505024	0.09852559702104285	-0.3649253312586618	0.9258089486159679	0.7250234465320435	-0.6109314777436518	-0.31796812966200827	0.681640454132855	0.7025611945643702	0.20438703281236126
14														9.150199081428116	-3.1836784961730835	1.9743379300786412	0.0984536205918693	-0.3649332493877018	0.9258134845008931	0.7251467607383508	-0.6108271200584449	-0.3178874089859218	0.6815196695496241	0.7026478156889404	0.20449202215375442
15														9.169875224310465	-3.183403670513805	1.9614912428018205	0.09847714837524568	-0.36494220360890045	0.9258074525909585	0.7254688477980074	-0.6104834879298848	-0.3178126206424061	0.681173400921169	0.702941746512499	0.2046355269435061
16														9.125463204150382	-3.108761051494175	1.9823730745479091	0.09835571247558339	-0.36495831377455223	0.9258140110358324	0.725636821716463	-0.610347601653322	-0.3176901133577632	0.6810120092866578	0.7030513739143633	0.20479601764798955
17														9.14524459702178	-3.1084076091319672	1.969148034225703	0.09841097413176142	-0.36490537331806194	0.9258290061852915	0.7258287274668337	-0.6101480102043786	-0.3176351114526156	0.6807994848369935	0.7032520701478556	0.20481354271248983
18														9.163488299324	-3.0839270835298067	1.9521141380704345	0.09829476332418446	-0.36485882173162165	0.9258596976365565	0.7258592332559272	-0.6101736425324593	-0.31751614046499865	0.6807837490717303	0.7032539841076508	0.2048592708093922
19														9.156538000184577	-3.114758538261224	1.9024749112243458	0.09820183971314655	-0.3647914690845282	0.925896097172953	0.7258228224688565	-0.6102672577357304	-0.31741944571663444	0.6808359780889207	0.7032076920930719	0.20484460627714704
20														9.16738258387213	-3.1300824323161587	1.9592836090732026	0.09805176079303496	-0.3647470215038566	0.9259295127111193	0.7257433660447117	-0.6104176703135619	-0.3173118882283733	0.6809423021427568	0.7031001906364619	0.20486020374756467
21														9.189073757681564	-3.153697500279091	1.9484564661386772	0.09796891973489874	-0.36467390951467704	0.9259670785104936	0.7257405508719027	-0.6104749346755607	-0.3172081445250386	0.6809572259592558	0.7030883968976815	0.20485107410439454
22														9.157045615295889	-3.1797811218474434	1.946873709206698	0.09786204199148824	-0.3646124306446672	0.9260025897137893	0.7257160950516752	-0.6105590343731655	-0.3171022152686038	0.6809986564745958	0.7030472537210395	0.20485455551463838
23														9.15904705771219	-3.2026951220856192	1.9505645510910399	0.09782451468162695	-0.3645219201732663	0.926042188045717	0.7258760788061931	-0.6104380873503692	-0.3169688623965585	0.6808335204323077	0.7031991974008631	0.20488193241604422
24														9.12545137099549	-3.204095547068246	1.9462111296585243	0.09771442005176317	-0.36441664037681676	0.9260952458200082	0.7260343079794489	-0.610349566824365	-0.31677687717715897	0.6806805974543055	0.703330589761162	0.20493902936109
25														9.142307839239445	-3.1545608475483813	1.9260185143131405	0.09770506635409715	-0.36428754483849657	0.9261470210956152	0.7262815023270051	-0.6101415041790572	-0.31661099831772455	0.680418179788261	0.703577948456074	0.20496138919311607
26														9.148283655296316	-3.0969026865193867	1.9731549861672943	0.09767027367305703	-0.3641684088625009	0.9261975424428553	0.7264127305081313	-0.6100587986779324	-0.31646928304554184	0.680283075341693	0.7037113272800095	0.20495195842308075
27														9.127274376348083	-3.071025725181126	1.984292604370684	0.09765930856263505	-0.36406776953527464	0.9262382623475873	0.7264809644435776	-0.6100264637709105	-0.3163749702493661	0.6802117815446873	0.703791426975896	0.204913541678032
28														9.07004749490655	-3.153064919025808	1.9496660595153015	0.09765133907927193	-0.36397865945550767	0.9262741232685906	0.7264049886252504	-0.610138316429947	-0.3163337277692332	0.6802940602977322	0.703740556089388	0.20481509035865503
29														9.107716901216358	-3.1979919720346714	1.960409334743041	0.09778242460945014	-0.36386418761823813	0.9263052684760122	0.7264692034226653	-0.6100646548477544	-0.3163283316175277	0.6802066553011192	0.7038636017542107	0.2046825254135159
30														9.183054019333335	-3.220124397566048	1.9391364730836669	0.09789706002931164	-0.363780791604138	0.9263259152682084	0.726541769667645	-0.6099775175954805	-0.3163297092532755	0.6801126543197265	0.7039822183037878	0.20458693444659196
31														9.213478570236193	-3.2369586616670767	1.9807393925954226	0.09805980441531364	-0.3636972554900736	0.926341503500204	0.7267227346021005	-0.609761123244698	-0.3163312181745731	0.6798958315583907	0.7042128079837461	0.204514007591588
32														9.178014728054658	-3.215537606659275	1.9718662644070182	0.0981976109288849	-0.3635549981187309	0.9263827462505709	0.7269220925544848	-0.6095543824401907	-0.3162716019565581	0.6796627844483387	0.7044652001276204	0.20441937590425097
33														9.17315308661347	-3.1428004563803627	1.9616540360462291	0.09837446759313906	-0.36348350348819314	0.9263920373242178	0.7271555632310334	-0.6092740952743503	-0.3162749811315789	0.6793874086174434	0.7047445065550854	0.20437203696324072
34														9.189258925588266	-3.163267308416643	1.983905027350401	0.0985320390833967	-0.36338292141551165	0.9264147503670241	0.7272827984268676	-0.6091206004846434	-0.31627808203796093	0.6792283624720421	0.7049290364914436	0.20426425317414895
35														9.193099743760799	-3.143646083129147	1.9457064234132844	0.09875575592630365	-0.36328205186337237	0.9264304892788033	0.7273592545140302	-0.6089963860289522	-0.3163414558297257	0.6791139930410941	0.7050883296421904	0.20409466396299353
36														9.176946430039017	-3.1916277204292776	1.965343824340018	0.09884589177040681	-0.36317446457583336	0.9264630580655495	0.7273051877737996	-0.6090573017384773	-0.3163484898594643	0.679158783729866	0.7050911370022334	0.20393586002335812
37														9.207417075480274	-3.2089518150054217	2.0060373040302264	0.09910882711634672	-0.36309995566314845	0.9264641723159303	0.7273329405029512	-0.6089606917312378	-0.31647064569331357	0.6790907406576477	0.7052129452325957	0.2037411785315268
38														9.175399968908845	-3.168844083153028	1.9592296632812274	0.09924095298633712	-0.36306142403808717	0.926465129201202	0.727253044075812	-0.6090099475025532	-0.31655946317461836	0.6791570091906796	0.705190248243957	0.20359879824988553
39														9.175316281297471	-3.169755780942015	1.9581464883843376	0.09940927431053631	-0.3630321461764108	0.9264585565601959	0.727226462154474	-0.6089878256880884	-0.3166630715855294	0.6791608564422278	0.7052244245672747	0.2034675454966127
40														9.128523443221694	-3.201619516847943	1.9358514595744816	0.0996041731401866	-0.3629957195336423	0.9264518963730997	0.7272051263921554	-0.6089532456788495	-0.31677854839960995	0.6791551463708634	0.7052730337801438	0.2033180635863991
41														9.133867033021923	-3.1467230206195174	1.9817937052039838	0.09984692273371265	-0.3630056547929229	0.9264218729115635	0.7273358738256411	-0.6087277996986313	-0.316911647814267	0.6789794685164633	0.7054625152780438	0.2032474375500876
42														9.133546635131832	-3.1479131209194064	1.9813802909025886	0.10002307476288003	-0.36301024100101587	0.9264010737490339	0.727385943765473	-0.6086115729539217	-0.317019939560534	0.6788998993425986	0.7055604284502759	0.20317334588393168
43														9.13487924142496	-3.173330110498341	1.9841763087394457	0.10036989172123445	-0.3630111970027035	0.9263631877868053	0.727623335168393	-0.6082409864843166	-0.31718635607322354	0.6785942579732693	0.705879432489182	0.20308633591272995
44														9.161476422942513	-3.143387917439942	2.019295585239643	0.10061980869850673	-0.3630312793643402	0.9263282054976878	0.7277547504548616	-0.608008315192762	-0.31733091851699735	0.6784163008712705	0.7060695283465711	0.2030200577593074
45														9.145052617440744	-3.1243898956987923	1.996169578352902	0.10098437906989699	-0.3630382095756429	0.9262858163504283	0.7280142282874115	-0.6076056705168742	-0.31750690160502804	0.6780836516204712	0.7064124910729224	0.20293830062656032
46														9.178667810069864	-3.1229629674488297	2.000577131650088	0.10124918660332116	-0.3630500048979168	0.9262522853714256	0.7281022770836116	-0.6074152725655881	-0.3176692631649025	0.6779496119313188	0.7065701526371568	0.2028372329836891
47														9.216053203514631	-3.101612033729554	1.967563072752127	0.10149559409059988	-0.36302447979248864	0.926235321854867	0.7281658777915117	-0.6072696206185529	-0.31780192304943033	0.6778444502983804	0.7067084511629896	0.20270684807005118
48														9.215751152142298	-3.1030850034605852	1.966655152437812	0.10169225242134933	-0.36303877731361567	0.9262081472131994	0.7281461974061436	-0.6072148638847463	-0.3179516068215452	0.6778361166243992	0.706748155458551	0.20259625799972214
49														9.211689979507145	-3.124614037943633	2.0029341166812444	0.10194266837804206	-0.36306253860165305	0.9261713045803613	0.7281524883227135	-0.6071104787858801	-0.31813648061456357	0.6777917424352452	0.7068256217855314	0.20247442869185153
50														9.177227990909698	-3.129349770883969	1.997199472912457	0.10206753007487152	-0.36312377452874495	0.9261335452710984	0.7280156340360948	-0.6071873997268994	-0.31830284040817236	0.6779199480052487	0.7067280848989127	0.20238566676441577
51														9.16784138982671	-3.1387674802809338	1.9431764737131278	0.10234858484706089	-0.3631174417861265	0.9261050105957231	0.7280932215966371	-0.607007926963339	-0.318467639280196	0.6777942370991623	0.7068854929013397	0.20225694569234431
52														9.162130767861136	-3.1361051973177223	1.9762744217712547	0.10251888952770216	-0.36318065005532063	0.9260613871204231	0.7280153844065468	-0.6070062644794397	-0.31864870147249147	0.6778521058146794	0.7068544477529386	0.20217149238825294
53														9.147346523932343	-3.141336002019421	1.9562759275047212	0.10271137779198442	-0.36319605495663965	0.9260340158633512	0.7280299306636727	-0.6069167039845296	-0.31878603244559234	0.6778073420448613	0.7069234329745252	0.20208034783618092
54														9.15599555534223	-3.134984167955732	2.0089313201196215	0.10292455316856247	-0.36323054380985853	0.9259968187843013	0.7280444161687866	-0.6068131534063069	-0.3189500351756439	0.6777594443757331	0.7069946031595208	0.20199199653156882
55														9.141174204277188	-3.140263482859193	1.9890128318589708	0.10316969820384347	-0.3632721822396288	0.9259532034521972	0.7281240065462979	-0.6066276460053925	-0.31912118418074875	0.6776366610975936	0.7071323926343741	0.20192160563865097
56														9.124219291905634	-3.1895057016356296	2.009826589796261	0.10339306562315509	-0.36332917516442054	0.9259059263528819	0.7282342840373108	-0.6064125234051108	-0.31927837228680545	0.6774840968862013	0.7072876090613976	0.20188991191860078
57														9.098167094425557	-3.2465915412531987	1.9775468962132363	0.10372923373953741	-0.3633629107377155	0.9258550864838535	0.7285000762383957	-0.6060021529791877	-0.31945113789943125	0.6771468710615598	0.7076219228407249	0.20184976920158995
58														9.12910943888268	-3.34925084478553	1.9426904978723496	0.10400891878115404	-0.3633463882258252	0.9258301933817148	0.7288829551199798	-0.6055065669178158	-0.3195175036754113	0.6766917928788121	0.7080545173802996	0.20185890584220037
59														9.158049071280692	-3.274041851062209	1.9388263001946957	0.10423397959390857	-0.3633222436184096	0.9258143576279758	0.7294976932900132	-0.6047897096035068	-0.3194722564515666	0.6759943734843998	0.7086793029641762	0.20200310039116415
60														9.161425190896905	-3.2537386177435237	1.9040194815167717	0.10437744381004616	-0.36336067804065453	0.9257831100627814	0.7301509114639967	-0.6040390329633797	-0.3194002084297368	0.6752666108375083	0.7092995589386054	0.2022600800393501
61														9.14942691482565	-3.151825699440649	1.9276374842273145	0.10446741138021565	-0.3633987021125752	0.9257580371038718	0.7309079348772468	-0.603197225544659	-0.31925960882752624	0.6744332069916161	0.7099961199880761	0.20259654219379536
62														9.183746182748314	-3.086594866095013	2.0168132559422105	0.10434014600001534	-0.3635237492099624	0.9257232943450371	0.7314316521367614	-0.6026486227970551	-0.31909618564517617	0.673884910192522	0.7103978612025414	0.20301233118623957
63														9.183228645975698	-3.0780477812033777	1.8968546616503525	0.10418280180921069	-0.36369323475314835	0.9256744432045071	0.7318274793094184	-0.6022299259737851	-0.31897908519091406	0.6734793867185586	0.7106661292452321	0.2034187022099826
64														9.129578381982002	-3.0181086789074647	1.9908937990622024	0.1039134483188433	-0.36389281759128167	0.9256262812625647	0.7320835769494098	-0.6019888070056731	-0.31884653455987744	0.6732426246305591	0.7107682417957093	0.20384522274311856
65														9.166284727789135	-3.062424602891289	2.0065793903643847	0.10368489441195905	-0.3640769256739644	0.9255795129877153	0.7321551237363293	-0.6019329692762998	-0.31878766488817956	0.6732000575292771	0.7107212482330978	0.20414943020387355
66														9.161599533394478	-3.1421761798105665	1.9669609595497706	0.10338700475737	-0.3642486204678782	0.9255452823792838	0.7321651618078967	-0.6019715368024713	-0.31869177070405896	0.6732349538475533	0.7106005990476786	0.20445411600396862
67														9.146416100499406	-3.2126009943475378	1.994873884355385	0.1032012576487476	-0.36434944400533664	0.9255263275956652	0.7323795369044656	-0.6017780120485264	-0.3185646529960974	0.6730302477179738	0.7107128160290382	0.20473782940325688
68														9.157454451734319	-3.1588731432221215	2.0106997003289564	0.10293381511668365	-0.36442207941604554	0.9255275132267056	0.7326452760197075	-0.6015695241646072	-0.3183473058192494	0.6727819328961882	0.7108520631119062	0.20507026878125342
69														9.138365144898115	-3.0879130144617735	1.9843877501209566	0.10268490717635553	-0.36444075516844165	0.9255478084952926	0.7329785071358881	-0.6013013342739737	-0.31808680179659055	0.6724569264384357	0.7110693646702793	0.2053826689678983
70														9.122572820058753	-3.065090728028279	1.964678894708718	0.10241855300671598	-0.36446131768675555	0.9255692237266989	0.733211531979792	-0.6011445859455912	-0.31784593148277007	0.6722434747707534	0.711191348863537	0.2056588824481109
71														9.149425126634513	-3.092187801199882	1.9228083947511687	0.1021873677609097	-0.36447145001001535	0.9255907864697522	0.7334308223585143	-0.6009930370494853	-0.31762650744632515	0.6720394115560567	0.7113142284150049	0.20590069880832373
72														9.12832767279976	-3.065025864316737	1.9363287063813177	0.1018625261678957	-0.36448015589403804	0.9256231639939403	0.7335034714264708	-0.6010310967126329	-0.31738663832891023	0.6720094368147009	0.7112776087744276	0.20612491379772852
73														9.161917390357141	-3.1880485549527884	1.9082124469815296	0.10147182641336178	-0.3644628942532824	0.9256728726482469	0.7336114532591196	-0.6010644431009361	-0.3170737625329544	0.6719506708765007	0.7112582751379998	0.20638304667859314
74														9.212570091286555	-3.201564557487517	1.9391391371591626	0.1009379262509249	-0.3643908938588473	0.9257595862408947	0.7336942003113958	-0.6011949285890618	-0.3166346131872098	0.671940738066672	0.7111848805420029	0.20666811610616892
75														9.213504261778807	-3.196739019518671	1.9426590351233304	0.10039607528152111	-0.3642970137177939	0.9258554497676001	0.733965123701972	-0.6011362242983896	-0.31611775816209	0.6717260046009954	0.7112825919650883	0.20702958510852906
76														9.200972866843806	-3.0658550436987286	1.9630073357532	0.09968309962994898	-0.36415432700080047	0.9259886099595177	0.7341581397863934	-0.601237998922588	-0.3154753467974074	0.6716212514755232	0.7112696357768664	0.20741359595816217
77														9.211095105834094	-3.050880770361861	2.0204639009762033	0.09891637344418147	-0.3639953141605422	0.9261333393922384	0.7343710197504539	-0.6013429760870284	-0.3147790184581458	0.6715018662783665	0.7112622838165703	0.20782494365380433
78														9.15702622433763	-3.0221993469924358	2.030535583634121	0.0981255198807815	-0.363827054498384	0.9262835725430719	0.7345499471143213	-0.6014949487812264	-0.3140703771211443	0.671422190236869	0.7112198682585434	0.20822713908572538
79														9.221054244597195	-3.004219949039031	2.0783466421167165	0.09739216029670567	-0.3635702430178236	0.9264617884752188	0.7347603823120552	-0.6016220712081669	-0.3133337901022443	0.6712987022908526	0.7112436726095743	0.20854373755992103
80														9.201132055081212	-2.972067569922824	2.092938666230321	0.09657521436933791	-0.3633757980964625	0.9266235790909247	0.7349226535939202	-0.6018081884725409	-0.3125949416127353	0.6712390939180966	0.7111855831252187	0.20893335097790228
81														9.15570635622632	-2.935078631488846	2.155868634233132	0.09588838275185169	-0.36320340857630806	0.9267624841628979	0.7351600660030486	-0.6018599494725954	-0.3119363373754935	0.6710775628849672	0.7112298399388175	0.20930126462345258
82														9.124650470271757	-2.9559416991295895	2.157977441645727	0.09516057051834081	-0.3630496061107331	0.9268977555919877	0.7352472231005882	-0.6020786253074112	-0.3113082875074332	0.6710856776459297	0.7111232751434721	0.2096370692595274
83														9.09907573436611	-2.982070983156123	2.125783023787468	0.09458438727728197	-0.36289993259853365	0.9270153356894166	0.7353449247824877	-0.6022301936306313	-0.3107839047895674	0.6710600832116449	0.7110713275049086	0.20989504977580636
84														9.099984718276943	-2.977192268735745	2.1287281813894894	0.09401164481705754	-0.36281926584434776	0.9271051671579449	0.7353827418726905	-0.6024204274485068	-0.3103253962352476	0.671099123523937	0.7109513407575289	0.21017649126502394
85														9.079098291585886	-2.9483183902391503	2.142413905457478	0.09355126519199553	-0.362762432109927	0.9271739743061532	0.7354503107988835	-0.6025310009789141	-0.3099503721649216	0.6710894136602085	0.7108866370308548	0.21042620598242773
86														9.08306338891119	-2.993441055599914	2.152041653941319	0.09312306151551974	-0.3627952887871111	0.9272042244553536	0.7353397693207511	-0.6027886125581091	-0.3097116598153431	0.671270079080903	0.7106514384732834	0.21064428291926587
87														9.033738849270293	-3.103320271417514	2.0901207054537343	0.09281375603001263	-0.3627928201607031	0.9272362030957622	0.7352465207569716	-0.6029974510356713	-0.3095264572847559	0.6714150433274264	0.7104755053373252	0.21077570047162233
88														9.084502943270829	-3.1797282732876555	2.039966192061215	0.09254928525593609	-0.3628393791759828	0.927244420159972	0.7351828590950369	-0.6031426485820186	-0.3093947464879049	0.6715212531941656	0.710328466542525	0.21093287114122913
89														9.120331524084945	-3.19933512854997	2.050292437362032	0.0925680765862586	-0.3628388698983245	0.9272427436696542	0.7354412448364724	-0.6028627624801374	-0.30932614666108993	0.6712356714228627	0.7105662841042524	0.2110408237848178
90														9.188238128543617	-3.1915569606213476	2.0626878166605476	0.0923816104573627	-0.3629069399961553	0.9272347011150583	0.7355790191812199	-0.6027600377216313	-0.3091987119413867	0.6711103818223194	0.7106186669574935	0.21126278797236475
91														9.24005511069821	-3.163877683004111	2.052125057759596	0.0924050753959525	-0.36294117546425025	0.927218962917442	0.7358068941700466	-0.6024989641381429	-0.30916534848571653	0.6708572996792225	0.7108225526564932	0.2113806568776075
92														9.34164532850713	-3.15375813336799	2.069506623045787	0.09237140597302829	-0.36305231183285214	0.9271788081224609	0.735929385318449	-0.6023439959889881	-0.30917575959448584	0.6707275625642467	0.7108971299483765	0.2115415028966779
93														9.372304690279961	-3.1636168538527674	1.9893111211518373	0.09244218289549011	-0.36313432560721326	0.9271396358625338	0.7360826957346189	-0.6021290920237048	-0.30922939960289353	0.6705495566038157	0.7110372832028599	0.21163476565517964
94														9.34247450962851	-3.178730142937711	2.076077519565809	0.09239840646498593	-0.3633077682062129	0.9270760486841149	0.7360311644299837	-0.6021413523753769	-0.3093281699868181	0.6706121527906969	0.7109382936096299	0.21176893825312126
95														9.256880775344914	-3.2032463595043636	1.9603682943024838	0.09242794163299195	-0.36344652111249903	0.9270187171231823	0.7359878598044749	-0.6021305016327483	-0.3094523052490061	0.6706556089573228	0.7108765612219305	0.21183854436661417
96														9.159024548696468	-3.22543756901785	2.0361465728970907	0.0924139942524666	-0.36359205774780745	0.9269630355138334	0.7358888257837984	-0.6021917994637105	-0.30956852673552104	0.6707661960421438	0.7107502037997413	0.2119123829458272
97														9.085603751045802	-3.2896840033241133	1.9803659863952325	0.09251045712406952	-0.36370766112746866	0.9269080604676397	0.7359553448208386	-0.6020485457045058	-0.30968900375171493	0.6706799130377589	0.7108124125620455	0.21197681098504184
98														9.054088960292484	-3.213439955816893	2.018960016850328	0.09253275914304943	-0.3638818966479099	0.9268374473322135	0.7359313927361877	-0.602007802045867	-0.3098250981784381	0.670703118876563	0.7107577446414661	0.2120866680426351
99														9.031671484914463	-3.1902140166019812	2.03098995860658	0.09275506391610056	-0.3640538794667363	0.9267476846278816	0.7361151787974087	-0.6016766625545312	-0.31003167141648635	0.6704706866537712	0.7109500450681892	0.2121770292834752
100														9.043107888809171	-3.1641283177535597	2.0481288976649092	0.0929122726227895	-0.36424898937697353	0.9266552667167663	0.736150887144225	-0.6015177031647886	-0.310255256419818	0.6704097112608366	0.7109846176375478	0.21225383984736554
101														9.063693620560262	-3.1911046330631736	2.0383583566289287	0.09320241441465793	-0.36442806323158466	0.926555716984443	0.7363313443080144	-0.6011631737141445	-0.3105140736898898	0.6701712179263082	0.7111926780410595	0.21230994645554202
102														9.09491086210916	-3.1658789339388145	2.0411347455958437	0.09339901871430972	-0.3645963909554983	0.9264696945963369	0.7364883378383809	-0.600870131254581	-0.31070888882386644	0.6699713064984674	0.7113540307528512	0.212400309322771
103														9.131901889084858	-3.144890989079796	2.0102460044520725	0.09370850494088723	-0.364725191719594	0.9263877431328899	0.7368102489936148	-0.6003746367544878	-0.3109034456545705	0.6695740235998641	0.7117062807556376	0.21247304971046657
104														9.143414787067554	-3.1186326620841895	2.027508298692572	0.09389860203737938	-0.3648960949679633	0.9263011888217341	0.7370272883344258	-0.6000186268346193	-0.311076234550153	0.6693084705767811	0.7119188769295486	0.21259746914190034
105														9.160728695291843	-3.0966484728174306	2.010910263589825	0.09412178121646608	-0.3649775167881098	0.926246458854135	0.7372903532819679	-0.5996315673431852	-0.3111991619572685	0.6689873132264847	0.7122031983112265	0.21265601110071897
106														9.176441219782026	-3.0503063059492823	1.9905823337187607	0.09423828705345783	-0.3651007642982609	0.9261860380949691	0.7374291989897923	-0.5994006120293967	-0.31131508600782243	0.6688178539262415	0.7123344286271796	0.21274947723058285
107														9.14685104436971	-2.998198827504284	2.0322780423028646	0.09440805717692036	-0.3651955507678717	0.9261313775266609	0.7375194116783159	-0.5992118408570484	-0.31146474467325924	0.6686944265789498	0.7124446501139992	0.21276838201713935
108														9.154260126037443	-3.0898388376424903	1.9226357338633786	0.0945467557113781	-0.36532971767350686	0.9260643111409972	0.7374813804418006	-0.5991575091258776	-0.31165925745873624	0.6687167744913463	0.712421558238288	0.21277546585830884
109														9.110004342204226	-3.109879308831872	1.9885695817529132	0.09483026570714342	-0.36541103890085835	0.9260032361473194	0.7376024478426652	-0.5988994065109994	-0.31186877018592496	0.6685430798702663	0.7125968520349836	0.2127342869107159
110														9.149083073431852	-3.113026194915445	1.959890937232372	0.09502996100739014	-0.3654643134867722	0.9259617389928033	0.7376224178008971	-0.5987884574200002	-0.3120345365791031	0.6684926890164865	0.7126627665510659	0.21267182677375995
111														9.128845362053832	-3.113877168224994	1.9736354113565173	0.09532544623186656	-0.36546135874437746	0.9259325324047154	0.737777545025086	-0.5985178085903909	-0.3121870062268986	0.6682793976754431	0.7128915962927813	0.21257520687436116
112														9.171452550738458	-3.0358586209869878	1.9872990419978822	0.09554711304855157	-0.3654878446759511	0.9258992302525233	0.7379190897294272	-0.5982780763745547	-0.3123119599734474	0.6680914355093777	0.7130792233151171	0.2125367146526185
113														9.151244805154947	-3.036457769327781	2.0013594072843834	0.09583432321360336	-0.3655075612762599	0.9258617635176826	0.7381209872870576	-0.5979523815436323	-0.3124585693058828	0.6678272161424476	0.7133422545007277	0.21248444019092116
114														9.14519117867335	-3.0332224466483164	2.0348476722802236	0.09604216679489952	-0.3655438524943714	0.9258258983744809	0.7381958019962517	-0.597785249259376	-0.31260158938018356	0.6677146547084705	0.7134637255470523	0.2124303467399824
115														9.136352780980527	-3.04319142059782	1.980887759005909	0.09634335544086375	-0.3655123570715387	0.925807039663451	0.7383025201665512	-0.5975731083227064	-0.3127551261374587	0.6675532537394406	0.7136575488548736	0.2122864960008971
116														9.134417954945587	-3.0206540211277386	1.9760059772779917	0.0966587554944961	-0.36547124157427774	0.9257903955909303	0.7383845876683184	-0.597385282571108	-0.31292015732663325	0.6674168754834886	0.7138358324920328	0.21211581405040023
117														9.16423321337655	-3.038563156581721	2.017145753493796	0.09704609237494982	-0.36542222984595807	0.9257692206425747	0.7385543019123025	-0.597080144856001	-0.3131019702039068	0.6671728404855701	0.7141161632067603	0.21193986497417464
118														9.164033312462982	-3.040110129000437	2.0157225218069086	0.09733849865420452	-0.36537433680805265	0.9257574253992353	0.7386255754222326	-0.5969141426935767	-0.3132503241571628	0.6670513293682283	0.7142794272933161	0.2117721032941102
119														9.16226272263761	-3.0174817201013444	2.0103055944011885	0.09771578445123541	-0.3652607808549928	0.9257624897554879	0.7387145517156446	-0.5967205021661457	-0.313409402185283	0.6668976207429693	0.7144992682038122	0.21151444202130237
120														9.148104688704231	-3.022756772036736	1.9886146801193687	0.0980068023613021	-0.3651522367905833	0.925774546343626	0.7387123341970612	-0.5966540455228507	-0.3135411253190646	0.6668573715540993	0.7146102391710112	0.21126630605922048
121														9.162399070855072	-3.0200720578165643	2.0057893088696837	0.09831622616314445	-0.36501435327686993	0.9257961123135625	0.7387224801757326	-0.5965775427052118	-0.3136627692647413	0.6668005826002648	0.7147445399873162	0.21099105573997176
122														9.146096560050516	-3.068682544098198	2.0248935097155103	0.09858757332888435	-0.3648978462611203	0.9258131842759197	0.7386795591963204	-0.596564465666923	-0.31378869821755634	0.6668080677456235	0.7148149411543765	0.21072873722350646
123														9.117262055844746	-3.1452910688513342	2.0281060914092004	0.09898041332608537	-0.3647391505801222	0.925833802478549	0.7388056303540133	-0.5963402621896379	-0.31391803428411647	0.6666101696906573	0.7150829628271712	0.21044533242461802
124														9.114082147610356	-3.098123708980981	2.0185804785030923	0.09931622400233298	-0.3645780989985229	0.9258612732912755	0.7389374186706071	-0.5961312622898743	-0.3140047920161426	0.6664141197021102	0.7153393095946179	0.21019489339743097
125														9.121250082795644	-3.066441844800745	2.0659158909701465	0.09971635481288371	-0.36441129225086566	0.9258839336887132	0.7391195141031431	-0.5958465452382136	-0.31411660000646147	0.66615237930579	0.7156614455227694	0.20992785174315362
126														9.148812868685512	-2.9679123464092814	2.0541474607957424	0.10003858882145672	-0.3642283631547574	0.9259211522695747	0.7391873061114442	-0.5957182787292422	-0.3142003482995752	0.6660288336328368	0.7158613216688512	0.2096381666305254
127														9.163359169139037	-2.9650627000428393	2.070687655809817	0.10039195688339492	-0.3640420649302094	0.9259561706444164	0.7391654553797489	-0.5956760750389185	-0.3143317406808882	0.6659999133381107	0.7159911930935868	0.2092862318597454
128														9.16536546561493	-2.9904726196026417	2.070891570238114	0.10068008238336201	-0.3638552321738605	0.9259983212895071	0.7389768113321241	-0.5958371287271939	-0.31447001183505463	0.6661657401313019	0.7159521534640699	0.20889164805102936
129														9.15648980050092	-3.068158243205917	2.0583591456736485	0.10111993160766247	-0.36363656435081027	0.9260362889751141	0.7388862503295345	-0.59584815347015	-0.31466186149607245	0.666199571078834	0.7160540671439218	0.20843393298843108
130														9.160230497876215	-3.1176856278482425	2.061693040085875	0.1013847572748548	-0.3634319938056103	0.9260876399514241	0.7387239428632073	-0.5959953858575787	-0.31476409623258095	0.6663393033830111	0.7160353943171772	0.208051067894613
131														9.130465506877092	-3.1022849513417965	2.0159552468642024	0.1017377189055797	-0.3632339355661547	0.9261266352961737	0.73874464811383	-0.5959115035464279	-0.31487430003766426	0.666262546925056	0.7162056883285403	0.20771044887241275
132														9.12706464448519	-3.122357218551891	2.050481867211421	0.10193778662682912	-0.3630464473076003	0.9261781495775816	0.7386680829936334	-0.5959844317144132	-0.31491589404245496	0.6663168546751117	0.7162400674713596	0.2074174894373384
133														9.127608965806767	-3.1224292213802918	2.047947684859824	0.10220635952446694	-0.36279728490874263	0.9262461822515655	0.7387955688525107	-0.5958338794726525	-0.3149017235844602	0.6661343464472094	0.7164915338895592	0.20713501478006108
134														9.160607628106678	-3.0948212366330354	2.0471458509060763	0.10234775375698879	-0.3625700090866522	0.9263195592298609	0.7388211792234636	-0.5958318840673286	-0.31484540819206536	0.6660842307334333	0.716608229397125	0.20689234671337664
135														9.195236925216678	-3.0912277493632097	2.050179082477397	0.10256375796595074	-0.36235194259082487	0.9263809935726003	0.73894994514651	-0.5956884198364563	-0.31481468364851795	0.6659081424039449	0.7168377614030961	0.2066639051859953
136														9.176146439710394	-3.0898070331152154	2.0626629504739067	0.1026447654342002	-0.36213118610933037	0.9264583402269138	0.7389599549524473	-0.5957230189546285	-0.3147257054392929	0.6658845523854982	0.7169205595703285	0.2064525954298756
137														9.144481153319942	-3.1160267319613015	2.059670274052485	0.10268789088205399	-0.3619330833087302	0.9265309710273215	0.739012761351147	-0.5957176693467227	-0.3146118195304519	0.6658192965259779	0.717025035570408	0.20630017629393158
138														9.204443347282892	-3.055669274393219	2.0951143312649614	0.10262588692345631	-0.36173029110321564	0.9266170319131612	0.7389442569041913	-0.5958829403692225	-0.3144597057895363	0.6659048824880969	0.7169900402901787	0.20614550590105404
139														9.169433700172883	-3.033461920585682	2.0852881014078215	0.10263080290302679	-0.3615682471279306	0.9266797294450309	0.7389041355052248	-0.5959793245807168	-0.314371314221875	0.6659486442877982	0.7169916647640671	0.20599843647488056
140														9.173414007798844	-3.080673020587343	2.0911717846442976	0.10253595726776926	-0.3614110176103603	0.9267515599215497	0.7386892717919308	-0.596298535881615	-0.31427092745742347	0.666201574004962	0.7168055053187622	0.205828400222187
141														9.231207357879146	-3.1253415634783916	2.0876600390137194	0.10247227251806218	-0.36123962379656843	0.9268254245349001	0.7385666417098549	-0.5965117936250708	-0.31415441397444643	0.6663473186847912	0.7167144579715933	0.20567361672337658
142														9.29450365594001	-3.1741767809716306	2.050724912854137	0.1022703416550762	-0.3610851902071831	0.9269079040718102	0.7383865194165219	-0.5968313730601891	-0.3139707949396625	0.6665779212978091	0.7165262015754424	0.20558228837660092
143														9.275596784132146	-3.1711861797435046	2.0649018485144146	0.10197030751821778	-0.36092772592607225	0.927002283191619	0.73828606635867	-0.5971018087912305	-0.3136927065758507	0.6667351352713325	0.7163802109188077	0.2055812559516141
144														9.188759512263847	-3.2349829482003223	1.989990139362832	0.10158762332532822	-0.3607876080511797	0.9270988386702996	0.7382454480853965	-0.5973318662139575	-0.3133501236421354	0.6668385210591106	0.7162589919031088	0.20566828474424287
145														9.177177882589726	-3.197878858510648	2.055454201952518	0.10128073691400452	-0.36060114190133796	0.927204955114891	0.7384820112010058	-0.5972520445529707	-0.31294458680382	0.666623230515314	0.7164194384135226	0.20580732931695855
146														9.164151642617778	-3.197149024761863	2.037640209852129	0.10081052757807268	-0.36036493775087464	0.927348019445364	0.7385610608240174	-0.5974171491539664	-0.3124424896380932	0.666606928379786	0.7164006292128421	0.2059255727186674
147														9.142361736735719	-3.1429659617177883	2.04677299520306	0.10035352065154862	-0.36012021945568207	0.9274926406349705	0.738844509592971	-0.5973601702298531	-0.31188077476382425	0.6663617347485985	0.7165711789921169	0.20612565075867234
148														9.184954644944158	-3.033864352328933	2.059541813541539	0.09976085591391504	-0.3599382093041008	0.9276272188278444	0.7389601683976217	-0.5975110385247498	-0.31131724713358655	0.6663224753443956	0.7165368408700514	0.20637178713885523
149														9.175081454089508	-3.019254062124322	2.130175731445683	0.09919966729182744	-0.359827790753888	0.9277302339637136	0.7391421667612605	-0.5975547020428126	-0.31080095782026484	0.666204385548954	0.7165558869116222	0.20668666528743224
150														9.188749460400977	-3.047355450145697	2.069700542944432	0.09843629727996717	-0.35978994432937594	0.9278262182851243	0.7390004508604466	-0.5979944336744376	-0.3102917835239051	0.6664747774716363	0.7162079678793402	0.20702057322952117
151														9.176614552590971	-3.00912822637303	2.1378860347801885	0.09770444895834124	-0.3598292755057474	0.9278883193266072	0.739023778693031	-0.5982189722239905	-0.3098030274183041	0.6665565956316244	0.7160006660334064	0.2074737358310629
152														9.14861152363135	-3.0125819017002144	2.1033207360915016	0.09700074220052529	-0.3598909230919063	0.9279382412039088	0.7388522188929254	-0.598634692051798	-0.30940895932252915	0.6668494992496798	0.7156221272068839	0.20783819764987074
153														9.122394339207478	-3.0406434931321815	2.0718665944455674	0.09636322868689667	-0.3599377996446695	0.9279864807980719	0.7388028584489859	-0.5988999294823636	-0.30901328582057297	0.6669966000697786	0.7153765825444478	0.208211144376045
154														9.170835313475525	-3.029780517853839	2.1005706572388054	0.09580328520656628	-0.36003138131628537	0.9280081546037819	0.7388205112977975	-0.5990496931171886	-0.30868060720081403	0.6670577056217029	0.7152040755222874	0.2086076406247383
155														9.143714939713929	-2.997578422711437	2.14895455728679	0.09542859123426328	-0.3600977081244584	0.928021025935596	0.7389586229096635	-0.5990131311730473	-0.3084208525857407	0.6669584226940218	0.7152013068261088	0.2089343272699069
156														9.103031519097678	-3.0310154523733956	2.097475605642179	0.09498476734757788	-0.36019379510174754	0.9280292689038028	0.7389227560665255	-0.5991777400784821	-0.3081869503426336	0.6670615073132136	0.7150150108666553	0.2092426335534425
157														9.142529791932134	-3.030402126309027	2.0719084016092895	0.09479717882659267	-0.3602923656380811	0.9280101864470207	0.7390509521824874	-0.5990743548432466	-0.30808052104491546	0.6669461634679952	0.7150519761752031	0.2094838571424038
158														9.129936675356177	-3.057422465773966	2.0586439959797396	0.0945207558864069	-0.3604429567337619	0.9279799036874051	0.7389918968912905	-0.5991860253277398	-0.30800500544789455	0.6670508249269126	0.7148824952346845	0.20972890828723836
159														9.119275548066009	-3.041226166124798	2.004086667793592	0.09423805268087448	-0.3605554861969611	0.9279649405016285	0.7388034481619437	-0.5994510761044017	-0.30794134561844433	0.6672995237604625	0.714603490567006	0.20988853436648736
160														9.18208523273692	-3.090981022896288	1.9699756921647584	0.09407294551285883	-0.3606809190965252	0.9279329477511947	0.7386454200012351	-0.5996372883123282	-0.3079578964349471	0.6674977336543807	0.7143839283362444	0.21000566302160012
161														9.183619571810434	-3.115386312760703	1.9744488021382784	0.09409059048479129	-0.3607430629715221	0.927907001428563	0.738600536820311	-0.5996584267079169	-0.3080243793710712	0.6675449106921355	0.7143348051131974	0.21002280450684074
162														9.246450085341605	-3.1657776669025344	1.9393022380653688	0.09401245348217363	-0.3608355622979847	0.927878955236813	0.7384415592034632	-0.5998255439584987	-0.3080801526487056	0.6677317741664093	0.7141477534768199	0.21006490419056423
163														9.226274309496672	-3.1657379743797174	1.9544128599235795	0.09407049212032448	-0.36093254276139786	0.9278353528983649	0.738505032699901	-0.599704831507447	-0.3081629954156474	0.6676533974969046	0.7142001222643538	0.21013597066762252
164														9.184442100578421	-3.1408880898869533	1.98047398879607	0.09396834880622829	-0.3610281589140634	0.9278085028138902	0.7384069846994346	-0.5998142215161775	-0.3081850493032244	0.6677762157861867	0.7140599191510917	0.21022216222895346
165														9.146549635808652	-3.0962562092584194	1.9690636784394995	0.09397961127394633	-0.36107062543544455	0.9277908364025027	0.7384239931813608	-0.5997779264920268	-0.30821493342636586	0.6677558228565978	0.7140689338856455	0.21025631667211808
166														9.226602563896604	-3.0616080762257614	1.996169324135772	0.09391268143041948	-0.3611021638669941	0.9277853391367658	0.7383295462196803	-0.5998922028826081	-0.3082187958248054	0.6678696650137584	0.7139569820172827	0.2102749114449554
167														9.236790364269263	-3.010075332563144	2.0090215300769136	0.09393207076081234	-0.3611826495330282	0.9277520464859608	0.7382055811146364	-0.5999910686756023	-0.3083232678873129	0.6680039566453095	0.7138331816228574	0.21026864416836094
168														9.20243975942485	-3.0146394327731167	2.0037534758446163	0.09394160412836056	-0.3612642273474208	0.9277193180336725	0.7379713964915039	-0.6002107294095171	-0.30845631499788695	0.6682613208724344	0.713607201715879	0.21021790762221684
169														9.105730021963922	-3.0983695619848777	1.9979157645246677	0.09405625164067466	-0.3613155539318076	0.9276877125489253	0.7378056350375455	-0.6003299222346952	-0.308620850521363	0.6684282058936102	0.713480942251884	0.21011586948446664
170														9.134583614965406	-3.1530926101291508	1.956018562036047	0.0941697791532452	-0.3613530687314056	0.9276615829129848	0.737606864783957	-0.6004892363789345	-0.3087859938802686	0.6686315620114041	0.7133278606022899	0.20998856533332877
171														9.164361907708447	-3.1708473331168308	1.9976900062588197	0.09433439428848789	-0.36137129154494696	0.927637758880782	0.7375631552074473	-0.600471329412682	-0.3089251926175659	0.6686565741355259	0.7133337032557078	0.20988905084553316
172														9.166089991973415	-3.128163791313215	1.9566812906759996	0.0944194571143156	-0.361412166320735	0.927613180239258	0.7375645707840266	-0.6004259789992614	-0.30900994752103356	0.6686430064260085	0.7133511686246339	0.20987291435403657
173														9.197966695430724	-3.101455243208449	1.958513041935922	0.09461590745534665	-0.3614111630751101	0.9275935539130796	0.7377212200706093	-0.6001892926113435	-0.30909580147945503	0.6684423920682566	0.7135508280700059	0.20983322960550335
174														9.188367780257368	-3.049441122716723	1.985543078548941	0.09462893817602569	-0.36147637220325346	0.9275668150588687	0.7376812132265509	-0.600205629319916	-0.3091595545754459	0.6684846981885841	0.7135040538577613	0.2098575074098112
175														9.184334172197575	-3.00213157388463	1.9790272223359144	0.0947898057416659	-0.3615581169449723	0.9275185285473617	0.7377470157395659	-0.600050882534713	-0.3093028922216487	0.6683892828994358	0.7135927875479948	0.20985971520198962
176														9.18933877476201	-3.0756838928027594	1.9896491471615685	0.09484704615521655	-0.3616503348282504	0.927476723780303	0.7376124260982179	-0.6001434066568333	-0.30944434121798337	0.6685296902166209	0.7134682380911886	0.20983595148096898
177														9.252824762459927	-3.089921211181317	2.038102166961435	0.09492066898227886	-0.36178824826364486	0.927415403159922	0.7376667586259308	-0.6000131700275018	-0.3095673577944902	0.6684592880783917	0.7135078550456697	0.2099255129084081
178														9.295486169189786	-3.1400897602064464	2.01812501643168	0.09488285686281389	-0.3619468236870833	0.9273573962051431	0.7376998573346492	-0.5999383753585514	-0.3096334385375402	0.6684281292420222	0.7134903241074638	0.21008425320103624
179														9.408985277892883	-3.1025755670556334	2.052563986333266	0.09492879964469758	-0.36212183647317503	0.9272843676819491	0.738042205655397	-0.5994979464352804	-0.30967065552163364	0.668043580666212	0.7137716636076111	0.21035157846208274
180														9.56387607324843	-3.089637372237179	2.0634332087039824	0.09470012837313935	-0.36237437910946874	0.927209089176297	0.7382625513312333	-0.5992597414040826	-0.30960647220982074	0.6678325321426095	0.7138435204562267	0.21077745921860694
181														9.666686962198975	-3.1029345764541083	2.088100354384784	0.09441395732464103	-0.3626723110306855	0.9271217824395901	0.7385616939723791	-0.5989425802340158	-0.30950672008741453	0.667542230019158	0.713958388419298	0.21130733718157593
182														9.755293677947204	-3.119652429246759	2.094406428839045	0.09394165296782736	-0.363034488700422	0.9270280070481663	0.7387465092035062	-0.5987926308944107	-0.3093557504333545	0.667404345938282	0.7139000946915283	0.21193889171674135
183														9.720283748493028	-3.1213045732980857	2.096488467579729	0.09346229521209326	-0.36346512907777995	0.9269077080908111	0.7390117715364719	-0.5985362671008432	-0.3092182699898465	0.6671779379627395	0.7138959566417651	0.21266443564057919
184														9.647201851336213	-3.1456297511137135	2.1314386202327418	0.09262368192335152	-0.3639956996744621	0.9267836771142772	0.738901561213165	-0.5987763040741648	-0.30901686121639216	0.6674169134684178	0.7134241853888768	0.21349612483253289
185														9.522408032772315	-3.1286490459099676	2.1351095937084255	0.09163868242242013	-0.3645628997944482	0.9266586447971802	0.7387036232623313	-0.5991493907801895	-0.30876684489567885	0.6677718988269775	0.7128210852810062	0.2143986742398889
186														9.36313313097372	-3.183054382358326	2.1776026096500662	0.09058583154480598	-0.3652066884535451	0.9265086517848238	0.7382889809363181	-0.5997510938064714	-0.308590353228928	0.6683738383205535	0.7119850421088472	0.21529912229712903
187														9.24977347580745	-3.2067556290172803	2.2411131038634795	0.08957054723049263	-0.36584817986267093	0.9263542661206893	0.737842580040935	-0.6003722702731602	-0.3084500999604115	0.6690033214770809	0.7111316659931705	0.21616269214277295
188														9.098382533949986	-3.2227494563895807	2.2085301785408977	0.08842772145328598	-0.3665863372322702	0.9261722277380209	0.7373115666242143	-0.6010942008481773	-0.30831382620446657	0.6697403913463238	0.7101409853411641	0.2171349560479694
189														8.964473304165258	-3.319811813670327	2.119092114855223	0.08731124557002945	-0.36733536355082386	0.9259813589279191	0.7368586004799618	-0.6017182303178589	-0.30817945129722335	0.670385075382592	0.7092248599620079	0.21813745372161175
190														8.909847194567615	-3.413163142512204	2.1859157926430925	0.08607185166060943	-0.3682195462463135	0.9257461866591044	0.736600803211456	-0.6021324148101764	-0.30798670708831527	0.6708285124083144	0.7084143708289836	0.21940416163560628
191														8.89576957898269	-3.334776418660309	2.2220159840380913	0.0848757453122605	-0.36914398315286007	0.9254884264861061	0.7364892008534032	-0.6023625625044345	-0.3078035092707783	0.6711033935870114	0.7077372838809126	0.2207445857113251
192														8.912931608454935	-3.3336805284158957	2.2218145218857908	0.08378758456366003	-0.370149649859175	0.9251858609934099	0.7366519069185249	-0.6022381073608813	-0.3076576507673492	0.6710615535897494	0.7073178201851791	0.22221136906602715
193														9.010086831606984	-3.3344674017637277	2.166775585749077	0.08282994320728154	-0.3711219501772917	0.9248825323276911	0.7370579142728135	-0.6018224813208051	-0.30749850728853834	0.6707345462372493	0.7071620741198394	0.2236894485898661
194														9.146059650289772	-3.2631354026255264	2.2523843963706507	0.0819072356831988	-0.372223044118686	0.9245221523412817	0.7375946214161064	-0.6012139005612313	-0.3074020498142144	0.6702576961145374	0.7071010190906027	0.2253059466597888
195														9.252749375130737	-3.2128571880151577	2.212463829826257	0.0810882980291045	-0.3733752071004659	0.9241296676578602	0.7382298557987812	-0.6004477195639414	-0.3073747160678198	0.6696576497958143	0.7071446038775566	0.22694744166171996
196														9.260499909659965	-3.184955251676263	2.245988202839445	0.08019486734420378	-0.3746461235216084	0.9236931662526677	0.7387439168712825	-0.5997958694931639	-0.30741232933084534	0.6691981833039613	0.7070255985953919	0.22866699454338957
197														9.24407672272515	-3.213725716331749	2.2471834026763986	0.07946366304481661	-0.37594716853094445	0.9232276277977531	0.7393547179740917	-0.5989743955987825	-0.3075455647973576	0.6686105946400733	0.7070313995082821	0.2303616132180203
198														9.2457520199359	-3.219824734297339	2.2309717636755884	0.0786498200717986	-0.37733609484036246	0.9227305551098324	0.7397341430316798	-0.5983970591611755	-0.30775697753331843	0.6682870666381779	0.7067803273421538	0.23206457171713624
199														9.215220511818204	-3.2541978277987726	2.212094685933793	0.07789267303222519	-0.3787460017682489	0.9222170013789927	0.7400964421271445	-0.5978105720799878	-0.30802560974720994	0.667974541310249	0.7065224596953475	0.23374350495232818
200														9.103490486718975	-3.299486271375286	2.160833268415607	0.07707433481401288	-0.3801667822290093	0.9217010169261061	0.7403933401490526	-0.5973109676490608	-0.30828121867715463	0.6677404052293873	0.7061818644058933	0.235435608199588
201														9.06463078100831	-3.200747581121134	2.2107747092772803	0.0763693486019339	-0.38158704650563746	0.9211726486024331	0.7408056716375395	-0.5966490375114845	-0.3085723301047488	0.66736397824858	0.7059753904887368	0.23711614993607075
202														8.971440923366883	-3.1181949386867003	2.1806499808129196	0.07568396078750378	-0.38304037635666666	0.9206258784979157	0.741154858920743	-0.5960354722486978	-0.3089193922683482	0.6670542805332181	0.7057065862678449	0.23878191078994176
203														8.920547115000803	-3.0485906208240396	2.2130525051147467	0.07513753373315274	-0.38448243833210316	0.9200693482769111	0.7414802013895908	-0.5954010661596753	-0.30936173222164043	0.6667544240361298	0.7054578832433036	0.2403491481119211
204														8.859539218102926	-3.0318060503216526	2.231436891891396	0.07473559446587041	-0.3858671713963023	0.9195222221123585	0.7417955167192738	-0.5947444637889379	-0.30986841427869705	0.6664487994550057	0.7052556620340068	0.24178595673437298
205														8.80544365191058	-2.9152828561375714	2.2538737971964147	0.07453391075013072	-0.3872030655856935	0.9189768670371051	0.7422165886407255	-0.5939200376592069	-0.31044085493602613	0.6660024261928902	0.7052182462670177	0.24312135537063898
206														8.76662331731476	-2.819449984518492	2.2985852152670625	0.07446976891582663	-0.3884876849693526	0.9184397487831073	0.7426069676741176	-0.5930949884316415	-0.3110839537152692	0.6655742971896346	0.7052061069817992	0.2443260149801895
207														8.739785406779037	-2.801283059596321	2.3189240203340304	0.07467431989148582	-0.3896569704401803	0.9179276612762715	0.7430151776442488	-0.5921920991125417	-0.3118284200309009	0.6650956260110499	0.7053197594964025	0.24529950086558985
208														8.725042113482152	-2.756147824140209	2.3532192034560784	0.07513044345433251	-0.3907310575433074	0.9174337344666609	0.7433515090732892	-0.5913051162751428	-0.31270879972476506	0.6646683010531033	0.7054697017859293	0.2460255056640527
209														8.782025649641374	-2.662165311270295	2.3573465711159005	0.075935203952611	-0.3916660689553051	0.9169686664383763	0.7438313398526408	-0.5901842648031239	-0.3136837124108002	0.6640397447846784	0.7058896684382728	0.2465177343283943
210														8.812339239067304	-2.5638034476145086	2.4057253317661695	0.07684362166675363	-0.3924751269471925	0.9165469614465602	0.7439449810870467	-0.5894550149030992	-0.3147834978536539	0.6638078960998666	0.7060496159147547	0.24668404273908093
211														8.848207512799636	-2.5527394183454937	2.37520838425217	0.07803672863776046	-0.39315121982213364	0.9161563116280349	0.7438926001624262	-0.5888411357697658	-0.31605366039480853	0.6637274051951609	0.7061856945433975	0.24651104724770073
212														8.937448668076676	-2.6325571266588184	2.3833168214477465	0.07933727417039466	-0.39371883616264275	0.9158007834556305	0.7435251366072579	-0.5885573412027265	-0.31744389638097736	0.6639849156120725	0.7061060360647771	0.24604531629868026
213														8.983756933573684	-2.6770091273530947	2.3213241011728836	0.08078508103673021	-0.39414371548616184	0.9154913993176843	0.7430490404732186	-0.5883810259791463	-0.31888225369179074	0.6643432050783069	0.7060159345301562	0.2453357007363421
214														9.086924431688937	-2.7545763777332057	2.3446208679051295	0.08230111648097865	-0.39444396986606955	0.9152270105620133	0.7424515002066687	-0.5883486359503612	-0.32033053619069196	0.6648250116134706	0.7058752277928758	0.24443376755576185
215														9.11754063269459	-2.8706863586271383	2.3033432719214195	0.0838290133291264	-0.39461669016621026	0.9150138602046038	0.7418023883022689	-0.5884080916286231	-0.32172213852175585	0.6653584847533809	0.7057291162678687	0.24340193347312955
216														9.106412170992536	-2.9600004960628277	2.2841858545876383	0.08536221632395147	-0.3946471934282517	0.9148589425389398	0.7412153371640663	-0.5884470222519049	-0.3230014333646613	0.6658176296682318	0.7056795977793819	0.24228741052912187
217														9.060484343125742	-3.026921578999219	2.2540635113852487	0.08686179035729946	-0.39455571326553845	0.9147572456698262	0.740628299778145	-0.5885393499961218	-0.3241776597390336	0.6662767825338497	0.7056537554889541	0.2410975454472246
218														9.075780459919828	-3.082194938934771	2.2700121197559375	0.08822884792220131	-0.39437626785414925	0.9147037934477773	0.740073742226823	-0.5886764337910866	-0.3251936536364065	0.6667132265529969	0.7056397208579187	0.23992927684393048
219														9.056463138445713	-3.114698210663533	2.2757449818802886	0.08964470537752367	-0.3940585097380349	0.914703076249783	0.7396814881622238	-0.588671231853925	-0.32609427602719565	0.6669596111219145	0.7058215579667582	0.23870652576224877
220														9.057734713208271	-3.1469401434253874	2.2680895140108457	0.09074511351852	-0.39376137328306493	0.9147225291216707	0.7390978558690746	-0.5889791954233771	-0.3268606229085543	0.6674576269863486	0.705730464319535	0.23758120276883468
221														9.088897694934952	-3.2190674747688006	2.3079334037707926	0.09174679729518226	-0.39341202852183166	0.9147729231893642	0.7385046628892631	-0.5893524069219918	-0.3275280191770945	0.6679770864909162	0.7056137160441206	0.2364654216867966
222														9.134658726053424	-3.3239257737666374	2.284289323603284	0.09270590935037698	-0.3930562419787652	0.9148291671197687	0.7379604559754419	-0.5896916104494241	-0.3281435204024027	0.6684459438040126	0.7055285927636771	0.2353920665716412
223														9.172629097974744	-3.399388795459778	2.2910040996791556	0.09366084964968152	-0.39268451950960725	0.9148915309370882	0.7375628942501743	-0.5898828338088193	-0.32869319950827036	0.6687515400118391	0.7055757298229485	0.23438060332844898
224														9.163116302593927	-3.4801062790316206	2.2725880259766886	0.09443685313379713	-0.39233626620998646	0.9149611658352466	0.7372546279479053	-0.590038941834961	-0.3291043310071694	0.668982282530399	0.7056389312776666	0.2335303070818245
225														8.999770501284047	-3.427731169812091	2.3672033152206864	0.09522432381687768	-0.39197224595414315	0.9150355657324379	0.7371172983883884	-0.5900158624070722	-0.3294531385867223	0.6690219851172469	0.705860496493254	0.23274566144200157
226														9.0112353007228	-3.3422963036754543	2.45653475589049	0.09593842676524383	-0.39163999987384834	0.9151032339406423	0.737003078631055	-0.5899846431162195	-0.3297644355829994	0.6690457984010937	0.7060709818324495	0.2320376871458683
227														9.103346654223333	-3.2614237736001357	2.4909458652936	0.09675791954423896	-0.3913606929883316	0.9151364450119794	0.7367681685502803	-0.5900214086651316	-0.3302232625480519	0.6691864992784422	0.7061951184343507	0.23125285702658221
228														9.17872823903928	-3.2533617735961946	2.5487797176001963	0.09753611966757364	-0.3911348374467047	0.9151503943591636	0.7362466345290981	-0.5903566473987922	-0.33078682261637116	0.6696473687731247	0.706040061050078	0.230390611109986
229														9.146099063539491	-3.286487375786829	2.5376117164325804	0.09834501920049771	-0.39098071684894387	0.9151296827503411	0.7355562709979908	-0.5908314074807172	-0.331474312926183	0.6702874229716563	0.7057282245926124	0.2294829920045822
230														9.115464546683386	-3.4057332732926877	2.4497373207792923	0.09911319392219736	-0.3909686118752397	0.9150519762936361	0.7347219995426023	-0.5914203065867235	-0.3322733879578477	0.6710887856153321	0.705241494443722	0.22863568473911636
231														9.023691739259695	-3.522784795715649	2.403590823424961	0.09999228126619764	-0.39104386347384035	0.914924172009153	0.7339968409312881	-0.5918187487021865	-0.3331654336624187	0.6717515769911306	0.7048654236973401	0.22784765367652657
232														9.050808518539876	-3.585419450258866	2.35597212873468	0.10084190762357892	-0.3912179114831633	0.9147565006063584	0.7333861966929587	-0.5920707239009244	-0.3340612883883336	0.6722913030577412	0.704557168464127	0.22720827493455706
233														9.055042340501771	-3.5986110291654554	2.316991141907157	0.1015909594235947	-0.39148360879233424	0.9145599275117645	0.73290266363215	-0.5921931249772558	-0.3349044466270518	0.6727057028183224	0.7043066709726684	0.22675791192173214
234														9.058965814075492	-3.574907089798196	2.3638566639361116	0.10237332672116589	-0.3918295986974357	0.9143244870179559	0.7327521357992864	-0.5919235038362661	-0.3357095069964245	0.672751075404288	0.7043409197191406	0.22651679706275596
235														8.971387560911841	-3.4823311312152807	2.404028480828656	0.10318272066624623	-0.3922642668160882	0.914047083653325	0.7327305001516637	-0.591474715039462	-0.3365466915845111	0.67265097956028	0.7044759800363843	0.2263940221127136
236														8.856056831170225	-3.3963916552185607	2.4056734513445557	0.10395578304790459	-0.3927573753712924	0.9137476890599241	0.7328018671979072	-0.590919540387153	-0.3373655587339902	0.6724541758381448	0.7046671135224706	0.22638383448857785
237														8.807522320064844	-3.281585343155559	2.4164970441690556	0.10468446753655825	-0.3932832947978051	0.9134382367131181	0.7327682927869901	-0.5904779172832295	-0.33821067145626815	0.6723777147873266	0.7047439813392112	0.22637166214773938
238														8.861519826787202	-3.2210600385419443	2.3650923857936585	0.10542488328916966	-0.3938884874570818	0.913092248040819	0.73266440132232	-0.5900745879084246	-0.3391384020421582	0.6723752442040609	0.7047438117170484	0.22637952828834657
239														8.917278944595207	-3.2096048715633616	2.3208802095056544	0.10610088825808994	-0.3946045431733244	0.9127046926677964	0.7324339844939908	-0.5897860881424708	-0.34013648524064377	0.67251993269278	0.7045847179300543	0.22644495002168866
240														8.867588463972403	-3.273256639779849	2.3030091954337224	0.10669335035130717	-0.3953922963664773	0.9122946130307124	0.7321369734126035	-0.589571444381685	-0.3411465434852397	0.6727495679322626	0.7043226845301362	0.22657796649987053
241														8.86895791958815	-3.2633027207732535	2.267459810902252	0.10722690795235817	-0.39616170524200145	0.9118981815480971	0.731784386862832	-0.5894430873694504	-0.34212345417430806	0.6730482905072754	0.7039976917945969	0.22670079089653408
242														8.876777096106261	-3.257450978529663	2.1983525080671615	0.1077587027566757	-0.3969131052599912	0.9115086663620205	0.7315111723921033	-0.5892374625293176	-0.3430606614252663	0.6732603260594884	0.7037465450180782	0.22685090638873198
243														8.905268293907456	-3.215835147082787	2.1994333231367076	0.10826707309143119	-0.397611223938354	0.9111440915038952	0.7313096776200332	-0.5889846594123865	-0.3439232856265446	0.6733976509489007	0.7035640593258861	0.227009290826132
244														8.900169956227058	-3.175605401881867	2.1945070233777493	0.10878793852203933	-0.39824397617430435	0.910805643303227	0.7312302090791902	-0.5886228460942037	-0.3447107865819739	0.6734000042783848	0.7035089768416887	0.22717295996890055
245														8.928123898270647	-3.047832590147718	2.272429262436354	0.10923256469994141	-0.3987765823948183	0.9105193485822154	0.7310966780885649	-0.5883845402453616	-0.34540017383915694	0.6734730091822081	0.7034066179200784	0.22727348232756592
246														8.948760004476798	-2.96376475772721	2.2120821399399633	0.10972589726026039	-0.39922182814904933	0.9102648841956724	0.7308660400143061	-0.5882606374980406	-0.34609861878401765	0.6736431243798431	0.7032576727627855	0.2272302503542023
247														8.939557140242782	-2.9420037477330703	2.241632908362525	0.11002066645582892	-0.399608805515042	0.9100594791042265	0.7302427801466844	-0.5886464223968227	-0.34675765520470053	0.6742706689425664	0.7027148724441956	0.22704817341146216
248														8.890823563869926	-2.978203973664646	2.217072878015384	0.11046837319717329	-0.39991023509551393	0.9098728166007712	0.72965012107986	-0.5889707974230507	-0.3474537387782743	0.6748388247065484	0.7022714600841375	0.22673190560655065
249														8.874675475314149	-2.963907729120071	2.1910880470306124	0.11077890809744528	-0.4001792349456318	0.9097167764964365	0.7288501560484008	-0.5895761616386765	-0.3481054433007729	0.6756518952455919	0.7016099554209123	0.22635809441083776
250														8.880479186417814	-2.999028776898709	2.1569214565285266	0.1111911229312263	-0.40034050895972084	0.9095955205843774	0.7279841497951233	-0.590248884421495	-0.34877690876296874	0.6765172664672828	0.7009520178479068	0.22581110877585966
251														8.873687751773005	-3.0608444182597094	2.1047284229728844	0.1114334237235427	-0.40036418408007785	0.9095554475583899	0.72692273742691	-0.5912417846944694	-0.34930858254996566	0.6776178317377849	0.7001011870702635	0.22514973234225905
252														8.89445059732726	-3.1513713416566658	2.0074035723848893	0.11172091958304337	-0.4003165720711321	0.9095411360970636	0.7259235598338774	-0.5921770643802868	-0.349801814889598	0.6786408633479346	0.6993375197622129	0.22444066486981837
253														8.862059199669506	-3.205519839435156	2.0013751560197512	0.11193234058132484	-0.40016650333950443	0.9095811787504293	0.7249798376426441	-0.5931223883396158	-0.35015720392697214	0.6796141450438118	0.6986219307002496	0.2237230694430599
254														8.88498152666021	-3.2818235313357933	1.9904767328797495	0.11209560128937018	-0.39988781143317464	0.909683634259054	0.7241268903110519	-0.5940409933526618	-0.3503648740171144	0.6804960124056718	0.698000742466488	0.22298013502599573
255														8.933343263676447	-3.3134081388696086	1.9256042536266436	0.11205372242189116	-0.39949486262861855	0.9098614279244612	0.7232952208734407	-0.5950609559691225	-0.35035194040101364	0.6813868114023334	0.6973566615545133	0.22227392971850216
256														8.914127155005861	-3.287274376985464	1.930055997827847	0.11202004376416386	-0.399038709956248	0.9100657216660389	0.7226887845295404	-0.5958699729979893	-0.35022834835945416	0.6820355053150021	0.6969268851435055	0.22163141982553086
257														8.943918250178497	-3.2793324321178114	1.9635706698131759	0.11185800204488383	-0.39846835303565675	0.9103355200186234	0.721983149484833	-0.5968733429088694	-0.34997506251839156	0.6828089917674545	0.6963944170897998	0.22092237688308092
258														8.912542696231469	-3.2782177899630094	1.950813263731933	0.11171087749760827	-0.39780546228609365	0.9106434505469533	0.7213665494074912	-0.5978139916540726	-0.34964086256980004	0.6834844411138	0.6959664112282802	0.22018122807674695
259														8.924917855368912	-3.3753336040127158	1.9221222933281663	0.11139238731756168	-0.39707491658392413	0.9110012330768631	0.7205586669786882	-0.5990402484198923	-0.34920765772664625	0.6843880065354677	0.6953289087855503	0.21938724921358918
260														8.902845672426542	-3.389843466539351	1.9652829400023049	0.11110309420919584	-0.3962729193166958	0.9113856899652129	0.7199071375381716	-0.6001212078588358	-0.34869506621064955	0.6851202929258042	0.6948541640475911	0.21860437993550047
261														8.996307506270014	-3.4298209906620847	1.9617860029411958	0.11060086246736905	-0.39540248346719997	0.9118247228987841	0.7190420506949414	-0.6015245635772671	-0.34806138646162876	0.6861093051066187	0.6941362081617329	0.21778187703517468
262														9.063974459346364	-3.4639599248221438	2.005482029852212	0.110168021542361	-0.394471515943718	0.9122802366260641	0.71831543905081	-0.6027806567424896	-0.3473879817701463	0.6869395439561508	0.6935760253686386	0.21694782779082517
263														9.054538798186247	-3.4599090310715197	1.977479829601236	0.1096324146801202	-0.3935262012736029	0.9127529033438209	0.7174534005983515	-0.6042148672577647	-0.3466771007069022	0.6879253968427594	0.6928647220748434	0.2160951764452006
264														9.106935738065252	-3.4478871516137777	1.994855228543615	0.10916713303164827	-0.39255174291109984	0.9132281567073521	0.7166213453692287	-0.6055991340856319	-0.34598198819581494	0.6888660134067051	0.6922086520206102	0.21519943689741078
265														9.161385428673094	-3.4842357438818414	2.017350645197244	0.10865238824447115	-0.39152878964431037	0.913728551271347	0.7156541589794011	-0.6071521811203047	-0.3452612832281419	0.6899520151896502	0.6914271008866506	0.21423067216256098
266														9.305137764740099	-3.60030704694319	1.958690769844567	0.10817319338437931	-0.39058090798482537	0.9141909617529455	0.7147511651207329	-0.6085946984172669	-0.3445914465231995	0.6909626127306606	0.6906946122391181	0.21333452705146863
267														9.3564181723454	-3.7057846713242193	2.0238787012082122	0.10762839360465859	-0.3896911489411991	0.9146348655758587	0.7139301602989416	-0.6099541508972555	-0.34388902282384015	0.6918958412258367	0.6899976393003794	0.2125638789971039
268														9.325324532894365	-3.8522294470612817	1.9741746116087169	0.10706703668124057	-0.38885044215931214	0.9150584589460972	0.7134278334479294	-0.6109804224277217	-0.3431088017988421	0.6925008130811777	0.689563816511968	0.2120008651853986
269														9.252373458646822	-3.947657422374156	1.9486451264727802	0.10640044622951106	-0.38800027461229813	0.9154969863101363	0.7131499044746425	-0.6118236820923372	-0.3421826935699448	0.6928897161814203	0.6892949796217551	0.2116040459874884
270														9.334416597849785	-4.009785961351755	1.9319296449458712	0.10577171177922945	-0.38715586886500897	0.9159272231955284	0.7132642740236288	-0.6122583620877647	-0.341165316899525	0.6928682561561306	0.689383805479203	0.21138483473081776
271														9.460984463334611	-3.993139988029773	1.934916884820849	0.10500954576344862	-0.386379632067914	0.9163426079920204	0.7135606016007947	-0.6125340544806248	-0.3400489669806966	0.6926790477137778	0.6895743701912003	0.21138335987902054
272														9.456443730141748	-3.963992611406131	1.8804310898114318	0.10419686179682935	-0.3857238972831546	0.916711562628282	0.7141655522480449	-0.6124741433055004	-0.33888491817199257	0.6921781403467875	0.6899945643603922	0.21165283645435762
273														9.329028685363017	-3.8820906569226876	1.9068455197671135	0.10318093652110649	-0.385208351033409	0.9170431945294343	0.714832609132229	-0.6123728357898862	-0.33765937112401234	0.6916415511374644	0.690372389570133	0.212174287931849
274														9.148242477586663	-3.8264281877230126	1.9458613687061825	0.10215323992956055	-0.38482238322907253	0.9173202542938811	0.7155399131141948	-0.6121854527349488	-0.33649904041503076	0.691062477864646	0.6907537222669182	0.21281904722550807
275														8.975561173193611	-3.8235889276990798	1.957330849773674	0.10105789354134731	-0.3844860858042484	0.9175825586702887	0.7161660714007854	-0.6120834667705267	-0.3353505447744773	0.6905747318917416	0.6910313158816332	0.21350002375537913
276														8.879312784457046	-3.8342567046708154	2.037617170394293	0.10009719558621638	-0.3842440698419918	0.9177892166652627	0.7169718923123425	-0.6117157821076556	-0.3342979323215701	0.689878146537367	0.6914913569320161	0.2142611635796035
277														8.825076380053943	-3.7778735276363395	2.0484201621452938	0.09918331877075581	-0.38406266859227267	0.9179643434640588	0.7178653431568162	-0.6112187806661759	-0.3332880904792419	0.6890805601466092	0.6920314073470473	0.2150825722212284
278														8.800530823744449	-3.612331109560715	2.1415052681939226	0.09840540776047196	-0.3839786655001414	0.9180831989336399	0.7189319665593246	-0.6104603072609089	-0.3323778583450747	0.6880793582012449	0.6927471383554369	0.21598194164724904
279														8.903089782743741	-3.444649445274317	2.2048770191552465	0.09776533724849745	-0.3840201825821008	0.9181342157888994	0.7199953443522915	-0.6096066745651926	-0.33164198533447564	0.6870579618516277	0.6934754514005361	0.21689434146862838
280														8.905656645742376	-3.3347359781504387	2.255450028190171	0.09730511864320923	-0.3841585351573621	0.918125227706755	0.7209080732206167	-0.608802314030872	-0.33113636525756784	0.6861656242126742	0.6941051521897854	0.21770340799451407
281														8.962726469813065	-3.284692587147436	2.2154422850488995	0.09710883869930098	-0.38441530773027216	0.9180385311244369	0.7216874134793283	-0.6079922561658305	-0.3309270216647481	0.6853737306550279	0.6946727917696386	0.21838626720328833
282														8.99407398924383	-3.2569449491998137	2.224991268280742	0.09710245124868444	-0.38477708167316294	0.9178876354873626	0.7223608101632634	-0.6071810315662713	-0.33094720854902654	0.6846648624705163	0.6951818411935133	0.21898911793289227
283														9.035129887497833	-3.3075332939699997	2.208993484290749	0.09725381847367676	-0.3851437776765677	0.9177178026546677	0.7229573273223681	-0.6063871153905807	-0.3311002403490354	0.6840134484519931	0.6956715725148709	0.2194690536989197
284														9.067165466687541	-3.307117184524242	2.2194484019529153	0.09759912369012641	-0.38550089928385844	0.9175311807814793	0.7235491922955997	-0.605528832188793	-0.33137803143307754	0.6833381135157798	0.6962211502384948	0.21982978091533129
285														9.087755259379987	-3.2424596762579085	2.1660809137117583	0.09799265246619238	-0.3858678606984341	0.9173349628912302	0.7240541516124299	-0.6047363234563119	-0.33172211959009923	0.6827466774693562	0.6967065186809704	0.22012951013437054
286														9.100802835827835	-3.150484092361418	2.1424718195238355	0.09844596081936452	-0.3862523225806337	0.9171246022757314	0.7244308849229425	-0.6040450072820238	-0.3321588808799531	0.6822816762658331	0.6970930873841215	0.22034732073061142
287														9.11757996181151	-3.132082370023882	2.1269982978996094	0.09901308684409083	-0.3866182385987287	0.9169093446008831	0.7246251474278498	-0.6035036518300428	-0.33271870693270233	0.6819932582868922	0.6973590752335693	0.2203985386535254
288														9.163188308743377	-3.1677776561987807	2.0688853755486702	0.09958252195301126	-0.38695378039843153	0.9167061105702534	0.7246268508778138	-0.6031684975564657	-0.33332220229438614	0.6819085336820341	0.697462927610378	0.22033205917609883
289														9.270345332760284	-3.1949779943374668	2.0556864450607293	0.1000916243368094	-0.3872962693625041	0.9165060100596754	0.724457543848718	-0.6030274727498115	-0.33394480722068187	0.68201388101585	0.6973947711639816	0.22022170477688155
290														9.194238482617111	-3.202139137565593	2.0765745144239984	0.10060887870703811	-0.38763210561467554	0.9163073743139063	0.724318448846042	-0.6028542961493871	-0.3345586380225304	0.6820855065067546	0.6973579054624389	0.2201165907024365
291														9.124567717836223	-3.2130115559139627	2.0633623746019936	0.10109684149333037	-0.38789286319519245	0.9161433050141826	0.7240786621708012	-0.6028218149756638	-0.33513571934127023	0.682267923640718	0.6972409813484026	0.21992156397065998
292														9.116742882942889	-3.2144599847158495	2.0954448335101166	0.10160055632069209	-0.3881029269594669	0.9159986053705659	0.7239512909982568	-0.6026866059049083	-0.3356536657401198	0.6823282606028306	0.6972409720808993	0.21973432056553968
293														9.109167964400397	-3.2153443490181473	2.1273566845965783	0.10204648438640262	-0.38824806290974645	0.9158875240285815	0.7237826991413856	-0.6026385634362463	-0.33610320778461483	0.6824405611098936	0.6972016949967397	0.21951008415488968
294														9.073042740564423	-3.197947934045539	2.1161434536628443	0.10255869928367833	-0.38832925307205435	0.9157958857789983	0.7237470141811413	-0.602453029275554	-0.33651241727548653	0.682401621235708	0.6973168137405039	0.2192653383680796
295														9.049947750349988	-3.152636385203754	2.121205053993737	0.10295222480788685	-0.3883469296782909	0.9157442337337163	0.7235354425953491	-0.6025148723493652	-0.33685648562285464	0.6825667020265922	0.6972535340945019	0.21895252105712
296														9.048180150879281	-3.132455983156165	2.114938997365506	0.10348373507286784	-0.38836565319013905	0.9156763816969207	0.7233613128587283	-0.6024860017897199	-0.33728182386060224	0.6826708779746395	0.6972680525232989	0.21858118696653783
297														9.015772380949647	-3.187482715413549	2.111654000272573	0.10395956934253442	-0.38838276619799084	0.9156152220570117	0.7230229722082697	-0.602646076868124	-0.3377210205103885	0.6829569456424276	0.6971201711009769	0.2181588353537628
298														8.956744915869784	-3.2731905299485033	2.071162115164617	0.10451838548972825	-0.38834476823654246	0.9155677190016732	0.7226904560382483	-0.6027889401800024	-0.33817746576006286	0.6832235445634537	0.6970178151094675	0.2176505308382565
299														8.964605396490441	-3.3299302852208843	2.0388340614066074	0.10508701748777349	-0.3882413609131382	0.9155464840366323	0.7224199913513129	-0.6028886715425976	-0.3385773262071332	0.6834223253973299	0.6969891644795612	0.2171175482235137
300														8.993006822818066	-3.352100408523169	2.0766041699631925	0.10580442377999028	-0.38814779106650654	0.9155035315053544	0.72229992838248	-0.6027749715043601	-0.33903561344876687	0.683438539568298	0.6971396029620676	0.21658286316013667
301														8.978590178772599	-3.3597543319438694	2.0516975456435893	0.10647754592986847	-0.38802522913189674	0.9154774458007646	0.7221428840941372	-0.60272614362541	-0.3394566993633256	0.6834999540343469	0.6972500393313583	0.21603285742558928
302														8.964817955049572	-3.3320925035045215	2.110717962064813	0.10733602799052705	-0.3878967542626395	0.9154316386971372	0.7221282698766347	-0.6024636603982936	-0.33995337878077836	0.6833811081235671	0.6975483108229842	0.21544515573065548
303														9.006157731665349	-3.3279200247050262	2.163874879354674	0.10830379096763887	-0.3877140208353238	0.9153950660287311	0.7220233968374226	-0.6022714183424689	-0.3405163036729688	0.6833392300178505	0.697815861596351	0.21471031652706948
304														9.10067883679104	-3.3587259513245584	2.1237027455021846	0.10929385011535026	-0.38755798933567676	0.9153434651697967	0.721808767005837	-0.602172229735921	-0.34114617044367157	0.6834083392822163	0.6979881164009576	0.21392903300526206
305														9.14311785563683	-3.4399133733431646	2.0968685622393948	0.11028225184432927	-0.3873802789277974	0.9153001389850032	0.7213582020243847	-0.602322064491851	-0.34183398748284494	0.6837252147612308	0.6979574844674257	0.21301450789937393
306														9.209424836751056	-3.418668219661255	2.096277615137365	0.11126452034179046	-0.38723149169132853	0.9152442178760923	0.7208053151178272	-0.6025671183986422	-0.34256760722906465	0.6841490365490558	0.6978285173789227	0.2120741759897545
307														9.170599402784811	-3.5323210750808807	2.0399101515203872	0.11212947289446606	-0.38710296236399766	0.9151930276381188	0.7200188852901974	-0.6030864867143779	-0.34330670597582225	0.6848355905864345	0.6974510635675636	0.21109767358880024
308														9.164793401251295	-3.560263288645317	2.0670651169140224	0.11311403216941968	-0.38696420935425213	0.9151305460999617	0.719362248497938	-0.6034306038429103	-0.3440776973036348	0.6853635321217248	0.6972303830331974	0.21011097499420234
309														9.128053103038832	-3.5216187622348394	2.0457208089994174	0.11406095622416607	-0.3868397909488589	0.9150656120759169	0.7186918317358563	-0.6037966694845841	-0.34483566073636274	0.6859097238422771	0.6969824661051147	0.20914897245897268
310														9.101283648854897	-3.524387816773883	2.0845371903558814	0.11504438339365686	-0.38676198120625654	0.9149753875066723	0.7181386673039087	-0.6040110230390636	-0.34561183221971736	0.6863247368210909	0.6968399055311884	0.20826065803877947
311														9.072565448349323	-3.4787828535002294	2.1180744428712885	0.11598154293914847	-0.3867068389227828	0.9148803760207143	0.7176134113837467	-0.6042052883112565	-0.3463624710890211	0.6867162976802255	0.6967020814573904	0.20742935229447057
312														9.084610056605664	-3.459289831474282	2.1270590035328887	0.11697439682325544	-0.3866722643874664	0.9147685775327574	0.7172216410062219	-0.6042340673372226	-0.3471229026461068	0.6869571370618239	0.6966963124795377	0.20664980042873637
313														9.089801499964077	-3.4117566045523193	2.1676748501126415	0.1178325515751098	-0.386737295533697	0.9146309387029185	0.7167494582110963	-0.6043575430951825	-0.3478824144133408	0.6873032110672842	0.6965531023168565	0.20598075567723217
314														9.094933517718685	-3.364504467849772	2.208754291348619	0.11882763289488085	-0.3867923823389755	0.9144788934825886	0.7163962334839479	-0.6043104934315546	-0.34869078590998664	0.6875001311349785	0.6965633355934342	0.20528782037991594
315														9.015218648073121	-3.335053512122572	2.131865499513694	0.1198023907319471	-0.386926048969442	0.9142951491743828	0.7160053010376768	-0.604278464920446	-0.34954820228308325	0.687738174061071	0.6965168838314592	0.20464709740638368
316														8.977061487241766	-3.438401957330627	2.1658945122229505	0.12080878665079686	-0.3870446851823061	0.9141124923881587	0.7156735756428019	-0.6041788304809987	-0.35039873562166124	0.6879073848961128	0.6965374020616134	0.20400754234745672
317														9.04904073075007	-3.4468349956034223	2.137602614520194	0.12167215337189274	-0.3871898403454768	0.9139364937604207	0.7153511548584992	-0.6041140912902426	-0.35116789424316214	0.6880905553315341	0.6965128801664828	0.2034728370710267
318														9.066274007791419	-3.4312320164963173	2.1160633295014897	0.12254662474640449	-0.3873534799925472	0.9137502975654385	0.7152549391391202	-0.6038079963332925	-0.3518895787048377	0.6880353892063674	0.6966872936272328	0.20306185781186145
319														9.131644788764907	-3.410570143510649	2.120892929103713	0.1232403514557665	-0.3875924815816748	0.9135556272030831	0.7150820376880037	-0.6036201308819564	-0.35256264261833337	0.6880911968257055	0.69671716342818	0.202770064446306
320														9.106168497601091	-3.402606102966645	2.0426649363005884	0.12388181404085641	-0.38786555509773896	0.9133529478348824	0.7150164448550316	-0.6033301250804306	-0.35319151144570765	0.6880441699024985	0.696816382800487	0.20258861992724814
321														9.04801878921179	-3.336543172975825	2.0415030110115615	0.12434315088711556	-0.3881810166181545	0.9131562183792868	0.7148942179579312	-0.6031509827723603	-0.35374446866495823	0.6880879580095715	0.6967958024543717	0.20251067064277462
322														9.025542013662736	-3.4243636761786513	1.97659044406749	0.1248159286691422	-0.38848541326296454	0.912962248744362	0.7147752552064739	-0.6029677995594164	-0.3542967220268832	0.6881259466805323	0.6967846987243463	0.2024197745494304
323														9.024469243843441	-3.4533476280430357	1.9794594459424373	0.12502948878637116	-0.3887763739361114	0.9128091574929056	0.7146275161072637	-0.6029204307121461	-0.3546751576474499	0.6882406121090079	0.6966633945450054	0.20244746119635354
324														9.041894683047438	-3.4342830490226333	1.9631516841028498	0.12529442686587555	-0.38910339154843854	0.9126334736803455	0.7145917234084884	-0.602725241443091	-0.35507879711896867	0.688229594998964	0.6966497211747593	0.20253194946647804
325														9.001933402263157	-3.4838340088923885	1.9990459867076398	0.12533587870325957	-0.38941991320292857	0.9124927663881537	0.7145691776088501	-0.6026085298413916	-0.35532217799316806	0.6882454561572446	0.6965738230535372	0.2027389975201762
326														9.006095357262948	-3.490081930561849	1.967967333685375	0.12538961075698013	-0.38972876916388455	0.9123535126255706	0.7147533430238143	-0.6022805973186423	-0.35550772246152634	0.6880444056530763	0.6966846981091974	0.20304021096817687
327														9.023147917088131	-3.4445452324381103	1.9513885477103958	0.12538850006364993	-0.3900437969413151	0.9122190310004443	0.7149782278242389	-0.6019304805481238	-0.35564846453262655	0.6878109171778959	0.6968109736899286	0.20339766261241757
328														9.06864035216145	-3.3929881677769913	1.9747083142796085	0.12538955055281004	-0.39035102288656515	0.9120874626611069	0.7153420872004652	-0.6014414736922533	-0.3557440821750545	0.6874322940419992	0.6970611398251249	0.20382003938242071
329														9.045377536537906	-3.3201769382444337	1.9844974888212659	0.12524790907808714	-0.39070486007304905	0.9119554120607356	0.7155749790108693	-0.6011232781079938	-0.3558135100446481	0.6872156944403705	0.6971373729990368	0.20428918836502508
330														9.017786484971035	-3.2919556792899027	2.0336292231624724	0.12524239717921826	-0.3910082912856079	0.9118261117640318	0.7157827717181882	-0.6007961989724665	-0.35594796110058713	0.6870002661282102	0.6972491975227697	0.20463184232573076
331														9.008097289255515	-3.300173274645526	1.9833484813436977	0.12513368826065285	-0.3912853704672601	0.9117221720022963	0.7157841485036103	-0.6007296911171921	-0.3560574264935428	0.68701864080478	0.6971510575682591	0.20490434382465048
332														8.994828042909255	-3.3770894411000745	1.9750851782848668	0.12512270554335098	-0.39151419616001026	0.9116254399492665	0.715768606240803	-0.6006604275842717	-0.35620549273471175	0.6870368337124371	0.6970822655465145	0.20507731269676865
333														9.034944115384784	-3.4294387784357094	1.954567543650435	0.1250243420930957	-0.3917148112729835	0.9115527524578926	0.715610222802374	-0.600781669751195	-0.35631923090355805	0.6872197049742721	0.6968650457013448	0.2052027903678149
334														9.026296270154797	-3.4618314268456194	1.9057033117923836	0.12497318247425293	-0.3919177258219003	0.911472544758671	0.7155506809441238	-0.6007829849236138	-0.356436569429505	0.6872910058066078	0.6967498124957503	0.2053552339836479
335														9.047357881010335	-3.5366778409669686	1.902345113310614	0.12487918024668604	-0.39207144941652916	0.9114193156244486	0.715510616911778	-0.6008007405545943	-0.3564870646118571	0.6873497999035447	0.6966480091850357	0.20550378067345612
336														9.017883357583615	-3.518446837920886	1.8618270299866426	0.12478017124243107	-0.3921895819572134	0.9113820497842472	0.7155704993376226	-0.6007330914165361	-0.35648087375739723	0.6873054410830858	0.6966398529235593	0.20567971697818638
337														9.03807905732001	-3.5435927218596466	1.8528868570308366	0.12458051047700991	-0.3922830250352458	0.9113691484126966	0.7156292124999901	-0.6007161825990527	-0.3563914956620951	0.6872805297881871	0.6966018204346138	0.20589166360309635
338														9.011004636363047	-3.489204099332091	1.8968518896853763	0.12450215435669648	-0.392315676444418	0.9113658011887978	0.71580279261022	-0.6005585048480698	-0.3563086363618778	0.6871139466289061	0.6967193784233429	0.20604982911286063
339														9.045652748775321	-3.5108125496367775	1.9074428933252048	0.12429919527086997	-0.3923284892444221	0.9113879890486841	0.7159395885070281	-0.600495220501144	-0.35614041579645284	0.6870081627341863	0.6967667089366946	0.20624242447693958
340														8.991228680700884	-3.4855581504625652	1.9148273566290965	0.12417213184759607	-0.3922989581800851	0.9114180210437156	0.7161236777133395	-0.6003703698528857	-0.35598075400368207	0.6868392533124065	0.6968909142853914	0.20638530397227156
341														8.985727560048975	-3.479981690776903	1.950155921458136	0.12397449426477669	-0.3922531590787583	0.9114646367054113	0.7162120747656595	-0.6003768614836373	-0.35579191693309564	0.6867827813302123	0.6969111014955867	0.20650503112647395
342														8.945575856094452	-3.4519031655761463	1.9764863375889838	0.1239021846894347	-0.3921908947916341	0.9115012620242074	0.7163637012503985	-0.6002759110157428	-0.35565696701323035	0.6866376745853778	0.697033092971028	0.20657582419834936
343														8.953589905984607	-3.527481149845949	1.9524196388784276	0.12378586426066562	-0.39211426955824064	0.911550031220474	0.7163576976094383	-0.6003579601937198	-0.35553054539341616	0.6866649174706277	0.6970055374535005	0.2065782463721981
344														8.978949647481624	-3.5075212963507267	1.901789894746065	0.12374194761008289	-0.39202536386871645	0.911594232367265	0.7164597281118582	-0.6003064336788653	-0.3554119351930147	0.6865663758119422	0.6970999209348412	0.20658729834404715
345														8.953723362292676	-3.500893248601284	1.9500531627904767	0.12356141607438875	-0.391914295296214	0.9116664749787416	0.7164658475894952	-0.6004149502737488	-0.3552162393889653	0.6865925033785024	0.6970689152660907	0.20660508627378343
346														9.000470945917607	-3.5302062376679113	1.8912571135556708	0.12351088155025652	-0.3917684989480309	0.9117359844662739	0.7165556169518644	-0.6004005797030045	-0.3550594199666156	0.6865079096073198	0.6971632428092457	0.20656791358360888
347														9.008156762843642	-3.5811897857829287	1.8635571390110548	0.12338565740709695	-0.39161227538786314	0.9118200509485187	0.7166207653735736	-0.6004447435511496	-0.35485319299280393	0.6864624229931399	0.6972129772941228	0.20655121909844276
348														8.963312979363065	-3.572704810026275	1.9258342633923498	0.12337985937990736	-0.3914152287660444	0.9119054386225687	0.7169432173379968	-0.600196033499379	-0.354622538038199	0.6861266890395941	0.6975376979501805	0.2065703912130844
349														8.964078088214459	-3.5705241526598117	1.9263172469617735	0.12334738547302737	-0.39121084944621715	0.9119975294772127	0.7172484777336796	-0.5999778446329808	-0.35437438837800306	0.6858134175456831	0.6978399939994366	0.20658968776097836
350														8.944254391821017	-3.542946235724831	1.9378448478050347	0.12339750180707432	-0.3910088744050866	0.9120773633219064	0.7176474337386478	-0.5996302797767067	-0.3541548932645744	0.6853869107271504	0.6982518082406777	0.20661363675352498
351														8.947023889504162	-3.5053100241637623	2.0224173270293853	0.12340195828665984	-0.3907613697704651	0.9121828262942289	0.7180176873589186	-0.5993471656071647	-0.35388356237385243	0.6849982170274371	0.6986333279866971	0.20661296110230945
352														8.938699464250234	-3.4860553269851313	1.9661752557707026	0.12347790635783429	-0.390553163974523	0.9122617128603916	0.7184331536879902	-0.5989738444629394	-0.35367235873222447	0.6845487640215375	0.6990697817519907	0.20662630499965245
353														8.967779305311526	-3.478161093798753	2.005586507975926	0.12348044354909604	-0.39030366544573114	0.9123681432407349	0.7187052515596378	-0.5987915417614569	-0.3534281410634078	0.684262626073876	0.6993652395240738	0.20657424888867107
354														8.94939304375101	-3.4991776034068467	2.022554512410356	0.12361075639595265	-0.39006250706774903	0.9124536270316668	0.719087947428958	-0.5984419357884734	-0.3532418057820371	0.6838368992425241	0.6997988925896986	0.20651538723446963
355														8.970047912951458	-3.4989167424649392	2.007631584766409	0.12375802424562388	-0.3897778576004769	0.9125552986856202	0.7193544750598264	-0.5982208694337027	-0.35307354840795724	0.683529875459896	0.700146422613418	0.20635381328052055
356														8.991442798985108	-3.414786446432667	2.0699219557780753	0.12397125385514102	-0.3894966842911859	0.912646405320131	0.7196904712716613	-0.5979007266697489	-0.3529310791196497	0.6831374340338542	0.7005762299521435	0.20619454951012428
357														8.992163610017691	-3.4138313157571973	2.068365601953649	0.12419010423810367	-0.3892550262381239	0.912719750283561	0.7198883884868584	-0.5977043006259442	-0.35286013820640705	0.6828891023666454	0.700878087517086	0.205991214150674
358														8.952289651531586	-3.386843836485998	2.0914854275580024	0.12451218908403311	-0.3890319725521533	0.9127709674949585	0.7200848725954363	-0.5974609332569414	-0.3528713781124204	0.6826232423736509	0.7012093535912975	0.2057448696987575
359														9.027927057793015	-3.4365619123131257	2.072184973603535	0.1247571037066279	-0.38877827967760203	0.9128456136311651	0.7199809270390116	-0.5975685245223752	-0.35290129384885704	0.682688164372856	0.7012583744605666	0.20536202782925744
360														9.104152838316953	-3.510941786832544	2.055607598735425	0.12514163028499825	-0.38857024110755883	0.912881558634649	0.7200526789652582	-0.5974224759903672	-0.35300215962015546	0.6825420953205505	0.701498077621851	0.2050286204613392
361														9.111454766160579	-3.564528192347124	2.0253361599635347	0.12540835669623984	-0.3883528340194468	0.9129374679460875	0.7200857715469418	-0.597366503024958	-0.3530293793431069	0.6824582226674356	0.701666115308982	0.20473259862759524
362														8.99111507094829	-3.6172086118729396	2.027263036544904	0.1257195693868694	-0.3881667152213196	0.9129738172956938	0.7202602495011435	-0.5971352339720302	-0.35306470418001157	0.6822168004833438	0.7019658920086215	0.2045094706726559
363														8.977188559855982	-3.620453847882347	2.0058960020146697	0.12599831741316453	-0.3879640502755736	0.9130215329896789	0.7204824113367705	-0.5968739468949357	-0.3530532346154243	0.6819307288599068	0.7023000692096175	0.204316161438009
364														9.011020860171875	-3.5943427878657004	2.006494272419789	0.12627959563795427	-0.38771148933868493	0.9130899543639138	0.7207772486196834	-0.5965557190230387	-0.35298928025245313	0.6815670338255472	0.7027098086235061	0.20412080557003862
365														9.032460852273791	-3.51079275495566	2.068212975894384	0.12648797905772524	-0.3874815469808782	0.91315871670986	0.7209850514582171	-0.5963471839280194	-0.35291725913436633	0.6813085547148847	0.7030135752390754	0.2039376529772973
366														9.072005414375035	-3.488732949278688	2.034935153582122	0.1266585175904006	-0.3872699495946732	0.9132248387241455	0.721093041204095	-0.5962494762702228	-0.35286171225356056	0.6811625693245569	0.7032130176471597	0.2037375909417403
367														9.07179988205	-3.4642997863025387	2.0299900550287964	0.1267459793929126	-0.38712359720230627	0.9132747544944395	0.7210280507194574	-0.5963382291721575	-0.35284453588445397	0.6812150958276186	0.7032183422785293	0.20354349977242295
368														9.058540878088884	-3.491634212581912	2.0120456822564257	0.1268379822209843	-0.3870156176412447	0.9133077454877273	0.7209403930043221	-0.596433738964757	-0.3528622178121281	0.681290742635538	0.7031967766751253	0.20336473950228234
369														9.04096110317508	-3.563191422873846	2.0345630833252066	0.12684491040670626	-0.3869383306271099	0.9133395299643071	0.720766028631445	-0.5966407664908633	-0.3528684283582929	0.6814739178242782	0.7030636699849467	0.20321115932086076
370														9.014625937377586	-3.641976126795652	2.004217635910647	0.12690925219003713	-0.38686494881524547	0.9133616770407782	0.720800728868754	-0.5966076667127966	-0.3528535124974458	0.6814252350557897	0.7031321379354593	0.20313750424643826
371														9.002943788873303	-3.6086786815873273	2.0687807747784395	0.1269115167014086	-0.38680219977279573	0.9133879379428412	0.7210097003558484	-0.596415307816068	-0.3527517435753305	0.6812036985522899	0.7033298222410254	0.20319616685629174
372														9.014536418299596	-3.508118928866702	2.0764388755157097	0.1270159230733628	-0.38673648138553934	0.9134012531474621	0.7214106271131246	-0.5959848313453258	-0.3526595920920512	0.6807596215802388	0.7037307544592719	0.20329624407281616
373														9.055217733852018	-3.42589190815188	2.1265392668551026	0.12712940017108615	-0.3867125560728638	0.9133955958880757	0.7217266507615435	-0.5956219096637851	-0.3526261225561593	0.6804033782931016	0.7040510916858653	0.20337970179758968
374														9.038693386228795	-3.3564215363886905	2.098055226463835	0.12727142960449345	-0.38671871652649437	0.9133732082202377	0.7219867780688537	-0.5952934869506972	-0.35264820528089513	0.6801007833403698	0.7043254210108999	0.2034419470454269
375														9.05200464322551	-3.329724490882509	2.1146745543299046	0.12737732018797282	-0.3867194068622706	0.9133581546457146	0.7220329794129874	-0.5952030201196232	-0.3527063105197934	0.6800319072968093	0.7044014943173913	0.20340879986296276
376														9.023763391769169	-3.3613482434808453	2.0783471927259365	0.12758167960318267	-0.38675576347902463	0.9133142364188729	0.7219886449167323	-0.5951531330216584	-0.35288120503337383	0.680040669108056	0.7044236847737746	0.20330263325595752
377														9.004043472008632	-3.386471727267641	2.0946332954324247	0.1278638972860891	-0.3868094285093151	0.9132520406695566	0.7218225944671557	-0.5951913864709318	-0.35315627643794445	0.6801639257469603	0.7043618952549228	0.20310429494566748
378														9.037583385085366	-3.5202688727256297	2.027599876248857	0.12807097010798524	-0.3868482839587913	0.9132065657964454	0.7216050460210723	-0.5953186573945639	-0.3533862670150885	0.6803557776432307	0.7042329879777514	0.20290863577335128
379														9.057460252001329	-3.548116256792575	2.015264686177624	0.12827121878234055	-0.38690232396080965	0.913155565139816	0.7214776575208814	-0.5953493558512345	-0.35359459015332945	0.680453146168253	0.704177347123041	0.20277519490431098
380														9.067905470280367	-3.558965345324302	1.9468164761368414	0.12845494904874882	-0.3869514191991418	0.9131089339419767	0.7214273910468482	-0.5953087145027706	-0.35376553518452947	0.680471781569391	0.7041847297526613	0.2026870022249826
381														9.061199212884445	-3.531904470406749	1.9770307694722005	0.1285893257007596	-0.3870141092272113	0.9130634504649127	0.7214324935054484	-0.5952252513522513	-0.3538955459837837	0.6804409912919231	0.7042208314241473	0.20266494013012587
382														8.986419762465006	-3.507601279073499	1.997167940090801	0.12867816516985175	-0.3870672107493557	0.913028424623918	0.7215133356366702	-0.5950853422901821	-0.35396601798735106	0.6803384718704104	0.7043098819085886	0.20269966437797593
383														8.936379397684632	-3.464676098510528	1.9661583515964318	0.12878168018662545	-0.3871135934459988	0.9129941646131345	0.7215713008673805	-0.5949657882432019	-0.35404882231791335	0.6802574046733088	0.7043853892504238	0.2027093653427562
384														9.038302376439281	-3.4604243690168066	1.982424429610133	0.12884568199234347	-0.38712186871863297	0.9129816257689535	0.72160346059057	-0.5949035735004357	-0.3540878194743857	0.680211170075618	0.7044333871958406	0.2026977234903081
385														9.072137059317493	-3.4592402225309256	1.9880846143474402	0.128842511372169	-0.3871612954822198	0.9129653545145299	0.7215873627208412	-0.5949062257134171	-0.35411616818354597	0.6802288476864923	0.7044094788458951	0.20272148600274428
386														9.003724126291765	-3.4628998104599202	1.9778962004136849	0.1288564253461223	-0.3872011030310712	0.9129465085417329	0.7215898042574265	-0.5948826670544882	-0.3541507685010262	0.6802236220822883	0.7044074944587545	0.2027459141674415
387														8.998035964043712	-3.45862527070016	2.0121692288618935	0.12877424437133717	-0.38721203187815495	0.9129534688884107	0.7215348677601492	-0.5949683189954604	-0.35411881339186213	0.6802974559653561	0.7043291430577802	0.20277038651281803
388														8.997321152743075	-3.4344644378196043	2.009203859512047	0.12880184695275188	-0.38720184601367447	0.9129538951475934	0.721565994840912	-0.5949289560503783	-0.35412152199782004	0.6802592147930121	0.7043679916750976	0.2027637368781333
389														9.036855069376426	-3.4373211686041145	1.9809583531869135	0.12875595574161103	-0.38719629883471723	0.9129627210515006	0.7215261294030679	-0.5949908123245427	-0.35409882495993594	0.6803101854666669	0.7043187910442803	0.20276363611908327
390														9.016412534514293	-3.411742452154553	1.9919241419054976	0.1287746011708341	-0.38717250426674577	0.9129701824447003	0.7215039756705313	-0.5950154894823408	-0.3541024998043757	0.6803301516064904	0.7043110244884053	0.2027236187502157
391														9.036204455881977	-3.413364801129938	1.9773551358608161	0.1287322169868902	-0.3871502272719321	0.9129856065858492	0.7213341840051382	-0.5952168767055432	-0.3541099612698564	0.6805181932140251	0.7041530879064501	0.20264110515028588
392														9.03623084174769	-3.4137387034361195	1.9765889495740656	0.12873989822269188	-0.3871168035915995	0.9129986960465135	0.7211474728415739	-0.5954199058125998	-0.3541489209023886	0.6807145958621883	0.7039997983942451	0.202514006530511
393														9.042430994013623	-3.4428056425600713	1.9450628004141655	0.12873720242793507	-0.38709384147113773	0.9130088118995058	0.7209234758637295	-0.5956614817589964	-0.35419873107795846	0.6809523292122496	0.7038080399113065	0.2023812449230844
394														9.044408683633401	-3.515701723775546	1.9539243082472484	0.12867776088856558	-0.38707252823762983	0.9130262272993225	0.7206732630171094	-0.5959520917481222	-0.35421907389821555	0.681228362463702	0.7035737077412476	0.20226704118628955
395														9.001722564103341	-3.5248772365143437	1.8942918776230637	0.12861059071677722	-0.3870096563208847	0.9130623428166736	0.7204645853039211	-0.5962188432583136	-0.35419468130756526	0.681461735740409	0.7033822693657478	0.20214669392191395
396														9.016251937749814	-3.5215789356235048	1.9131997657916842	0.12852935358492928	-0.3869473117204796	0.9131002043693424	0.7203500957790512	-0.596393694026123	-0.3541331687896342	0.6815980815540434	0.7032683269408412	0.20208343708398804
397														9.030207681171651	-3.4937205023436375	1.9292314622504425	0.12842866433951444	-0.38686273241837377	0.913150209134159	0.7202823599921753	-0.5965366529296593	-0.3540301450379356	0.6816886386467584	0.7031936063256471	0.20203799633400704
398														9.065923398957626	-3.5395871504474967	1.9410034986788276	0.12834730540760064	-0.38677740613710376	0.9131977919905752	0.7202753047343112	-0.5966095371704886	-0.35392166583456053	0.6817114159118234	0.7031787100439468	0.20201298759344094
399														9.07055400611063	-3.4945049080312076	1.9008403838450336	0.12818989478586457	-0.38669337195727443	0.913255488326844	0.7202409933369935	-0.5967403925843229	-0.3537708515059561	0.6817772821029826	0.7031138883158414	0.20201633019547907
400														9.06542196772351	-3.48891852350614	1.934964776243694	0.1280856553688578	-0.3866214142908536	0.9133005786160819	0.7202592265046285	-0.5967910927282063	-0.35364818432338574	0.6817776114860945	0.7031104277793164	0.20202726257686668
401														9.079489149594847	-3.460491888186057	1.9514053312213853	0.12789355031037059	-0.38650452063964935	0.9133769732778049	0.7201574976419818	-0.5970179116297372	-0.35347247669840814	0.6819211232826331	0.7029821254615103	0.20198938809395334
402														9.075077021549985	-3.4792358292352787	1.9881932284592607	0.12779304224582005	-0.3864232376394324	0.9134254319679395	0.7200403153541398	-0.5972102256192017	-0.3533863193172213	0.6820636939599328	0.702863448920287	0.20192099829787433
403														9.046939370180434	-3.4845909123578593	1.9483599237307183	0.12766092457876133	-0.3863295836318832	0.9134835199096436	0.7198112278118636	-0.5975350888781596	-0.35330385488322646	0.682330187410519	0.7026387908236965	0.20180249001967365
404														9.04058314616987	-3.5640299471082018	1.9037143708717383	0.12761182549507522	-0.3862278974499712	0.9135333782764529	0.7196544622752473	-0.5977553579421636	-0.35325060081868265	0.682504708350894	0.7025073261417352	0.20166997742859674
405														9.034871335777591	-3.5348064582933114	1.9332701229317337	0.12750614196757476	-0.386103543928378	0.9136006989524975	0.7194960333367202	-0.5980085135231514	-0.3531448368114088	0.6826914689471887	0.7023602146475685	0.20155020989061667
406														9.04896757439168	-3.506830018233095	1.9487525128571286	0.12744672757089648	-0.3859967085159247	0.9136541318498712	0.7193901069766099	-0.5981823863690775	-0.35306615049021245	0.682814180883534	0.7022708691471318	0.20144582579860185
407														9.041355761293074	-3.5375950980716966	1.8978380102416474	0.127298183497284	-0.38589133553107946	0.9137193494943244	0.719198227034226	-0.598479393322169	-0.35295371651188767	0.6830439829975207	0.7020757031337632	0.2013470247113533
408														9.002878707824927	-3.558258891639847	1.9289617383509028	0.12721242706988622	-0.3858103262797769	0.9137655008452003	0.7191103427024554	-0.5986350408350544	-0.3528688182636268	0.6831524818203799	0.7019875212710718	0.201286379475489
409														8.982775992775093	-3.5321174280284886	1.9393728901495806	0.12718716294236448	-0.38569955439558823	0.9138157797508848	0.7190317926483537	-0.5987685429370573	-0.35280237123626124	0.6832398603298608	0.7019345309415107	0.2011745697854333
410														9.024099706005815	-3.582582169138333	1.9166840991385128	0.12713107987132177	-0.38559981017510947	0.9138656766306915	0.7189680922675372	-0.598894722710898	-0.35271800834408074	0.6833173280635653	0.701881683406795	0.2010958270728506
411														9.018282076756556	-3.553307693110639	1.946856399653998	0.12708569357802202	-0.3854996109507798	0.9139142609920207	0.7189589346740404	-0.5989607861741928	-0.3526244842292755	0.6833354057416919	0.7018803506171055	0.20103904266944495
412														9.05192010443459	-3.5268923215688073	1.9488425684977317	0.1270600247800145	-0.38545130646121156	0.9139382038465445	0.7189555113016979	-0.5989931106454035	-0.3525765536280856	0.6833437808832514	0.7018792942854841	0.20101426163706482
413														9.046531257516024	-3.5223420204191442	1.9824170759880053	0.1270475049837797	-0.38539567814187864	0.9139634033958676	0.7188865407500034	-0.5990903647327065	-0.3525519485308879	0.6834186659770786	0.7018268348773744	0.2009428297803039
414														9.045881597969352	-3.4983515234538465	1.9787001116927225	0.12711182242794988	-0.38536464743405185	0.9139675448871661	0.7188488852804217	-0.5991155252613725	-0.3525859718166403	0.6834463144462338	0.7018223962647662	0.20086428097359948
415														9.047254429082102	-3.5471103987242585	1.9844125135434632	0.1271443776941399	-0.38530931955904973	0.9139863431593013	0.7187328452677992	-0.5992431179014175	-0.3526057044079715	0.6835622900321695	0.7017438378131511	0.20074407024180363
416														9.120257687489861	-3.5243267370891105	1.9572176961429144	0.127205401151399	-0.38527108433450385	0.9139939701626194	0.7186527987385675	-0.5993158706242792	-0.3526452070893437	0.6836350932940289	0.7017026997194593	0.20063992729087252
417														9.047182766496478	-3.5481223695063564	1.9829295354073988	0.1271970221877557	-0.38528464637899096	0.9139894194197125	0.7184886382349733	-0.5994824149928375	-0.35269662720475314	0.6838091797232768	0.7015529740361528	0.20057026286867113
418														9.08105722431039	-3.5472527763238713	1.9877465155377547	0.12727947216652724	-0.3852842019765092	0.9139781286619142	0.718415223778732	-0.5995252572040477	-0.352773343972266	0.6838709689758475	0.7015166068467267	0.2004867778939314
419														9.038640305230492	-3.581522647937417	1.9314134316572567	0.1273559441436129	-0.3852925287763167	0.9139639657888271	0.7182286738106414	-0.599683085815307	-0.3528849227485338	0.6840526555810572	0.701377119569909	0.20035493639119858
420														9.025953467457846	-3.5256900590132267	1.9919166824655112	0.12742796148441682	-0.3853295606204665	0.9139383153933113	0.718133602258997	-0.599737742289561	-0.35298550930588674	0.6841390530721384	0.7013100385603059	0.200294747500027
421														9.040491341938289	-3.5482165765157774	2.014234813957372	0.1275301851425985	-0.38539310610197597	0.9138972620850587	0.7179868362803592	-0.5998231419425608	-0.35313892637073596	0.6842740348760985	0.7012020765508516	0.2002116206296685
422														9.030585647749518	-3.5328180951924897	1.9570900436163308	0.1275998614903111	-0.3854537458456012	0.9138619617651494	0.7178149057666335	-0.5999482603901396	-0.3532758779114188	0.6844414046555715	0.701061691057527	0.20013112932442126
423														9.045016149401809	-3.5556021807474663	1.9794125676148095	0.12769134561890755	-0.3855328135148892	0.9138158293427224	0.7176790381984604	-0.600020604118213	-0.3534290208290043	0.6845668107530242	0.7009562927436415	0.20007138045838752
424														8.996692046094926	-3.5859480829678714	1.9577836760346616	0.1277434073214982	-0.3856526680775998	0.9137579775249701	0.7176142245272077	-0.6000199780426871	-0.35356166464404604	0.6846250409107962	0.700890894187022	0.20010124388321185
425														9.021965729257413	-3.4845954943521655	1.9847329579913282	0.12777955433797977	-0.38577308487019646	0.9137020917579861	0.7175356231523778	-0.6000395148176413	-0.3536880124696599	0.6847006754783551	0.7008078963932567	0.20013314905917567
426														9.020582080229422	-3.46202270092465	1.9820219889104542	0.12787583976943545	-0.38591734817737067	0.9136276976859931	0.7174519854264091	-0.6000310953446077	-0.3538719164150419	0.6847703397570356	0.7007356741277675	0.20014768745538353
427														9.03398709999712	-3.4611442206428635	2.0019440365164	0.12793517780830654	-0.3860872344318367	0.9135476110679366	0.7172689517702722	-0.6001290038758781	-0.35407686952598627	0.6849509771549589	0.7005582246435506	0.20015077511402432
428														9.073275053075085	-3.4902450865934904	1.9770904486544116	0.12799693818083874	-0.3862744443398883	0.9134598171054058	0.7171153002579105	-0.6001890515727709	-0.3542862522144838	0.6851003064897414	0.7004035665400972	0.20018095320378032
429														9.107647957280907	-3.5392210385737406	1.9894039645515524	0.12804737934951	-0.3864848979359814	0.9133637239945193	0.7169389956246868	-0.600267590210202	-0.35450993878296555	0.6852753790954317	0.7002201395351684	0.20022340271547012
430														9.112834454258236	-3.5697087730367376	1.9596447286405407	0.12805194321307412	-0.3866857995309214	0.913278047628698	0.7168135808086722	-0.6003159039893851	-0.3546816964345009	0.6854057121206415	0.700067788045228	0.20031001456207023
431														9.055535706336917	-3.606991626810411	1.8859676862617427	0.12794872747832403	-0.3868702508581824	0.9132143954940729	0.7167518006866936	-0.6003482943420844	-0.35475171837911157	0.6854895909852025	0.6999380933207431	0.20047614862986304
432														8.99414905903463	-3.5552470834436205	1.9244029669844327	0.12786346761245626	-0.3870504171155958	0.9131499922032313	0.7168043501873504	-0.6002584636661974	-0.35479754839850064	0.6854505505159423	0.699915531623452	0.20068829410220196
433														8.973812515603788	-3.5539517888901164	1.940979474619413	0.1277206569435963	-0.38715942174230866	0.9131237681421163	0.7169103719654664	-0.600164505734433	-0.35474227916176015	0.685366290649192	0.6999358172094815	0.2009052001045828
434														9.020501186066719	-3.5006482009703808	1.9621113368270928	0.12757881306360663	-0.3872910411598316	0.9130877810455111	0.7170288561139968	-0.6000486403655956	-0.3546988140595536	0.6852687545460796	0.699962340867517	0.2011453589077592
435														9.038714945136759	-3.452962897495203	1.944329796250018	0.12734429136873104	-0.387393056264952	0.9130772428516083	0.7171538010802064	-0.5999744317241839	-0.3545717231724125	0.6851816234050698	0.6999695002176466	0.20141708396521546
436														9.011771618286762	-3.3980491640339494	1.9889020990344943	0.1270917315555773	-0.3875427876253056	0.9130488921902331	0.7171927644649972	-0.5999766669227053	-0.3544891221848358	0.6851877336681236	0.699884695437704	0.20169080971331385
437														8.992230406228824	-3.420293952983914	2.008849735088681	0.1268234569097767	-0.38768078456187877	0.9130276118819959	0.7170836889689434	-0.6001408326958776	-0.35443188900801614	0.6853515840735659	0.699667485461905	0.20188763210080304
438														8.990037641634347	-3.480043128840857	1.9300786113530985	0.12663109715674303	-0.38782710804724657	0.912992168365419	0.7169933186903654	-0.6002524843853605	-0.35442564233218127	0.6854816891691975	0.6994905926836419	0.2020588146081032
439														9.00514186108937	-3.52531933371297	1.9581099483642586	0.12636356898961515	-0.38795804096674547	0.9129736068920351	0.7168930460951172	-0.6004098964788056	-0.3543618442648344	0.6856359156962766	0.6992828574043235	0.20225448436999716
440														8.991826164583767	-3.576212712272849	1.9472262618852478	0.12619318254451667	-0.3880767251743148	0.9129467323219165	0.7169903331011355	-0.6003320538223764	-0.3542968915936595	0.6855655642743503	0.6992838340269178	0.2024894479961981
441														9.04421953896311	-3.5267836455741675	1.9347345826988107	0.12598486696134953	-0.3881572180216959	0.912941283651029	0.7171185503416013	-0.6002524810865273	-0.3541721949919677	0.6854697645065692	0.6993074667462987	0.20273201251944126
442														9.002499635268762	-3.450524973116766	1.9560060720678485	0.12586742250355648	-0.38822118248133985	0.9129302850848476	0.7173227408888493	-0.6000657956941848	-0.3540750291133413	0.6852776644222544	0.6994321656248695	0.20295114765205205
443														9.036426748463795	-3.4480228062263136	1.9636366532902563	0.12568850795384173	-0.3882708931575468	0.9129337941466392	0.7173938669274812	-0.6000447368027164	-0.3539665994556473	0.6852360459456092	0.6994226385827098	0.2031244297833902
444														8.983006332951206	-3.47184577108401	1.9773104414766618	0.1255787680359845	-0.3883437464079498	0.9129179084914497	0.7174346925891781	-0.600018248000011	-0.35392875545294344	0.685213422874973	0.6994049161200083	0.2032617239401659
445														9.036106555470786	-3.447146989294735	1.9666454154817885	0.1254544841685009	-0.38838767092678106	0.9129163102245935	0.7173591193038	-0.600127517413884	-0.35389667530838076	0.6853153043334815	0.6992867651505492	0.2033247494320079
446														9.030288250545778	-3.442912754132474	2.001091768145474	0.12537531508639932	-0.38845600055284646	0.9128981137024405	0.7172112111137688	-0.6002832240727074	-0.353932379911188	0.6854845797096444	0.6991151454026465	0.20334430026172245
447														9.036361353867704	-3.471890946802395	1.9705876897198114	0.12528365294351845	-0.3884890661719243	0.9128966270996921	0.7169570055442267	-0.6005657941696978	-0.35396804809809573	0.685767204309293	0.6988540422278362	0.20328888104279086
448														9.057901127059864	-3.5464219061973727	1.9658223787276643	0.1252203075047959	-0.38854922189341745	0.9128797164766141	0.7167337451867664	-0.6007949340749603	-0.3540313343482674	0.6860121085658438	0.6986236106487406	0.20325461260488292
449														9.04415281058945	-3.5741546695698125	1.9491105707655654	0.12518444122984074	-0.38856436348819434	0.9128781907248018	0.716548787528825	-0.6009915303501321	-0.3540720485132619	0.6862118410264748	0.6984460722736018	0.203190534623627
450														9.030410726209514	-3.601773373212416	1.932558778656442	0.1251945768742616	-0.38859667110821705	0.9128630483949315	0.7165090146288656	-0.6010154769397049	-0.354111886886774	0.6862515208557624	0.6984074911414907	0.2031891395734571
451														8.990485048588699	-3.599337241792522	1.961419418758018	0.12509695641719998	-0.3886264103667019	0.9128637711403852	0.7164841476641732	-0.6010677808758657	-0.3540734230903333	0.6862952845831719	0.6983459285758418	0.2032529124033623
452														8.955664259875645	-3.57659193306579	1.953691935053756	0.1250802581194287	-0.3886310358360986	0.912864090110756	0.7166053095174457	-0.6009492688659251	-0.35402938666290945	0.686171814781242	0.6984453409068394	0.20332817405698111
453														8.954277540052894	-3.5280411293253775	1.9482498308309657	0.1251524593804037	-0.38863343108526144	0.9128531744776561	0.7167892301828069	-0.6007325665000138	-0.3540248339315276	0.6859665162418466	0.6986304028520404	0.20338509976352886
454														8.987401401872624	-3.5025432636843976	1.9514122913659862	0.12522196257069584	-0.3886876933866197	0.9128205393721885	0.7169040997048224	-0.6005670499465877	-0.3540730579200736	0.6858337786347083	0.6987425101768482	0.2034476162440737
455														9.049402863205328	-3.4957079701547538	1.9970083374043748	0.12525188976365442	-0.388761907997536	0.9127848284238453	0.7169263605399687	-0.6005037507508059	-0.354135339802637	0.6858050434879788	0.6987556255403813	0.20349943022554662
456														9.014765810946063	-3.4983179367765636	1.9923927834178132	0.12530459871371014	-0.3888894351672941	0.9127232684425546	0.7169353462873338	-0.6004242682073605	-0.3542518982186501	0.6857860211356435	0.6987529644752278	0.2035726598834532
457														8.96705355097488	-3.5525178302572966	1.9745513724756287	0.12530378711382412	-0.3890148665326649	0.9126699263980961	0.7168610997857159	-0.6004515384317645	-0.3543559137490738	0.6858637798782986	0.6986597051580262	0.2036307733117777
458														9.035651915282642	-3.5990528570041906	1.9928417578236743	0.12539764446789403	-0.3891368339135117	0.9126050379291533	0.7169169591187097	-0.6003101334557435	-0.3544824641619514	0.6857882358934757	0.6987132946796667	0.2037013189647999
459														9.014517586061434	-3.574633388763214	2.00475693956187	0.12547689598588702	-0.38922042302872284	0.9125584972324182	0.7170226241578344	-0.6001386134770409	-0.35455916439949536	0.6856632592020374	0.6988140717753166	0.20377631871550406
460														9.062260863054995	-3.5707526872774262	2.0309830415792405	0.12552704835543088	-0.3892754379634199	0.9125281330071753	0.7171700222227947	-0.5999471149105435	-0.3545851358072859	0.6854999047090595	0.6989478469162794	0.20386708399093703
461														9.06509998466762	-3.4787866648021413	1.9854761929468079	0.12556177836898047	-0.38935151069793617	0.9124908990943712	0.7172673401799963	-0.5998045489582635	-0.3546294767219549	0.6853917146595314	0.6990278278911426	0.20395659663236823
462														9.02487559770682	-3.47679372866778	2.0146908507324977	0.12561585843965556	-0.3894475144176518	0.9124424856517706	0.7172794366441423	-0.5997334550474187	-0.35472523544899903	0.68536914569882	0.6990353470396177	0.20400666095319261
463														9.015748215605317	-3.485396122412915	1.9617448653854614	0.12567333929584934	-0.38954759318224974	0.912391848076333	0.7171763011261586	-0.5997769231139691	-0.3548602479891779	0.6854665308337317	0.6989422831291979	0.20399833323072109
464														8.982808785254093	-3.561100279979888	1.9660968337138918	0.12571996839915017	-0.3896715905190794	0.9123324728891586	0.7170305978958752	-0.599858728335123	-0.35501637669444586	0.6856103931729742	0.6988029461747425	0.2039922331626861
465														9.021863860457831	-3.5654930953941166	1.9379664074307952	0.1257996607655516	-0.3897688298698744	0.912279948597546	0.7169437494388272	-0.5998777796606173	-0.3551595551439437	0.685686594219158	0.6987323584401375	0.20397790511919406
466														9.008713552761455	-3.6424703372386737	1.9285502916745445	0.12584869893114048	-0.38990865878616443	0.9122134304979912	0.7169454228057184	-0.5998021678285053	-0.355283858606263	0.6856758459325141	0.6987192549742707	0.20405890579176228
467														8.987625068845745	-3.6177596278292015	1.9408295473093584	0.12587397497313213	-0.3899933825291845	0.912173724686207	0.7171166739504907	-0.5995845842513279	-0.3553055055446618	0.6854920994195693	0.6988587038247484	0.20419866238970275
468														8.994384075819232	-3.56258928347622	1.9896157295836767	0.1259672646648895	-0.39010096221398705	0.9121148433791473	0.7173852505843288	-0.599231690275647	-0.3553586689718574	0.6851938780205971	0.6991012949845764	0.20436909960652738
469														8.992059647369627	-3.49050732869677	1.9818260859920989	0.1260118169425516	-0.390196744899336	0.9120677180236126	0.717613818971921	-0.5989433725974473	-0.3553832343289861	0.6849462962972882	0.6992948853606457	0.20453663363092084
470														9.023265791756895	-3.392868257364525	1.9758587068036468	0.1261174782552239	-0.3902889697321718	0.9120136521916457	0.7177646148762136	-0.5987113920019407	-0.3554695862077376	0.6847688218005729	0.699442055636133	0.2046276410882868
471														9.018122609956412	-3.437999454528585	2.0168311987793435	0.12624391019847686	-0.3903731129215984	0.9119601459744276	0.7177827094829543	-0.598609756960113	-0.3556041912568841	0.6847265564479789	0.6994820881052315	0.20463223430055572
472														8.98916515992267	-3.445326796957284	1.977770422134649	0.12635497560032705	-0.3904552988004522	0.9119095787300897	0.7177663597334336	-0.5985501539568423	-0.3557374959619174	0.6847232090239497	0.6994872213535351	0.2046258883598419
473														9.004409601602179	-3.516564921508835	2.007047340081636	0.12651439858890529	-0.3905370595991372	0.9118524617663474	0.7176835258685713	-0.598539317434384	-0.3559228036836607	0.68478059526139	0.6994508492845241	0.20455817213842822
474														9.023664681501067	-3.5197413889994418	1.9926084846490173	0.1266390568403133	-0.39061188367462657	0.9118031068244704	0.7176232363893986	-0.5985219728735309	-0.3560735016560234	0.6848207355772763	0.6994239088848313	0.2045159059918373
475														8.995385756506678	-3.5510534528207556	1.956452155352893	0.12676147465913723	-0.3906140844715512	0.9117851531773767	0.7176757038085618	-0.5984186842687409	-0.3561413518267069	0.684743099786428	0.6995110544734233	0.20447780310917135
476														9.024489883967508	-3.5943536716290287	2.0023780209773783	0.12690638498635531	-0.3906423011884536	0.9117529062042434	0.7177985981915498	-0.5982242461788088	-0.3562203302985965	0.6845874245733267	0.6996615923473182	0.2044840196936531
477														8.955008879773557	-3.549534421061009	1.9851950507775773	0.12698276024047023	-0.3906419976239908	0.9117424023780231	0.7179167804812256	-0.5980730533622738	-0.3562360441412382	0.6844493223790807	0.699791006325649	0.20450347811358255
478														9.021321011466886	-3.4740472305348846	1.9870836131336016	0.12702997268366267	-0.3906469716149379	0.9117336944569212	0.7180939650067766	-0.5978710412508204	-0.356218016746075	0.68425466272495	0.6999608286195297	0.2045736907264157
479														8.967300077260365	-3.4739968859618613	1.996350736927072	0.12706240815475955	-0.3906253085766755	0.911738456320282	0.7181812261295277	-0.5977772635516712	-0.3561994800891273	0.6841570513186296	0.7000530061931407	0.20458474442378421
480														8.972897972299569	-3.478503374626442	1.9627698414477943	0.12710149786423608	-0.3906080829504065	0.911740387815784	0.7182001926439904	-0.5977489579924152	-0.35620874007401515	0.684129879866976	0.7000867865863422	0.20456001251565933
