// Start Time: 1748431178.2324173
// Update Rate: 100Hz 
// Filter Profile: 46.1 human
// Option Flags: AHS Disabled ICC Disabled 
// Firmware Version: 4.0.2 
PacketCounter	SampleTimeFine	Year	Month	Day	Second	UTC_Nano	UTC_Year	UTC_Month	UTC_Day	UTC_Hour	UTC_Minute	UTC_Second	UTC_Valid	Acc_X	Acc_Y	Acc_Z	Mat[1][1]	Mat[2][1]	Mat[3][1]	Mat[1][2]	Mat[2][2]	Mat[3][2]	Mat[1][3]	Mat[2][3]	Mat[3][3]
0														9.115503186187592	-0.4237020852929777	-3.4059059541493806	0.3550310172422842	0.014535870359119685	0.9347415071926634	0.14740678694680603	-0.9882415036012078	-0.04061981932558664	0.923159908118809	0.1522085379764461	-0.35299907224969435
1														9.19005337364072	-0.412330355949293	-3.4519180290867655	0.3551502644580227	0.014548015065115147	0.9346960173837598	0.1473348814681671	-0.9882530301089003	-0.04060026087771407	0.9231255182033252	0.15213252031778896	-0.35312175506983406
2														9.165618675768718	-0.4160000731799583	-3.4543677095060494	0.3552731417797062	0.014574978968940458	0.9346488991691115	0.14723821249732588	-0.9882692476876449	-0.04055616914218011	0.923093659121635	0.15202455085594482	-0.3532515144008291
3														9.192177399233923	-0.41322640001614425	-3.5027624268936246	0.35531314418389853	0.01461924310615606	0.9346330013974228	0.14716270480979557	-0.9882833127334935	-0.04048743120496402	0.9230903032115637	0.15192883697150728	-0.3533014585495908
4														9.20907122806592	-0.38143983597818143	-3.454341724275862	0.3552435933411759	0.014633946513931448	0.9346592090165682	0.1471412648449758	-0.9882879732924148	-0.040451576302932175	0.9231204891940543	0.15189710153587085	-0.353236228287999
5														9.137503625527621	-0.39390928636813743	-3.4568998943339753	0.35509525198030145	0.01461692514466878	0.9347158431953322	0.14711817924746232	-0.9882920910720119	-0.04043493612485476	0.9231812407950875	0.1518719467967165	-0.3530882445228354
6														9.092859334696394	-0.42486402532350176	-3.4322370001722864	0.35498716066417096	0.014595725799034676	0.934757230810219	0.14708179718775652	-0.9882979274807904	-0.04042463943183241	0.9232286069547506	0.15183600141459663	-0.3529798407484723
7														9.112660237840881	-0.41627181431176324	-3.357737978416267	0.35502576845468103	0.014590578070426505	0.9347426484143829	0.14704430093033827	-0.988303596309508	-0.04042245768878963	0.9232197340271014	0.15179959338965524	-0.35301870509884326
8														9.112379099837366	-0.3956340614874738	-3.43310854792339	0.3551512061886014	0.014586556468077619	0.9346950588898957	0.14694983389846955	-0.9883180589844583	-0.04041238179574888	0.9231865288553522	0.15170578978930485	-0.35314584279644234
9														9.1176670957977	-0.4203531705721113	-3.4571938683698327	0.3552723707541739	0.014586259919974559	0.9346490162623916	0.14684418737735547	-0.9883345406399955	-0.04039332137141063	0.9231567186627597	0.15159840632235183	-0.3532698628362319
10														9.148458638047464	-0.4419240156589559	-3.5042148773349813	0.3553511915777634	0.014590723115095308	0.9346189819617635	0.1467801256074578	-0.9883446921728831	-0.04037776839238129	0.9231365691873133	0.15153177967894554	-0.35335109222472894
11														9.166463214699734	-0.41188169822734194	-3.4809025798893996	0.3554164963813983	0.014615738291131039	0.9345937589638487	0.14683883464671582	-0.9883356707473184	-0.040385128055291174	0.9231020911792833	0.1515881991536709	-0.3534169593239421
12														9.136725682753664	-0.3908599612081908	-3.4593013779299824	0.35536919055977817	0.01459913654110187	0.9346120069917475	0.14691901151536146	-0.9883221187608533	-0.04042516077156445	0.9231075465276174	0.1516781288792554	-0.35336412206596574
13														9.163754610248551	-0.4092476953561445	-3.4318345578258436	0.35533451839306096	0.014579325404490404	0.9346254989615475	0.1470005092803635	-0.9883081127991493	-0.04047127928170539	0.9231079191024663	0.15177126686607717	-0.3533231555448648
14														9.129784077772479	-0.3642364388981306	-3.4115420577113307	0.3553477867470682	0.014588155069172326	0.9346203165915228	0.1470213744171133	-0.9883049699323488	-0.040472235810767664	0.9230994886351436	0.15179088292350493	-0.35333675430506756
15														9.142517307535257	-0.435919508601785	-3.4075581743645205	0.3554445731782602	0.014559125972508885	0.9345839647934484	0.146958247552199	-0.9883134019073814	-0.04049559342256908	0.9230722771671305	0.1517387605761166	-0.3534302189461351
16														9.137983344151124	-0.4116146603443556	-3.409710260519505	0.35548846749788315	0.01457277940969165	0.9345670567574506	0.14695345530017892	-0.9883144685975851	-0.04048695019400853	0.9230561366739	0.15173050207835695	-0.35347591613532164
17														9.140772789095195	-0.41380157177559296	-3.458605733246664	0.35548975273256667	0.014560005559375963	0.9345667669782881	0.14696889781412303	-0.9883113673250503	-0.04050659565294894	0.9230531830709653	0.15175192734921222	-0.3534744315623959
18														9.135058794107243	-0.38848831863899985	-3.4357188732370556	0.3554890532506668	0.01453487460822718	0.9345674242338367	0.1470186374028501	-0.9883021034405569	-0.04055209724761819	0.9230455315287291	0.15181465592983476	-0.3534674765374489
19														9.13938771961905	-0.4123632399687262	-3.434174431331907	0.3554894616179764	0.014519424177522569	0.9345675090650831	0.14700705580928064	-0.9883033348115362	-0.040564072067324736	0.9230472188468193	0.15180811810291717	-0.35346587820778747
20														9.140844346985011	-0.4132805118764795	-3.4584789130424336	0.3554843241037812	0.014540423484209059	0.9345691367691196	0.14706043766911323	-0.9882955020696143	-0.040561413455861416	0.923040694113237	0.151857092932363	-0.3534618796095061
21														9.136619749189837	-0.4090993262787994	-3.385348514780356	0.35546401854039683	0.014557829281754794	0.9345765892262207	0.1471217505747966	-0.9882863134944906	-0.04056295190536959	0.9230387435156339	0.15191521374132766	-0.35344199779172675
22														9.115593035937748	-0.4156245892671002	-3.4349748124049087	0.35543500312345416	0.014561100914329286	0.934587573689482	0.14713932596299772	-0.9882837700290383	-0.04056117173290108	0.9230471154333266	0.1519314458476385	-0.35341315546094393
23														9.13668652269063	-0.4083052765104825	-3.3852641676108126	0.3554954167811951	0.014548476094577323	0.934564792024015	0.14707347158896747	-0.9882936279431416	-0.0405598190547385	0.9230343452994227	0.15186851816722735	-0.3534735500534051
24														9.163189511387918	-0.4059930101002434	-3.433729531489387	0.35563064677962497	0.014560260777918665	0.9345131576800749	0.14701367654329392	-0.9883030103962718	-0.04054797838228268	0.9229917778508805	0.1518063188663282	-0.3536113962698674
25														9.165629657966994	-0.4080283714956652	-3.483550350588843	0.3557082568023892	0.014559009826734734	0.9344836388484664	0.14694396401238374	-0.988313865681355	-0.04053608691405625	0.9229729722385879	0.1517357510108995	-0.35369076095118096
26														9.14014469784436	-0.4108343659166998	-3.460618815351077	0.355664585986047	0.01454408575913882	0.9345004932287647	0.14698234592217402	-0.9883072188491386	-0.04055898368913074	0.9229836901389906	0.15178046890200206	-0.3536436016631719
27														9.115029753444112	-0.41372438642309317	-3.4366985580088985	0.35554875311528156	0.014541662055756285	0.9345446079363061	0.1470442023658452	-0.9882977666825477	-0.04056509485851624	0.9230184649879764	0.1518422353462443	-0.35352630574865984
28														9.112420050604266	-0.41106532878745533	-3.3873913504789956	0.3555339331036714	0.014514649839082419	0.9345506660164994	0.14709279231019468	-0.9882887044706383	-0.040609691775944055	0.9230164315234176	0.15190379045894828	-0.3535051705166135
29														9.137663484491897	-0.40772173702516157	-3.4110349503798605	0.3556497623134754	0.014527836303646915	0.9345063876393264	0.14705012430268394	-0.988295470381052	-0.04059955870277914	0.9229786062032715	0.15185850386669048	-0.3536233692708058
30														9.144522341876897	-0.43369094471981434	-3.4590962432361856	0.3557058540226438	0.014558475256217979	0.9344845617837869	0.147052211402546	-0.9882960569185536	-0.040577715569760114	0.9229566579941026	0.1518517523028744	-0.35368354893450155
31														9.165693868861668	-0.40610093776254924	-3.483606628352924	0.3556156673254312	0.014563764669782486	0.934518803401693	0.14711574116607348	-0.9882864766685218	-0.04058076804690982	0.9229812868383876	0.1519135833056525	-0.3535927139427389
32														9.136364408642503	-0.40498008490450943	-3.386532721295983	0.3555228226683393	0.014588285446658716	0.9345537461749668	0.14718232301459877	-0.9882772441303632	-0.040564177868187695	0.9230064389558524	0.1519712823589459	-0.3535022531529534
33														9.133531445710043	-0.3817336501287441	-3.4122652653913033	0.3555784418814268	0.014620226434678682	0.9345320864733193	0.14720883373032784	-0.9882738675799483	-0.040550239584095225	0.922980785791846	0.15199016954253833	-0.3535611084685318
34														9.167268584345228	-0.4260693645970601	-3.433341421171072	0.3556940165650017	0.01464361924537623	0.934487737209672	0.14719550717316016	-0.9882762512572583	-0.04054052132048962	0.9229383778172262	0.15197241728780048	-0.35367942424717075
35														9.16695742150784	-0.4052657141254484	-3.508606545368906	0.3557156374910089	0.014684796438993938	0.9344788611830184	0.14719680011705177	-0.9882776695168294	-0.04050123417484481	0.9229298387633083	0.15195922047684446	-0.3537073762764975
36														9.144422398035797	-0.41039447519254973	-3.53410555298734	0.35567982296533746	0.014700922773277877	0.9344922398848267	0.14727574826806394	-0.9882656221740916	-0.040508196712977874	0.9229310469950766	0.152035992115254	-0.3536712309392755
37														9.139037602530568	-0.404979263790814	-3.4359844278244864	0.3555644258692051	0.01469057283236061	0.9345363161087751	0.14730478640864603	-0.9882612137471805	-0.04051016297243558	0.9229708765488792	0.15206564527468797	-0.3535545227681113
38														9.111173182006972	-0.4052233150374532	-3.3631206524995507	0.35547655963457647	0.014685264246503738	0.934569825408662	0.14734572195394766	-0.9882548660260739	-0.040516144901231704	0.9229981873071239	0.15210740544035986	-0.35346525067956336
39														9.088812987609396	-0.4104803317039889	-3.388155445179316	0.35545685114747183	0.014685327073940213	0.9345773205792314	0.1473178485112053	-0.9882596024815213	-0.04050197048410076	0.9230102266401785	0.15207662302864566	-0.35344705720354996
40														9.090095113168315	-0.4112118390495397	-3.412947655565277	0.35555522208747337	0.014721482569485314	0.9345393314340942	0.14732319183692005	-0.9882595863849595	-0.040482923130760344	0.9229714844963031	0.15207323192851965	-0.35354967251788705
41														9.164572766087101	-0.39997678545111076	-3.459032020905164	0.3556323781406184	0.014749314120572982	0.9345095341145645	0.14732339121790455	-0.9882602083506851	-0.04046701114137681	0.9229417262309164	0.15206649309967246	-0.35363024709187824
42														9.144616947090988	-0.4278498733447351	-3.459573517827462	0.3557197531146337	0.014769005557559473	0.9344759674378493	0.14730789785305812	-0.9882629902601521	-0.040455473204191655	0.9229105267977913	0.15204650129780314	-0.3537202580697352
43														9.168401024356948	-0.4228094702473357	-3.4590090532487316	0.35574663161889003	0.014807853778213392	0.9344651205680699	0.14730284069942723	-0.98826531279479	-0.04041713310584547	0.9229009736768585	0.15202762575630627	-0.3537532950987277
44														9.169731062136455	-0.42348350457185574	-3.483659287581644	0.3557751795231299	0.014819017709312307	0.9344540750349457	0.14731078833020705	-0.9882642830094995	-0.04041334642482278	0.9228887003733537	0.15203323203119404	-0.35378290388504
45														9.139982203801376	-0.4021981282565266	-3.4620621802660447	0.3557580137383048	0.014831036139455314	0.9344604197225297	0.1473265858501897	-0.9882623224896268	-0.04040370093365159	0.9228927959209037	0.15204480364168793	-0.35376724682036037
46														9.13876967073772	-0.40040139734043684	-3.437233344917933	0.3556706967822151	0.014842056044274937	0.9344934824935016	0.14734556056847478	-0.9882602945542269	-0.04038410564015084	0.922923421108824	0.1520569090175502	-0.35368213863413145
47														9.119357390029036	-0.4283998983251863	-3.4363406978468127	0.3556373022316097	0.014825535374914503	0.9345064541041278	0.14735830393106902	-0.9882577186428976	-0.040400641149549076	0.922934255255477	0.15207526111627465	-0.35364597471544257
48														9.134647800337842	-0.3755762515913756	-3.438246445109569	0.3556761637845817	0.01486891767509832	0.9344909747036914	0.14737905790226058	-0.9882558968786146	-0.04036948818709034	0.9229159657343273	0.15208286416232647	-0.35369043331825906
49														9.165692032138768	-0.4173551334344499	-3.4103329464046537	0.3557496802201953	0.014850013773324497	0.9344632909398639	0.14731603111836505	-0.988264940872017	-0.0403781329281256	0.9228976931376313	0.15202593112413604	-0.35376258177918957
50														9.165388617570038	-0.39681054946071376	-3.4854798857221674	0.35579787954924474	0.01484954135200929	0.9344449475650755	0.1472775282996524	-0.9882709191248485	-0.04037226857723503	0.9228852575299958	0.15198710976185542	-0.35381170119151145
51														9.135439108817888	-0.3755512224622119	-3.4643913373683746	0.3558662044391111	0.014887367763067885	0.9344183275274454	0.14733935367537865	-0.9882618832343091	-0.04036787094582072	0.9228490447503441	0.15204215345509914	-0.3538825005225795
52														9.165064132880458	-0.39585489349580844	-3.4864416664235955	0.3558702374920119	0.014896553611796967	0.9344166451631043	0.14730344818271035	-0.9882681659803636	-0.04034508970485453	0.9228532213851038	0.15200041052674843	-0.35388954064628314
53														9.115767462428623	-0.40279544999232675	-3.4642861856362988	0.35583300319949135	0.014911406554619783	0.934430587999234	0.1472880056668594	-0.9882716149968999	-0.04031697382119915	0.9228700435168055	0.15197652761523048	-0.35385592807427607
54														9.120314714755786	-0.4261044043754369	-3.462346725696369	0.35577632356067423	0.014927257278455008	0.9344519166783241	0.14728137512545184	-0.9882737930172767	-0.040287796867059064	0.9228929537789345	0.15196080753071922	-0.35380292372987177
55														9.144492126954873	-0.4208857684328366	-3.460757496899749	0.3557369453010686	0.014956491206900943	0.9344664408734228	0.1472386820496006	-0.988282360121564	-0.04023365731384181	0.9229149452989484	0.15190220552489989	-0.35377072193796644
56														9.090911656034171	-0.40364264629694413	-3.4399489757385746	0.35570239119841224	0.014961867765327347	0.9344795082872094	0.1471578078351817	-0.9882961430564101	-0.04019095934370593	0.9229411619864375	0.1518119762495586	-0.3537410569587986
57														9.140407484530936	-0.3953165586739624	-3.4617319961615145	0.3556886298995231	0.014964876573587069	0.9344846981247671	0.1470993753073661	-0.9883059790022544	-0.040162988591210605	0.9229557802757306	0.15174763371312372	-0.3537305235883451
58														9.164681168483563	-0.39026240631170156	-3.459854383709817	0.35555919074484477	0.0149269881233184	0.9345345616414824	0.14699913365661604	-0.9883217403936013	-0.04014214953845513	0.9230216230300761	0.15164868113811497	-0.3536011325321158
59														9.110128810609606	-0.37216627279223286	-3.413435789267202	0.3553640637945903	0.014862034154222548	0.9346098127583473	0.14691627867293086	-0.9883339358064855	-0.04014521632971474	0.923109955110599	0.15157556291850147	-0.3534018385657429
60														9.139241694818885	-0.3911644812144536	-3.408744978808671	0.35514255201295536	0.01484177659515827	0.9346943294025191	0.1468628365647538	-0.9883434003358933	-0.040107733027916675	0.9232037017830247	0.1515158232000329	-0.35318250287087655
61														9.115989338767353	-0.41513494047667165	-3.3336671705075527	0.35500101050678395	0.01482496233503898	0.9347483634812777	0.14681973971832418	-0.9883507470730513	-0.04008447067362309	0.9232649926040766	0.15146953902321644	-0.3530421110574324
62														9.093808921065353	-0.42029074417532575	-3.358286462729605	0.3549534878940694	0.014840334475345024	0.9347661664312069	0.14686976571252658	-0.9883435321955019	-0.04007910037496857	0.9232753074524319	0.15151510432949958	-0.35299558043782725
63														9.111969855732337	-0.3901538460497696	-3.3343529662488676	0.35501215674066705	0.01486463747488026	0.9347435001748234	0.14687549769811972	-0.9883432206390833	-0.04006577582792324	0.9232518382014028	0.1515147542964188	-0.3530571093863231
64														9.117372506128387	-0.3947482710313784	-3.4327138974179054	0.3551479006101942	0.014903915634320544	0.9346913083959517	0.14693977200238068	-0.9883333987186386	-0.04007238926184117	0.9231894020709183	0.15157495266708546	-0.3531945096231123
65														9.137891223470524	-0.3674234686503711	-3.458791394857417	0.35531041924161777	0.014910825231451194	0.9346294309881658	0.14698479754227145	-0.9883251561534102	-0.040110534848022815	0.9231196971518931	0.15162800864370043	-0.35335389020773855
66														9.188047404260706	-0.36097628260557224	-3.506863051454684	0.35551434301666174	0.014914806314050191	0.9345518179651924	0.14696643252301378	-0.9883269056386728	-0.04013471442709603	0.9230441049163849	0.15161621332595165	-0.35355636641957056
67														9.193223452432166	-0.3657503503641246	-3.6056293208560057	0.35560127163305355	0.014886228067017684	0.9345192003521877	0.14686567327472327	-0.9883416105909849	-0.04014143480221473	0.9230266570508773	0.15152313680872292	-0.3536418094415982
68														9.218497559765106	-0.3823994752553116	-3.5548850636839155	0.3556397403831787	0.014869837228956184	0.9345048223529778	0.14679243873545184	-0.9883526547217227	-0.04013738699296235	0.923023485611436	0.15145269177307003	-0.35368026120269647
69														9.203395147561226	-0.43439008666941153	-3.552748511029512	0.3555327752228902	0.014836688726558855	0.9345460493790242	0.14675587717899974	-0.9883579830686096	-0.04013987815094482	0.9230705055713418	0.15142116751690152	-0.3535710279025789
70														9.150190112708804	-0.41758770905315173	-3.5308977998728746	0.35536397557327587	0.014822046178659412	0.9346104813299682	0.14674846020340437	-0.9883597598569431	-0.040123241686790725	0.9231366823459498	0.15141100370384075	-0.3534025660131935
71														9.14799111678222	-0.41474870216127857	-3.480526550489898	0.35518892285199966	0.014785886974196888	0.9346775950185295	0.14679232551634147	-0.9883522445097176	-0.04014790084310409	0.9231970766053912	0.15146358743602223	-0.35322222385952695
72														9.117232168984113	-0.3925495862379729	-3.433338692644192	0.35512671619245956	0.01478305986159903	0.9347012766587455	0.1468631955087457	-0.988340931640055	-0.04016720863874008	0.9232097363282734	0.1515376652387007	-0.3531573569426005
73														9.118848038872054	-0.39373342816531	-3.4572132948882017	0.3550999610172624	0.01471979453022823	0.9347124399164307	0.14681926927592662	-0.9883456097110641	-0.040212658879371525	0.9232270142575022	0.15151331101211407	-0.35312263695680113
74														9.154597235523507	-0.43986437590709565	-3.5012834715749066	0.35504880238146663	0.014701279257943775	0.9347321650160901	0.1469409548349811	-0.9883251951748471	-0.04026989414916952	0.9232273304661595	0.15164821453212438	-0.3530638969217166
75														9.146230771674444	-0.39203840771629245	-3.503294439475977	0.3549169780653714	0.01465131497353142	0.9347830109980023	0.14698253912425696	-0.9883171432686166	-0.040315722912370906	0.9232713966508067	0.15170551503128413	-0.35292402133541706
76														9.166445323988633	-0.38421095013361317	-3.4275403778598132	0.3547593397432889	0.014556691758509016	0.9348443258585645	0.14708590575627123	-0.9882971840297521	-0.04042786621527056	0.9233155187652612	0.1518445875357771	-0.3527487406686616
77														9.146014500614344	-0.4117899040288944	-3.4011688122789794	0.35459550384981353	0.01448004969803078	0.9349076728801834	0.14709087141066868	-0.9882942168132396	-0.0404822993560911	0.9233776606552421	0.15187122562963862	-0.35257456889090066
78														9.164756450516368	-0.3821098013740239	-3.375553887624014	0.35445615684639836	0.014437483719167324	0.9349611713528756	0.14710170901112124	-0.9882915833087782	-0.040507203890625156	0.923429434271883	0.15189241398071215	-0.35242981499218135
79														9.139734958406983	-0.38502723268139477	-3.351333365809003	0.35438037785727583	0.014385952250632716	0.9349906909523633	0.14699216658674824	-0.9883079024572037	-0.04050670194889543	0.923475961112074	0.1517910877439302	-0.3523515502018495
80														9.147097474402509	-0.41103474095387005	-3.398346576245607	0.35442257025945606	0.014371325704056484	0.9349749230263823	0.14687718231139352	-0.9883258613540731	-0.040485615902386224	0.9234780641720447	0.15167549827258783	-0.35239581186049235
81														9.144042991458223	-0.3877880226250364	-3.424631893887894	0.35446608605187735	0.014385580978162324	0.934958207033333	0.14687100729786168	-0.988327183298398	-0.04047574543806576	0.9234623441453232	0.15166553271385155	-0.35244129317128703
82														9.144073634893916	-0.38745115762001714	-3.424588200041815	0.35441380019774704	0.01435522757898007	0.9349784947636746	0.14686062235171932	-0.9883279463364101	-0.04049479093561803	0.9234840636588466	0.15166343637017268	-0.3523852809589716
83														9.12195854381648	-0.39309944761250504	-3.449070122802113	0.3542545102129091	0.014275205157721474	0.9350400849757812	0.1468367595417167	-0.9883295309661331	-0.040542622849914806	0.9235489743598329	0.15166066311989848	-0.3522163187885148
84														9.120961042187137	-0.41190995219883236	-3.348951180085599	0.3541580195813973	0.014254518856349152	0.9350769518378458	0.1468289077819592	-0.9883306103622476	-0.040544746398815175	0.9235872286935002	0.1516555746194689	-0.3521181870922023
85														9.119717984897642	-0.39004215733408437	-3.3986362048784287	0.3541513465732125	0.014218744940166492	0.9350800238550216	0.1467112872259022	-0.9883484130807398	-0.04053655833076184	0.9236084786969532	0.15154287067728037	-0.3521109717489502
86														9.149367198727871	-0.4103892093823323	-3.4207421609878828	0.3542518279434365	0.014196265995610635	0.935042303016562	0.14659483619427946	-0.9883658242841302	-0.04053333675290666	0.9235884345312617	0.15143138188279875	-0.3522114992176714
87														9.17747875383293	-0.40925718883383216	-3.493260902219205	0.35428707506898577	0.014148504901055972	0.9350296723891323	0.14642184213499781	-0.988391852109817	-0.040523953764659185	0.92360235631188	0.15126588013161213	-0.3522461084570732
88														9.176076125453374	-0.4075246182690195	-3.4688238246990983	0.35422264166316725	0.014089962029172357	0.9350549679581326	0.14625850411194802	-0.9884165090039154	-0.04051240184744018	0.9236529489522043	0.15111015087852198	-0.35218028365223336
89														9.15235493015378	-0.4317524944973623	-3.3948627757032037	0.3541511801705088	0.01403278464760059	0.9350828960786681	0.14612197279001737	-0.9884368647135175	-0.04050843792673395	0.9237019598613985	0.15098226859583447	-0.3521065803387748
90														9.124154692962371	-0.411559348745343	-3.3972559619988756	0.3541528542835167	0.014029582662976256	0.9350823100738997	0.14596776750395907	-0.9884619056510585	-0.04045333022864674	0.9237256988158055	0.15081853959968086	-0.3521144720971735
91														9.174949324469432	-0.40456954957065777	-3.44379400707601	0.35420571821823826	0.013984951669970103	0.9350629552646661	0.145861537759168	-0.9884769400217528	-0.040469134507213816	0.9237222098575053	0.15072411941033445	-0.35216405103864074
92														9.12986265802945	-0.43578863690011005	-3.420576298268614	0.3541858800738741	0.013976380452667109	0.9350705979474158	0.14578962082106753	-0.988488440874915	-0.040447357361504344	0.923741169818226	0.15064947077942953	-0.35214625958077883
93														9.134391176606439	-0.4592237094057128	-3.4187501582528674	0.35413479609478077	0.013984748844134032	0.9350898208165217	0.1458099676558985	-0.9884858447089426	-0.04043745964120741	0.9237575436915761	0.15066572805324685	-0.3520963488352176
94														9.148276702328445	-0.4050923465116275	-3.395884974881493	0.3541320138341063	0.014006698917650107	0.9350905459704053	0.14583538296953016	-0.9884826678583081	-0.040423463704291694	0.9237545982845936	0.15068453049053182	-0.3520960301095669
95														9.128633374371848	-0.43302655642544846	-3.3958020739684063	0.3541653216587661	0.014000973454818419	0.9350780168930611	0.14578339759789877	-0.9884906640664444	-0.04041544306688524	0.9237500343270119	0.1506325987155408	-0.35213022347570105
96														9.14800245391544	-0.40428353762053443	-3.3967200629885705	0.35426501607027167	0.01400535173296101	0.9350401855062522	0.14580485416659683	-0.9884866512150245	-0.04043618269772969	0.9237084187611304	0.15065852280087835	-0.3522282876449159
97														9.14891089183338	-0.4055453279972861	-3.422539866242828	0.3544767869078716	0.013994762535403826	0.9349600815890748	0.1458490645985141	-0.9884774849505301	-0.040500766679327345	0.9236201913661319	0.1507196349765103	-0.35243344582110475
98														9.167874893722715	-0.37745503178058926	-3.424466157632963	0.35462069382948036	0.013957305670426148	0.9349060686113445	0.1458979601097692	-0.9884668609183164	-0.0405838650463203	0.9235572254840011	0.1507927666856472	-0.35256714647224563
99														9.151020280426312	-0.40870440849566114	-3.47327098024634	0.354584961204669	0.013904165080564967	0.9349204134475277	0.14594703754716434	-0.9884567907825283	-0.04065261353359572	0.9235631908638902	0.15086367007771515	-0.35252118451518943
100														9.09306582193242	-0.38894442260011025	-3.379273465147884	0.3545368581134025	0.013870928711603545	0.9349391496647012	0.14604886581616017	-0.9884390463468775	-0.04071830608815259	0.9235655607659318	0.15098294272384827	-0.35246390733457633
101														9.130207789536287	-0.45646350375571226	-3.3735070600046013	0.35458367980685473	0.01389105861795338	0.9349210942668388	0.14615172958640432	-0.9884227676007773	-0.040744379088690566	0.9235313129253025	0.15108762682262555	-0.3525087843835591
102														9.152315051303836	-0.41018769725557996	-3.4979979486277766	0.3547611578510726	0.013919326789725323	0.9348533431623848	0.14624123478109594	-0.9884080856918409	-0.04077937455002355	0.9234489818771078	0.15118104537511162	-0.35268437644645073
103														9.178751301994774	-0.4282181888690569	-3.4722247697148303	0.354835410516673	0.013963968619791212	0.9348244963755761	0.1463127432551953	-0.988397792932064	-0.04077234464884033	0.9234091252552161	0.15124420817806547	-0.3527616431643136
104														9.156269320852253	-0.43342340659814815	-3.497712609855265	0.3547424494040975	0.013988333078100434	0.9348594124939202	0.1463790712736854	-0.9883886536920887	-0.040755818551392854	0.9234343301414751	0.15130167147271326	-0.35267101117858923
105														9.147926453042182	-0.40523802516989305	-3.425206584384399	0.3546334850065259	0.01399985983443816	0.934900580402399	0.14645778712942312	-0.9883770343608976	-0.040754809987412044	0.9234637014530019	0.15137649048836335	-0.35256198068729383
106														9.145085569854318	-0.40240189188544273	-3.3763976178793773	0.354715959891016	0.014017042276637193	0.9348690337819573	0.1464978659640807	-0.988370623140929	-0.040766243142855464	0.9234256673206381	0.15141675547252734	-0.35264430109617184
107														9.14888844857306	-0.40575261741353125	-3.45093160210332	0.35492873365270206	0.014080935992200033	0.9347873133869935	0.1465362704056228	-0.9883655893793599	-0.04075025382008338	0.9233378122243776	0.15144368251061052	-0.35286271486844
108														9.15544272890805	-0.43186654894777554	-3.5000681587124944	0.3551001347133983	0.014095131403635941	0.934722002307232	0.1465493383910089	-0.9883628388207627	-0.0407699675658555	0.9232698336584404	0.1514603119925401	-0.35303340939270667
109														9.176168315509884	-0.4044781824684603	-3.5255205762577324	0.3550992767655723	0.014082118424040224	0.9347225243788978	0.1465586951228058	-0.9883607422249185	-0.040787156219931425	0.9232686784054077	0.15147520314988833	-0.35303004164834495
110														9.131496018686518	-0.43575893120927367	-3.5012624561193118	0.3549389425926103	0.0140826621328497	0.9347834110950474	0.14659970110059925	-0.9883551854591777	-0.04077444068494742	0.9233238189651859	0.15151140552185283	-0.35287025849218023
111														9.127760064982946	-0.4313407969411083	-3.4267459262286333	0.3547973963093941	0.014114996223125911	0.9348366565628973	0.14664499030883	-0.9883501755498647	-0.040733000231698825	0.9233710274799608	0.15154107486808177	-0.352733962411374
112														9.140377626778744	-0.3754235610648764	-3.3791006725592574	0.3547754833670365	0.014197011315856087	0.9348437309365579	0.14666485572398508	-0.9883506418871971	-0.04065007720323069	0.9233762919293244	0.15153037171096567	-0.3527247793280029
113														9.140359711138903	-0.3741852412604763	-3.379286487918935	0.3547966563033077	0.014248237141705505	0.9348349161292309	0.14654838121521002	-0.9883718208094133	-0.040555095772124794	0.9233866495889973	0.15138735603820572	-0.3527590732958793
114														9.148995197833795	-0.4006077047441506	-3.4512496211338632	0.35482512663488314	0.014323489774345347	0.9348229603241583	0.14649623042566612	-0.988383427125471	-0.04046054194864908	0.923383985121904	0.15130445672349668	-0.3528016119520973
115														9.145967554993602	-0.3768876171477852	-3.4773905548864263	0.3548430965511212	0.01436058183770203	0.9348155703235235	0.14650887630730958	-0.9883828323664039	-0.04042926967599999	0.9233750733007586	0.15130482600580833	-0.3528247775230234
116														9.143049326293731	-0.3735800698046671	-3.4288616721833627	0.3548446490080676	0.014400612662131829	0.934814365221939	0.1464706193500414	-0.9883908190617063	-0.040372595429879386	0.9233805460034106	0.15124883850623347	-0.3528344599283901
117														9.141497056771813	-0.3716744304843992	-3.4048759126570443	0.35490945946207464	0.014388726098454097	0.934789944396923	0.14640957346294725	-0.9883998447223489	-0.04037305724409685	0.9233653190274891	0.15119097695993944	-0.3528991018735571
118														9.145769711591198	-0.39524936633754015	-3.4037884054814973	0.3549282694324214	0.014383836847229048	0.9347828778894371	0.1463826487792024	-0.9884039088049783	-0.040371192643074455	0.9233623577415806	0.15116487123863087	-0.35291803298969726
119														9.118929902258998	-0.3767440650757871	-3.4305995863020375	0.35487300806626765	0.014357133999856941	0.9348042687372097	0.14640511037319073	-0.9883994685068291	-0.04039844442589353	0.9233800364977646	0.1511964396364158	-0.35285825034801044
120														9.143085806281546	-0.3720154396404875	-3.4289345023146796	0.35483829639612713	0.014373613233682789	0.9348171921040511	0.14646993349908033	-0.9883898099249064	-0.040399779917494494	0.923383096006998	0.1512580010419796	-0.35282385850352477
121														9.116194473018524	-0.3735458826407812	-3.381575949512016	0.3548930997605065	0.014397010019473952	0.9347960279359766	0.14646444105166684	-0.9883913326582254	-0.040382434715116024	0.923362905498051	0.15124582516088492	-0.3528819138488129
122														9.148659982098476	-0.3964373421350565	-3.4526195112826548	0.3549817961692756	0.014384932002498796	0.9347625356847151	0.14646500908243368	-0.9883900897812887	-0.040410784904761035	0.9233287201765781	0.15125509628908285	-0.35296737858286953
123														9.148358222162555	-0.39627056991041293	-3.4534381415923217	0.3550650888897405	0.014387497994252929	0.9347308610253469	0.14647707022756012	-0.9883876347587894	-0.040427111614319784	0.9232947798776248	0.1512708939531714	-0.35304938194725294
124														9.14801078946402	-0.3960995381569734	-3.4543779931937353	0.35517760055593384	0.01439311569152582	0.9346880283196208	0.1465134923124048	-0.988381111818405	-0.04045459641421536	0.9232457249474557	0.1513129737375632	-0.3531596173756891
125														9.146196528691998	-0.3950452231367515	-3.431012196363135	0.35528002833309336	0.014332007015067677	0.9346500388073368	0.14653676213524738	-0.9883739218621908	-0.04054587433599123	0.9232026206692406	0.15136572979929147	-0.35324968086577757
126														9.145946627697862	-0.3953262822967563	-3.431645916807609	0.355327064482972	0.014298631651532917	0.9346326692229454	0.1465419813216222	-0.9883712826316433	-0.0405913214790247	0.9231836897152415	0.1513861182604732	-0.35329041628917524
127														9.154518514822007	-0.42321125065771253	-3.5035410861201273	0.3553696384384398	0.014272583312123735	0.9346168805675037	0.1466245864660004	-0.988356296335439	-0.04065786686200791	0.9231541857781977	0.15148638506378348	-0.3533245313030221
128														9.14850988828047	-0.3983077178151511	-3.4810832445144855	0.355424541986894	0.01423815634748929	0.9345965278435562	0.1467004079479	-0.9883419586228634	-0.04073282623931292	0.9231210025025574	0.15158313801128012	-0.3533697313145636
129														9.145515106628446	-0.3959958432449601	-3.4327186017682676	0.3554438254536171	0.014240583010521307	0.9345891571928377	0.14680869300189556	-0.9883241380830557	-0.04077506274011136	0.9230963625786712	0.15169905694468008	-0.35338435380775
130														9.151262010374575	-0.4212416178743515	-3.4558190921976966	0.35548211246878103	0.014235298137515215	0.9345746754549202	0.14688124082988507	-0.9883117069919782	-0.04081508195356173	0.9230700779502099	0.1517805195324443	-0.353418031633157
131														9.143757420319535	-0.39480628248362526	-3.4092417757071094	0.3555685585189668	0.014232877598175528	0.9345418264518826	0.14695704296998646	-0.9882985118915144	-0.040861704743402595	0.9230247167407073	0.15186664080137816	-0.35349949886448734
132														9.147849801581883	-0.4186356996425214	-3.4086203113486406	0.35565784448680093	0.014237177854572639	0.9345077851049399	0.14693566636599503	-0.9883015745537942	-0.040864503962154436	0.9229937202411425	0.15184630552380657	-0.35358915692394655
133														9.150338321415948	-0.42083013282172754	-3.4583142147274772	0.3557811675199537	0.014238447539407492	0.934460821784309	0.14690961198477281	-0.9883050289317371	-0.040874633878749185	0.9229503381789413	0.1518237017066368	-0.35371208186245495
134														9.151397552357947	-0.42191739984253757	-3.483638092858796	0.35586859328765896	0.014225815509259665	0.9344277235209578	0.1469240442767726	-0.9883014724272013	-0.04090873759459086	0.9229143348788228	0.15184803512499806	-0.3537955690845459
135														9.151298748909017	-0.4218252573512527	-3.48390878497861	0.35584464112889846	0.01418320844469427	0.934437492814827	0.14688413630446406	-0.9883063445487914	-0.04093433554727967	0.922929922519547	0.15182030800528634	-0.3537668048238032
136														9.118835486361332	-0.39823618977071545	-3.413088826505268	0.355775780287668	0.014181847289591376	0.9344637335756567	0.14687024768256446	-0.9883090654958706	-0.0409184726540599	0.9229586797394362	0.15180272153730837	-0.3536993203661878
137														9.100867413924714	-0.42756429128709755	-3.4367231562378047	0.35576844529894736	0.014157505390071448	0.9344668952781046	0.14684482671250443	-0.988312233071742	-0.04093319958812514	0.9229655520101194	0.15178437008426407	-0.3536892630555508
138														9.124753795195915	-0.4226436052146842	-3.4358240205734387	0.35583015850612054	0.014174448328600736	0.9344431407592915	0.14679927881937688	-0.9883200199228339	-0.04090855604687054	0.9229490072780944	0.1517320771435919	-0.3537548681362155
139														9.173737621112172	-0.4142846540635656	-3.4589013154725357	0.35597156991781764	0.01418339857846973	0.9343891441016472	0.14668918968497063	-0.9883374866352879	-0.04088146451644216	0.9229119801150114	0.15161742550316132	-0.3539005979706482
140														9.1761923906805	-0.41610374550285806	-3.5086797229056708	0.3560357720115011	0.014201471665860443	0.9343644081677649	0.14661584047671963	-0.988349862623048	-0.04084537151632735	0.9228988700662055	0.15153503639596178	-0.3539700670607547
141														9.18072452243879	-0.43929519770323305	-3.506992255216679	0.355907286826408	0.014207339891420048	0.93441326760544	0.14657352862197903	-0.9883579864513825	-0.04080062897887426	0.9229551472802824	0.1514814909848049	-0.3538462293113403
142														9.151550990188353	-0.41787383650585314	-3.4837224539265974	0.3556918536980683	0.014201051269326817	0.9344953907621363	0.14659599090286513	-0.9883555686814148	-0.04077849074750071	0.9230346259290811	0.1514978547679236	-0.35363184151979044
143														9.125475269807728	-0.41923371883397587	-3.4343253445757957	0.355519171018331	0.014207069926028035	0.9345610082827956	0.14661615726396	-0.9883537576001868	-0.04074987443834594	0.9230979479272979	0.1515091053425772	-0.35346169457340554
144														9.096212381131892	-0.39780731754539655	-3.4112485502506926	0.3553973539618029	0.014243449360225535	0.9346067862728539	0.14667202961516135	-0.9883470431225557	-0.04071164550187894	0.9231359794339719	0.15154948532154147	-0.3533450395481132
145														9.123309881240049	-0.39523346952477767	-3.4581147435138195	0.35537345091357964	0.014236246422407006	0.9346159851369833	0.14665324785650966	-0.9883499834494287	-0.040707924396251476	0.9231481653986593	0.15153098529117495	-0.35332113610393445
146														9.123419874189649	-0.39459197641879773	-3.457897813686543	0.3553358699862814	0.014256074886758355	0.9346299716090404	0.1465918187826022	-0.9883611956931762	-0.040656924551221794	0.923172388109123	0.15145597108327608	-0.35329000927866705
147														9.171610589840725	-0.4049500989553949	-3.380757482385747	0.35530990006565566	0.01427894951609221	0.9346394954826439	0.14655710300355168	-0.9883680699968949	-0.04061494515347679	0.9231878955416067	0.1514089489142913	-0.35326964165369423
148														9.151953957858643	-0.4124303377795283	-3.45504942079062	0.3553459340256174	0.014293346852534056	0.9346255760502251	0.14648149650481554	-0.9883808352381418	-0.04057703433795164	0.9231860258654112	0.15132423721832122	-0.3533108219077389
149														9.153253198575225	-0.41286674290358794	-3.4798452231857406	0.35539007310158854	0.01431850597001219	0.9346084080124865	0.14640275047006407	-0.9883945168376306	-0.04052793777268983	0.9231815263509381	0.15123246831316878	-0.3533618682487666
150														9.15470308483929	-0.41350317553525706	-3.504217987948147	0.35534561011577	0.014319061393456914	0.9346253055916375	0.1464326867517335	-0.9883899523021965	-0.04053110458315201	0.9231938938392735	0.15126224469070967	-0.3533168092647277
151														9.146309956971596	-0.3651310950809824	-3.505994444407481	0.3551389839067992	0.01429678743521648	0.9347041799300347	0.14641880397194804	-0.9883927286814324	-0.04051354999376269	0.9232756012984805	0.15124620907217837	-0.35311010788169817
152														9.097790996731877	-0.3927005975572695	-3.407628558035557	0.35495542267479174	0.014263785925867398	0.934774407183263	0.14643166665568702	-0.988390494497946	-0.04052156693100026	0.9233441476038052	0.15126392430836508	-0.3529232356882097
153														9.122217094479513	-0.3877796188133974	-3.4052474602775087	0.35490297176930213	0.014263042182276808	0.9347943336675855	0.14642231937970537	-0.9883923658739548	-0.04050969599434556	0.9233657915565132	0.15125176597247827	-0.35287181564049724
154														9.147692452472798	-0.3836040313260225	-3.428321333198265	0.3549315057341379	0.014338201132860273	0.934782350189375	0.1463700726275508	-0.9884039728150129	-0.04041519964697482	0.9233631073831698	0.15116878815341803	-0.35291439388600165
155														9.13109633225498	-0.4135560696348572	-3.476737515156417	0.3548929055069952	0.01435106490488125	0.9347968081657637	0.14633143898896442	-0.9884111256337724	-0.040380152139375534	0.9233840672137584	0.15112079161874456	-0.3528801081901643
156														9.179361324884008	-0.4038401646389705	-3.4735327889223333	0.3547588254411184	0.014370393377495988	0.9348474033583312	0.14638020044739727	-0.9884049268264334	-0.04035514269845241	0.9234278600348909	0.15115949331553305	-0.3527489119642659
157														9.1246748952469	-0.38575478198072316	-3.4272648969983357	0.3545811230954513	0.014374298093970103	0.9349147590548963	0.14637825785044972	-0.9884066682694104	-0.04031952069694762	0.9234964173038445	0.1511477346005226	-0.35257443122281884
158														9.126703557693878	-0.3865047239861228	-3.4501371966929413	0.3544539192021394	0.0143486230427749	0.9349633876141995	0.14639555483947564	-0.988403627759332	-0.040331255316870054	0.9235425061606454	0.15117005539778317	-0.3524441142444372
159														9.170518518197065	-0.3733725958904368	-3.374037122419499	0.3544454283620093	0.014348271863701911	0.9349666119214083	0.14638376037671172	-0.9884056030461468	-0.040325656410736335	0.9235476344029286	0.1511571730402121	-0.3524362013574176
160														9.128548929561285	-0.40714558838516823	-3.3992290168598034	0.3544385635315018	0.014340798844345776	0.9349693289997439	0.14632667627615914	-0.9884146703254768	-0.04031058540074661	0.9235593150911844	0.15109858031723783	-0.35243071735366305
161														9.134634513390658	-0.4316520086732774	-3.421691123598454	0.35435054106771946	0.014343729487626036	0.9350026478408501	0.1462410426896395	-0.9884294220663827	-0.040259595459517655	0.9236066540893163	0.1510017715720673	-0.3523481424728043
162														9.132039505930019	-0.4082845988474179	-3.446550676571262	0.35422708528745606	0.014319832356362347	0.9350497924977256	0.14621664512410565	-0.9884332504899784	-0.0402542173500809	0.9236578721244167	0.15097897776545544	-0.3522236271681578
163														9.102660546326467	-0.3868496808355922	-3.4236793803491845	0.354089648604654	0.014333613566740205	0.9351016352638634	0.1461252179178308	-0.9884497475833618	-0.04018105512370223	0.923725035624508	0.15086962591756797	-0.35209432619114145
164														9.12854274133336	-0.402753214748552	-3.371335843478022	0.3540122787686512	0.014349160459922863	0.9351306903717377	0.14603248207297598	-0.9884660979017569	-0.04011592549699949	0.9237693546879725	0.15076098597770662	-0.3520245793213836
165														9.151156175377869	-0.3757909359371688	-3.4199324792007815	0.35400297316009777	0.014363044341833262	0.9351339999973513	0.14594202803748918	-0.9884815153302915	-0.04006517568457581	0.9237872154593375	0.15065854375894427	-0.3520215671607614
166														9.155623971630542	-0.39870499626192113	-3.4185381992901487	0.35401086656961894	0.014405949333836862	0.9351303518624657	0.14583409120476892	-0.9885008919357873	-0.03998005108341539	0.923801236302002	0.15052725755139595	-0.3520409358880712
167														9.1885469191157	-0.42068448403278885	-3.4887401351010796	0.3539570482317615	0.014428637313292164	0.9351503742352564	0.14574352413811398	-0.9885169872811714	-0.03991229169515726	0.9238361506126839	0.15041934809670532	-0.35199543539554695
168														9.158975705526766	-0.39919945047678324	-3.4663568361665402	0.35384704631087566	0.014422387153197005	0.9351920992854208	0.1457121426196668	-0.9885225934784327	-0.03988801418796522	0.9238832390027729	0.15038310055148063	-0.35188731684769264
169														9.180351989571014	-0.3916622237920178	-3.4155413500034424	0.35377340460772405	0.014403276828378511	0.9352202541695002	0.14566869308747704	-0.9885293608705741	-0.03987899887159195	0.9239182918670058	0.1503404413769599	-0.35181350406164763
170														9.15655550771475	-0.3957423095219985	-3.4163867690241645	0.35377371688547055	0.014410449156013819	0.9352200255534312	0.14567415608744216	-0.9885287755685085	-0.03987355165064474	0.9239173109587514	0.1503436025514456	-0.35181472920075774
171														9.16406598001243	-0.42162060093213527	-3.4634017512167543	0.3537307406460164	0.01441582901216526	0.935236198505978	0.14564566925828656	-0.9885339378117495	-0.03984962761058446	0.9239382566753725	0.15030914033513887	-0.3517744450402631
172														9.16891878364554	-0.44493079418118564	-3.460978653803723	0.35357401688624884	0.014418110334639037	0.9352954253482163	0.145644516885934	-0.9885353083041487	-0.03981983095248781	0.9239984249358791	0.1502999079520676	-0.35162031850508096
173														9.144279237735107	-0.4476332330989417	-3.435828566610894	0.35331338764623754	0.01441498061622322	0.9353939589519344	0.14570827830692545	-0.9885266067243978	-0.039802580705014634	0.9240880627639181	0.1503574279235368	-0.3513600662076546
174														9.15723077179544	-0.3920668584022775	-3.386519280929828	0.35309140355728025	0.014437948431302916	0.9354774216297497	0.14576987707620892	-0.9885190959552747	-0.03976354950143613	0.9241631910388644	0.15040459626241898	-0.35114221300208553
175														9.129551984837278	-0.3719524216599934	-3.3873087014900225	0.3529126037591664	0.014455669443493052	0.9355446155736595	0.14583195883304137	-0.9885109805306551	-0.039737654098364904	0.924221690878787	0.15045622283994647	-0.3509660825747876
176														9.154039518882843	-0.3668743714938353	-3.3846809259639277	0.35280722158148425	0.014462830888116063	0.9355842511087152	0.14589092561995592	-0.9885024125022878	-0.039734346589693256	0.9242526181849345	0.1505118168113691	-0.3508607854668785
177														9.128921590550794	-0.36982262662665627	-3.3607182028121505	0.35273378536794253	0.014451253931064126	0.9356121193741679	0.1459061316122074	-0.9884999523863897	-0.03973971426755035	0.9242782467514657	0.1505290848704171	-0.3507858565993095
178														9.136731329165825	-0.3957227428043868	-3.407079442028057	0.35263471432231136	0.014461424326895303	0.935649306877988	0.1458955712113414	-0.9885027888920138	-0.03970791676262079	0.9243177162403294	0.1505094799643806	-0.3506902563304454
179														9.15507887967824	-0.3655095682720485	-3.382016371128685	0.3525305277791033	0.01443539851856157	0.9356889687569249	0.1458988616046805	-0.9885018685342168	-0.03971873722590486	0.9243569381825646	0.15051802275466053	-0.35058319363566537
180														9.137538734056173	-0.3949507862345157	-3.4050030823853494	0.3524044455232052	0.014410319477344835	0.9357368484077369	0.14590216920105645	-0.9885011368571491	-0.03972479646959871	0.9244044914418739	0.15052523085744	-0.35045469190382633
181														9.136435585029792	-0.39341960609811377	-3.3796001053744082	0.35231367223391175	0.014395912710950282	0.9357712509231488	0.1459288435969	-0.988496808921385	-0.03973451092829148	0.9244348808669691	0.15055502797800452	-0.35036171963702745
182														9.181580741989642	-0.3612462761155574	-3.402390011733117	0.352298607755114	0.014400625846419796	0.9357768499749498	0.1459470645670334	-0.9884941455673288	-0.039733846068339296	0.9244377455070051	0.15057206299426107	-0.35034684032766417
183														9.214574685518024	-0.3841642592589863	-3.472617314532839	0.3523165667111978	0.014366685705563376	0.9357706103328274	0.14596486721920723	-0.988489679300141	-0.039779535628062725	0.9244280904205118	0.15060462230271246	-0.3503583214118713
184														9.234178965338238	-0.3354947362161749	-3.5471656570909484	0.3522807912517722	0.014306960067310748	0.9357849940069873	0.14595746392064737	-0.9884885927621753	-0.03983366296120441	0.9244428932286071	0.1506174388066876	-0.3503137512094487
185														9.263018206890663	-0.35514689108053094	-3.5433203702556852	0.3521092415824218	0.014203805296158903	0.9358511280686479	0.14594257883886508	-0.9884878139088242	-0.03990746090163322	0.9245105979241739	0.15063231283115366	-0.35012863444314885
186														9.257779354551518	-0.3301856433190161	-3.5184620716459913	0.35188869158712205	0.01411973543927468	0.9359353512952847	0.14593433542324008	-0.9884871032491351	-0.03995518057412196	0.9245958676512026	0.15064487970474913	-0.3498979876207651
187														9.234655580791772	-0.33483581947751456	-3.517549729654874	0.35167482959791835	0.014013879076303581	0.936017321111372	0.14586072436670733	-0.9884960607168549	-0.04000233786266348	0.9246888467557581	0.15059597982846018	-0.34967325826407064
188														9.215942311552782	-0.36350204054312124	-3.5153192998477114	0.35149000181255624	0.013904915097268863	0.936088367603159	0.1458013939391437	-0.9885023489687653	-0.04006319518755098	0.9247684748904517	0.15056480139584724	-0.34947604843453456
189														9.197394943252059	-0.39242123931517225	-3.5126306632543955	0.35119999759578174	0.013752191256725999	0.9361994653514607	0.14577203320669746	-0.9885026082105903	-0.040163514483234554	0.9248832769725637	0.1505771257412557	-0.3491667985075237
190														9.137159994798894	-0.35052079581059664	-3.441842869361171	0.3508399448265752	0.013602454801180497	0.9363366415651306	0.145776751054187	-0.9884979267675869	-0.040261490636441535	0.9250191738370463	0.15062145265387838	-0.34878747975560154
191														9.115930797986987	-0.37715832751171385	-3.3892802395470216	0.350476975020391	0.013440487873637719	0.9364749026355564	0.14575672465558226	-0.9884967593842912	-0.0403625309468049	0.9251599143922272	0.1506436522807171	-0.3484043955367001
192														9.096146445450806	-0.40469257699270084	-3.3613249691791776	0.35015987165729223	0.013344908349893145	0.9365948845162894	0.14571281309786033	-0.9885020133873736	-0.040392395673150276	0.925286896254376	0.15061767144077504	-0.34807826227689387
193														9.085204188718476	-0.479680161593441	-3.3306418672552143	0.34984223463853964	0.01322971122024491	0.9367152105117869	0.14555427604058707	-0.9885250663190916	-0.0403998265483302	0.9254319875546839	0.15047646992092656	-0.34775345923617057
194														9.039676483372627	-0.5098835545312286	-3.280267528150965	0.34957751302518614	0.01314467186715372	0.9368152325771774	0.14540246410446683	-0.98854792593039	-0.040387146112022786	0.925555879360871	0.1503336813233465	-0.34748539313228055
195														9.068897735339407	-0.5287793423317207	-3.275293784598905	0.34940499670087644	0.013106295190835587	0.9368801275012889	0.1453316724709233	-0.9885589744870974	-0.040371511463195356	0.9256321371134782	0.1502643636641413	-0.34731220501926774
196														9.127811246561551	-0.5681795272774562	-3.2927102198424065	0.34932116245505995	0.013118946827351097	0.9369112117459091	0.14530828418678995	-0.9885639017947712	-0.04033502962673916	0.9256674500098496	0.15023084005103604	-0.34723258298987913
197														9.15201693603307	-0.5629381118018344	-3.2907723080067695	0.34927373219015106	0.013136800639697202	0.9369286442792297	0.14530864738031984	-0.9885649424830953	-0.04030820623515649	0.9256852904732062	0.15022243162173515	-0.347188657705272
198														9.203328452773114	-0.5558381749921325	-3.3362094121560752	0.34921087145950014	0.013176438671366808	0.9369515188730078	0.1454950882474106	-0.9885368129063092	-0.040325535643245786	0.9256797213671555	0.15040395936602263	-0.34712490901208626
199														9.209753069757918	-0.4553899710990466	-3.3398652112628695	0.3490749758236895	0.013198047418671671	0.9370018531454593	0.14574728660314815	-0.9884976835738564	-0.04037397697700675	0.9256913036760744	0.15065902267522702	-0.34698338459504807
200														9.18313018639631	-0.45753666180877883	-3.2910776797170493	0.3489197008566419	0.013222909149936332	0.9370593348490392	0.14601038047282872	-0.9884569893233487	-0.0404196617007219	0.9257083834276814	0.1509236062762666	-0.34682279902029955
201														9.201762339624361	-0.40767817481551905	-3.3402145161346213	0.34884041695379947	0.013260991696622815	0.9370883147274441	0.14632458709371426	-0.988407910458699	-0.04048354918386613	0.9256886510654397	0.15124135889990734	-0.34673703673930784
202														9.145053457726098	-0.3691054080556619	-3.345547252651909	0.34884499874013225	0.013291946208122338	0.937086170541428	0.14656651700611667	-0.9883696560546096	-0.04054231225755403	0.9256486498378818	0.15148843901926537	-0.34673596568111237
203														9.1344534339259	-0.3199203389820635	-3.324362594653694	0.34886664458490974	0.013368095310047304	0.9370770290236805	0.14681702879384417	-0.9883317664158737	-0.04055958024223345	0.9256007910282995	0.15172874981710005	-0.3467586511202367
204														9.149401481933364	-0.26716936281886494	-3.3261930351338846	0.348868475685732	0.01340294496540781	0.937075849512177	0.1469325793512012	-0.9883143132700304	-0.040566430836236615	0.9255817650526165	0.15183932050639073	-0.346761037243576
205														9.109225755703829	-0.30237148076243087	-3.3760010515894865	0.3488664065341728	0.013430383594901854	0.9370762269892599	0.14697992296416107	-0.9883077479678039	-0.040554870882015016	0.9255750280973349	0.1518796237264941	-0.34676136932956647
206														9.109331868718009	-0.30190313201596386	-3.3757566406054282	0.3488186552061848	0.013445257490196316	0.9370937897730255	0.14702945370390372	-0.9883006019949004	-0.04054947397993312	0.9255851584396114	0.15192480096264716	-0.34671453579101585
207														9.149580280148784	-0.26600685119272033	-3.3257943563586467	0.3488351282613397	0.013425485050542627	0.9370879412531421	0.147039614925087	-0.9882979611042805	-0.040576985099984024	0.925577336009032	0.15194372783461596	-0.3467271241742466
208														9.11214639054721	-0.3241885808622439	-3.350105528887098	0.34890145223884367	0.013396210011438467	0.9370636681586557	0.14699039052428192	-0.9883043013024517	-0.040600900489911586	0.9255601556458364	0.15190506767189185	-0.3467899201194478
209														9.136851115387772	-0.34097810894867026	-3.2999923076683446	0.34913038599260476	0.013330955346308862	0.936979326989774	0.14680673429616586	-0.9883299714465197	-0.04064050080667092	0.9255029747882769	0.15174370883195382	-0.3470130984386231
210														9.145030911234754	-0.3887743036075975	-3.299142569489179	0.3493575872178582	0.013281316139512028	0.936895342551621	0.14659837436505652	-0.9883603443214162	-0.04065398389302822	0.9254502649450372	0.15155011189192238	-0.3472382045494224
211														9.147569708241983	-0.39124901328746065	-3.3496005445182075	0.3495088263742016	0.013209643290202022	0.9368399466347889	0.14647320036541978	-0.9883766489041756	-0.04070873954894349	0.9254129790862239	0.15145000899669087	-0.34738122130256616
212														9.145572824145104	-0.3902592817200036	-3.3263498691744737	0.3495980169470026	0.01312201402274707	0.9368078988216907	0.1463879176650624	-0.9883861574768038	-0.040784571469203085	0.9253927836915582	0.1513955628683564	-0.34745874494012013
213														9.161656819255036	-0.4851871186015861	-3.2966115760043873	0.34967108502014604	0.013023061194222002	0.9367820088889227	0.1462846222441646	-0.9883982199508462	-0.04086279595036308	0.9253815113755604	0.15132534049236598	-0.34751935158945274
214														9.137309193521277	-0.49027995184191386	-3.2989749074885033	0.3498342856716769	0.012957169961165055	0.9367219888073437	0.14630932961264062	-0.9883901346776731	-0.04096976617154621	0.9253159204492742	0.15138379509858038	-0.34766851158059126
215														9.154488784235985	-0.4610760947063883	-3.2767124214833276	0.3500805713449697	0.012931005400041412	0.9366303340518737	0.14635822818631986	-0.9883792219003507	-0.04105828488648146	0.9252150358748724	0.15145726398889703	-0.34790492174738885
216														9.13437507286626	-0.46960161339964307	-3.3534725964370513	0.35034990196521315	0.012956989650455927	0.9365292641515071	0.14639325744611514	-0.9883726921485738	-0.04109057786519611	0.9251075398932174	0.15149764959951778	-0.3481730917209726
217														9.13201726191645	-0.4480231800610919	-3.4064191189443065	0.3506450430741678	0.012979062023559487	0.936418494967129	0.1463676476404236	-0.9883757335241232	-0.04110865000044824	0.9249997651306314	0.1514759166654526	-0.348468766431996
218														9.132386653145058	-0.46922821718899266	-3.3589359845032662	0.3508995748452263	0.013019034650105718	0.9363225903021986	0.14639341930965483	-0.988371437355845	-0.04112017268894454	0.9248991594526763	0.15150051668532483	-0.3487250181558709
219														9.124051035957672	-0.42222258455164474	-3.3888466307313796	0.35115254402635954	0.01305623389781703	0.936227229672488	0.14635955150139057	-0.988376798595601	-0.041111867899948966	0.924808505858444	0.15146233444099738	-0.34898193182105575
220														9.172422300585469	-0.41351487321121494	-3.4135901002246345	0.3514846590614362	0.013157099747937342	0.9361011831905188	0.14626943043885438	-0.9883935930760213	-0.041028756809904664	0.9246965924905095	0.15134396549745877	-0.3493296665671912
221														9.148634891536608	-0.41825594680627887	-3.443020621582043	0.3519020973530191	0.013234894656829588	0.9359432415707527	0.14613876322975472	-0.9884153864696541	-0.04096932598568573	0.9245584761172347	0.15119477951789975	-0.34975957869129143
222														9.17419428906072	-0.4151038191454736	-3.4943733434410316	0.35226235073066914	0.01333931799895259	0.9358062293301036	0.14605096372102533	-0.9884317310617332	-0.04088800589984438	0.9244351530820664	0.15107870672476906	-0.3501355053697187
223														9.195552870281116	-0.4082108609641371	-3.471721385044487	0.35247766953764503	0.013409970492898368	0.9357241394602845	0.14599760480249552	-0.9884419984180592	-0.04083032151780414	0.9243615049693733	0.15100525969214623	-0.35036155564796534
224														9.16940433920388	-0.41049214404703954	-3.4505856737606058	0.3526364889314674	0.013486934489353133	0.9356631922183145	0.14593560273712408	-0.9884543489898263	-0.04075291175916851	0.9243107196867506	0.15091753563180843	-0.3505332950105916
225														9.168723229754347	-0.4091580466274305	-3.452553484074941	0.3528521207327197	0.013573370680744198	0.9355806456435416	0.1457743656232064	-0.9884828880777756	-0.04063759718010309	0.9242538694652973	0.15072273745451842	-0.3507669328666007
226														9.172378098632016	-0.43149279130363233	-3.453505890058357	0.35309947237158307	0.013695252805652536	0.9354855438014525	0.14564751966084058	-0.9885070998776241	-0.04050325305669064	0.9241793995905531	0.15055282641690435	-0.35103601500462417
227														9.198548793358794	-0.4277403619272095	-3.503182411498974	0.35326855656300526	0.013758619901248006	0.9354207755455852	0.14543401917801768	-0.9885434021040664	-0.040384257109005575	0.9241484042130998	0.15030849122698048	-0.35122227215176716
228														9.19349941206555	-0.40220823087441904	-3.5062741598754745	0.35338953453048416	0.013848212148542344	0.935373756262499	0.14530496633854872	-0.9885673950115462	-0.040261299996882854	0.9241224505668505	0.1501423742331749	-0.35136158557523667
229														9.217018210793384	-0.3962009090801354	-3.506325542100799	0.35348628413296085	0.013888900467910456	0.9353365946939446	0.14514246666002628	-0.9885948543099916	-0.04017310547679377	0.9241109842988097	0.1499577022883417	-0.3514705908361128
230														9.237733254862947	-0.3678313751411213	-3.5315623728555985	0.3534910890196137	0.013914110000182403	0.935334404117923	0.1450840266023381	-0.9886053838646747	-0.0401250572414674	0.9241183231646148	0.14988593175038745	-0.35148190885839137
231														9.23039895964796	-0.34070463892244063	-3.4840266629348164	0.3534076144853754	0.013895279698714777	0.9353662273280187	0.14500440646162605	-0.9886180667992629	-0.0401003753698057	0.9241627454785589	0.14980400261736088	-0.35140002941000137
232														9.16953376777206	-0.4029521793457788	-3.508001705721033	0.35325527849603194	0.01388348749954496	0.9354239450588921	0.1449691849138115	-0.988624327843731	-0.04007335549909059	0.9242265110026417	0.1497637712211513	-0.35124944012695974
233														9.16543689901094	-0.3989652785289132	-3.4340231149338414	0.35320960125501144	0.013846201856417273	0.9354417460619485	0.14497686987165184	-0.9886218017385682	-0.04010785869882917	0.924242762905663	0.1497838970695397	-0.35119809138884506
234														9.141667245000724	-0.4034625761096097	-3.4348051358242975	0.35316560044208684	0.013830749283192834	0.9354585875594096	0.1450144987153909	-0.9886153458440401	-0.04013094970209915	0.9242536739589969	0.14982792909178844	-0.3511505913954322
235														9.113253457234975	-0.3837050782350769	-3.4374342213268214	0.35320067805566296	0.013869312890407617	0.9354447729187267	0.14503738527598248	-0.9886130455645032	-0.04010490009941397	0.9242366785046601	0.1498395418426849	-0.3511903669052557
236														9.090579003638116	-0.40939590381865654	-3.3892660636756147	0.353324106836313	0.013890878815323485	0.9353978399665348	0.1450946313249386	-0.9886038290956336	-0.040125017858325014	0.9241805145581685	0.14989834082867215	-0.3513130568706627
237														9.136437522519607	-0.3784094273389833	-3.438294518102711	0.3534715583551315	0.01392693585780938	0.9353415942272679	0.14512664120187843	-0.9885991572611947	-0.04012436013092983	0.9241191024145404	0.14992580405009598	-0.3514628541289621
238														9.156829922371827	-0.3710499705064566	-3.389969342437687	0.3536398383773122	0.013955172564483878	0.9352775619414616	0.1451595266446538	-0.9885938612386114	-0.04013588600783494	0.9240495530742759	0.1499580964137294	-0.35163189955293034
239														9.160769292761596	-0.3745485344194722	-3.464367940974881	0.3537553252508858	0.013942720951687346	0.9352340725129209	0.14516203785767862	-0.9885921144263352	-0.040169815273085586	0.9240049527040675	0.14997076990710997	-0.3517436787659771
240														9.13507561324748	-0.39825081960089254	-3.3676984665361203	0.3538388640978284	0.013927858233159868	0.9352026908745485	0.1452180304533353	-0.9885818025396415	-0.04022117997682714	0.9239641669919962	0.1500401094791361	-0.3518212382194631
241														9.180946581755176	-0.36769743169985347	-3.4166069876451974	0.35401406368452815	0.013907913430289937	0.9351366812704879	0.14523600724743402	-0.9885767997520511	-0.040279190543205806	0.923894228206016	0.1500749177444657	-0.35199001996022794
242														9.130828997741894	-0.37599999627487773	-3.3966921156233623	0.3542621585217389	0.013869296854875146	0.9350432961335372	0.14524536948622455	-0.9885718754007438	-0.04036619637105388	0.9237976540792515	0.15011092489025482	-0.35222805757955133
243														9.162802549313039	-0.3992522168156563	-3.469390223636302	0.35451476143647187	0.01385000383430586	0.9349478388217342	0.1451832813191648	-0.98857935708878	-0.040406305984772406	0.9237105059211149	0.15006342702912165	-0.3524767639422972
244														9.182950640495644	-0.39234516444406026	-3.4218215871528144	0.35474811654455796	0.013825354610250556	0.9348596864652953	0.1451834009282052	-0.988576631446793	-0.04047250736280402	0.9236208929550097	0.1500836544304976	-0.3527029100670679
245														9.108777437186967	-0.384941662364701	-3.477450959275836	0.354907450221115	0.013761847691153808	0.9348001461947214	0.14512544015310513	-0.9885821753117601	-0.040544904442313436	0.9235687892073413	0.15005297132677617	-0.35285237337743874
246														9.13694086277126	-0.42478729737393517	-3.401526244453733	0.3550107480450107	0.01373540423277686	0.9347613104119596	0.1451349474683586	-0.9885787543832556	-0.04059425335447728	0.9235275934133633	0.15007792993179547	-0.35294957026678514
247														9.058738380508565	-0.41347681447620444	-3.383272380896073	0.35513674577793236	0.013721251813083785	0.9347136561786945	0.14515323106152886	-0.9885742780664467	-0.040637867289054205	0.9234762754454816	0.15010870725606262	-0.3530707361071647
248														9.085334592160661	-0.4313605125781681	-3.3574563072312906	0.35526377840126877	0.01371711126052115	0.9346654420779241	0.14504468174362767	-0.9885908391287478	-0.04062256871012486	0.9234444693937718	0.14999997883128363	-0.35320011083898384
249														9.027790747352151	-0.4123095840504442	-3.290540406029104	0.3555926308984471	0.013751346068014286	0.9345398768014336	0.14488379049062167	-0.9886161280239505	-0.04058126001003165	0.9233431475371389	0.14983007672777138	-0.35353695705535476
250														9.094982793669057	-0.3748092531275288	-3.317200537056825	0.35614561889541896	0.013823857188127425	0.9343282073843442	0.1446060214680911	-0.98866041691279	-0.040492944879311966	0.9231735463588469	0.14953086973020413	-0.35410608904812657
251														9.152363161856137	-0.39389581835053433	-3.441091876806019	0.35676854025398863	0.013931786848629377	0.9340889218914027	0.14413187180729004	-0.9887374018876907	-0.04030327080655799	0.9230071571847996	0.14901092383977826	-0.35475841408210584
252														9.160502487340757	-0.4206359699667558	-3.5425195410665324	0.35721317020633336	0.014007423635150007	0.9339178460197919	0.143781421151413	-0.9887940795054669	-0.040164303387679345	0.922889838476306	0.148627253281634	-0.35522427509833265
253														9.181647045112603	-0.4129874014287711	-3.52091819924064	0.35750915720836435	0.014066201253952582	0.9338036969804991	0.14339696998906157	-0.9888563875701014	-0.040004421752664214	0.9228350402483213	0.14820656781699035	-0.3555422643593679
254														9.180562178724943	-0.4111025604295966	-3.5239663108500534	0.35778343897558307	0.014119235452650952	0.9336978408377294	0.14304663710720458	-0.9889129662409273	-0.03985981451149235	0.9227831112494014	0.14782351771894572	-0.35583639105925025
255														9.130241207322852	-0.4173641491342834	-3.504816484876968	0.35807118453345915	0.014186347439960889	0.9335865114455747	0.14275166147503981	-0.9889610663433526	-0.03972370077339944	0.9227171776622137	0.14749493822952586	-0.35614358515035377
256														9.15459163576947	-0.41232755462597426	-3.5307418676977607	0.3583038807269438	0.014245721597585997	0.9334963248305674	0.14252996836925144	-0.9889974184354415	-0.03961457364017021	0.9226611171891186	0.14724525711952952	-0.3563920553030488
257														9.153835044382749	-0.410910713941282	-3.5328679944488752	0.3584769022073922	0.014303407407854074	0.9334290134339716	0.1423545896410847	-0.989026663548678	-0.039514928797724065	0.9226209846908484	0.14704309343282929	-0.3565793702414571
258														9.11941176468786	-0.3855121000348795	-3.4394528467771175	0.3585784816968571	0.014360539139629813	0.9333891189528599	0.1421561507441692	-0.9890599964066993	-0.03939482597475007	0.9226121076972585	0.1468131411815678	-0.3566970707853138
259														9.098143465292011	-0.41121710178082754	-3.416386363987094	0.3587485821408259	0.01442755234697804	0.9333227204698398	0.14186254570757367	-0.9891083486448587	-0.039238919026997894	0.9225911732383494	0.1464804436582438	-0.3568879469642681
260														9.092679211257002	-0.3853562177095942	-3.420425222855897	0.3590741541509087	0.01451714350680533	0.933196123205199	0.14154267276473315	-0.9891606671337908	-0.03907488172790957	0.9225136441307661	0.14611785359714696	-0.3572368251632768
261														9.141906401660696	-0.376482787149105	-3.4707094938410386	0.3594754590835056	0.014632879558666309	0.9330398025553494	0.14129218192385268	-0.9892024881409982	-0.03892244574607258	0.9223957467616059	0.1458228935780682	-0.35766153003170403
262														9.192474080405589	-0.3688945041472919	-3.5452183533228947	0.3597721911047856	0.01473015397218054	0.9329238945764109	0.1411160247127221	-0.9892324172266904	-0.03880067366835659	0.9223070194230014	0.1456099147441401	-0.35797697502949016
263														9.143805382082459	-0.3768343364853851	-3.5495255258737872	0.3598791204929892	0.014752188598708277	0.9328823031683797	0.1409715127347407	-0.9892554345018918	-0.038739100476807745	0.9222874016435829	0.1454512228893986	-0.35809201405435864
264														9.146901873131217	-0.39869242552395395	-3.5242926400690218	0.35984873557411423	0.01475868797903325	0.9328939214266802	0.14084804039782028	-0.9892753659360463	-0.03867919166937062	0.9223181213777626	0.14531493894723785	-0.35806822184739495
265														9.086040862186605	-0.35574989706049487	-3.4559012427429994	0.35982541853830446	0.014770125329352499	0.9329027342501947	0.1407387861970002	-0.9892931978575981	-0.0386207552034178	0.9223438958618034	0.14519232786357028	-0.3580515684870384
266														9.109878523018835	-0.35003794582045505	-3.455216044995843	0.3599109160531134	0.014808348879497404	0.932869146938236	0.1405749977803059	-0.989319988847799	-0.038530892349616326	0.9223355151488399	0.1450057670220527	-0.3581487470667325
267														9.11720194172065	-0.3953265081122905	-3.4296263040929897	0.360083835010133	0.014881035075095028	0.9328012578033384	0.14032878976596944	-0.9893605363061408	-0.03838697647438606	0.9223055147440109	0.14472140130305716	-0.3583409737633499
268														9.135113914262956	-0.3444578164412422	-3.5066750727557245	0.360369614165268	0.014961607267802546	0.9326896008288827	0.1401317708197702	-0.9893928975452213	-0.03827245868750778	0.9222238491783283	0.14449167655970924	-0.35864373326697485
269														9.163190278248573	-0.34273183971044374	-3.605984093383667	0.36065064504358746	0.015022591914506174	0.9325799879698333	0.13991069253295602	-0.9894282034442717	-0.03816842076886894	0.922147553455841	0.1442433775298228	-0.358939741034893
270														9.174635993991146	-0.4123628307661287	-3.5802429025844065	0.3608549628651861	0.015073499218853675	0.9325001262181497	0.13984082295706596	-0.989439905068717	-0.03812110297852875	0.9220782179458836	0.1441577742576108	-0.3591521907365121
271														9.166796394926266	-0.38581222812928934	-3.5346522272191185	0.3610112815736169	0.015107241777725218	0.9324390735176452	0.139955550495869	-0.9894223405926479	-0.03815594084235417	0.9219996195563062	0.14427474894116543	-0.35930696953439517
272														9.149628089285478	-0.41667938360816653	-3.584054454018895	0.36105221338826393	0.015114832692977045	0.9324231019446588	0.1401318507141156	-0.9893947828590985	-0.03822339684846302	0.9219568122330205	0.14446281695945704	-0.3593412457445793
273														9.146902705360374	-0.4152366174858801	-3.53563812053695	0.3610941553181871	0.015078233928372653	0.9324074527032943	0.14041764194538825	-0.9893481766426111	-0.038380609745515555	0.9218969014079293	0.14478546969755665	-0.35936509421327545
274														9.124302682898232	-0.42217745484075947	-3.560754479922852	0.36102743379322133	0.015065386882860687	0.9324334969137211	0.14083678900413865	-0.9892821478140885	-0.038546476873342804	0.9218590949335395	0.14523727529258165	-0.3592797558364538
275														9.119395647105321	-0.41897273741902075	-3.462539185872138	0.3609640739844277	0.01505696679821715	0.9324581626236115	0.14125328782363017	-0.9892164920654669	-0.03870711181044464	0.9218201809309552	0.1456846579998352	-0.3591984610934346
276														9.122704924652766	-0.44304187555418917	-3.436613138858193	0.36101426605620385	0.015044345731272862	0.9324389349257238	0.14164809900519446	-0.9891531454135751	-0.038882784965137696	0.9217399393278534	0.14611544264706738	-0.359229399782279
277														9.095113271914293	-0.4258159732801586	-3.4642036605684363	0.3611695807428548	0.015091019335685768	0.9323780322816708	0.14197346521390913	-0.9891024247504949	-0.038986260757431855	0.9216290300989793	0.1464535915848481	-0.3593762323675747
278														9.119789787693492	-0.4227497408575567	-3.4889145526053773	0.36131928679524256	0.015171437631139387	0.9323187225782723	0.14229487322768114	-0.9890536605278648	-0.039051576786971506	0.9215207767830822	0.1467742623099671	-0.3595229810185567
279														9.121989194728014	-0.42527063713696894	-3.538540967261113	0.3613664020221282	0.015245540684807546	0.9322992529112151	0.14262995217534816	-0.9890030199636393	-0.03911167658461386	0.9214504979824145	0.14710744370027443	-0.35956693365204073
280														9.115390397902885	-0.3797904370152776	-3.5899915912373657	0.3613225486835014	0.015345982235353522	0.9323146017531267	0.14300935410654794	-0.9889468822154128	-0.03914573788348466	0.9214088888495091	0.14747394680297507	-0.35952342700228396
281														9.13242666507052	-0.3490091143417327	-3.5410170380758585	0.3612452664536503	0.015376936567985597	0.9323440391221558	0.143296579278412	-0.9889026861429262	-0.03921183120451771	0.9213945668560986	0.1477667999284344	-0.3594398767624052
282														9.129550539080238	-0.3261633242196859	-3.565675076071339	0.36110113199170246	0.0154519366751273	0.9323986326283941	0.14354965127492336	-0.988866194999737	-0.03920645362169712	0.9214116724315787	0.14800299334719635	-0.3592988225239694
283														9.146914958711875	-0.2949691708093521	-3.515852386971117	0.3609390719582595	0.015458399413585275	0.9324612722368049	0.14371340331226917	-0.988841245297595	-0.03923581663106859	0.9214496427056205	0.14816892213238186	-0.35913302058125024
284														9.152034357963378	-0.31866501848399575	-3.5130910339718144	0.36082425015941777	0.015449705697599611	0.9325058536495902	0.14373674584058127	-0.9888379027232479	-0.03923455152092258	0.9214909703258375	0.14819213451376337	-0.35901738520049487
285														9.152445211591688	-0.3183474178793685	-3.512049319534983	0.36073694814047386	0.015418660424734248	0.9325401434560364	0.14372882261351902	-0.988838461259762	-0.039249497876515715	0.9215263858384249	0.14819164093879844	-0.3589266746278932
286														9.160780387575677	-0.3645764947645623	-3.4837575358443273	0.36060049658604254	0.015409051765567103	0.9325930747038529	0.14368043264594615	-0.9888467599253976	-0.0392175810028785	0.9215873345139753	0.14813725564060407	-0.3587926119009379
287														9.147931853950885	-0.4175938604239771	-3.504831887991555	0.3604187204306927	0.01538746271413155	0.9326636971354274	0.14361911598729013	-0.9888569338211676	-0.03918563457223949	0.9216679963447425	0.148071571967819	-0.3586124845691342
288														9.144081960865705	-0.3928883466797671	-3.5043848318496247	0.36021453019963123	0.015369902699622656	0.932742868278318	0.14353709651487093	-0.9888707456419704	-0.039137582163115796	0.9217605948168647	0.14798112887965864	-0.35841176227680116
289														9.124213388810242	-0.4195048501451126	-3.47772250415369	0.36001122577936273	0.01535121723910432	0.9328216643293181	0.14347565573025114	-0.9888811915055892	-0.039098916855347554	0.9218495829177424	0.14791324895277216	-0.3582108558637217
290														9.101019675843533	-0.42321929993785923	-3.4769459624736574	0.359826953534268	0.01538182766320953	0.9328922568485534	0.14344141200542665	-0.9888892041639171	-0.03902182991536864	0.9219268543827852	0.14785648875106508	-0.35803538079646385
291														9.094289201280233	-0.39604278794275544	-3.4284199406302025	0.3597465110602799	0.015374643607368718	0.9329233988457479	0.14337762121395375	-0.9888996710609927	-0.038991002942836216	0.9219681694695234	0.14778721497276637	-0.3579575862802874
292														9.121100953255944	-0.3930821620189004	-3.4755189872610597	0.3597129243885118	0.015363665134732363	0.9329365304357485	0.14330375263542897	-0.9889112748095283	-0.038968256763643745	0.9219927583817936	0.14771069138089257	-0.3579258374905481
293														9.104636372750017	-0.4232764134988311	-3.523388530627972	0.3596356323950546	0.015385843426344956	0.9329659627949293	0.14326865401105826	-0.9889183393877428	-0.03891800098218081	0.9220283643628698	0.14766107762253852	-0.35785458145129534
294														9.132223852520548	-0.44051500006197675	-3.495700279957662	0.35952669099196255	0.015395683793401532	0.9330077874192173	0.1432145879898385	-0.9889281330883677	-0.0388681022595177	0.9220792483573581	0.14759444605705566	-0.3577509458294139
295														9.105453191969039	-0.4215019486656688	-3.5214899527039227	0.35940968536846185	0.015428658872295956	0.9330523214422363	0.1432074574993764	-0.9889314265088389	-0.0388105369681696	0.9221259687157216	0.14756893354834438	-0.3576410318622527
296														9.15708028677854	-0.434137614706002	-3.4924296397394223	0.35928082540444056	0.015478018236804406	0.9331011303434186	0.1433237759547245	-0.9889157159237355	-0.03878146522665362	0.9221581121167802	0.14766901418546602	-0.35751682269049784
297														9.125941084474048	-0.3915265423902906	-3.5189688272380217	0.3590559013013941	0.015525579413334004	0.9331869138198011	0.14352348828186307	-0.9888871899544394	-0.03877027025207986	0.9222146539998431	0.14785493541946326	-0.3572940665894926
298														9.108104646568421	-0.440009622461469	-3.4419042305527126	0.3588015806337716	0.015586911205730969	0.9332837049545932	0.1437393517540531	-0.988856801256306	-0.03874564964575491	0.9222800141453962	0.14805159508837334	-0.3570438358237777
299														9.098334701433496	-0.3906331657677527	-3.4182920924484224	0.35862402405623495	0.015611965676239514	0.9333515285772218	0.14397595150354095	-0.9888210160758674	-0.03878045326371344	0.9223121677384305	0.1482877766183476	-0.3568627194695798
300														9.097558972968631	-0.388970323596818	-3.3924624237082357	0.35848557542453074	0.015705162060504915	0.9334031498217673	0.1441515552303761	-0.9887975633717548	-0.038726060924712834	0.9223385611244969	0.1484342499382606	-0.35673358701986435
301														9.09616218249766	-0.3665989037401212	-3.441305560306461	0.35835170807372446	0.015776918627825806	0.9334533422508352	0.14432886834450342	-0.9887728830253248	-0.03869578214976597	0.9223628521807666	0.1485909641680749	-0.3566055163406237
302														9.119296123317216	-0.35995508255318276	-3.4144507488307387	0.35818824476284156	0.015851802401420714	0.9335148106347009	0.1444823218050037	-0.9887523454075233	-0.0386478736408297	0.9224023200315308	0.14871960130308481	-0.356449772322415
303														9.1119496467404	-0.3125109589354701	-3.4402963066172485	0.35805095116369995	0.01589025803867687	0.9335668246409758	0.14456297706467686	-0.9887418462718308	-0.03861485586104689	0.9224429857898904	0.14878528532901358	-0.3563171015213788
304														9.097684453838127	-0.3642820328778238	-3.4375254585431967	0.35795534524945816	0.015945364251992084	0.933602547214934	0.1446260547361242	-0.9887345861822636	-0.038564522276982066	0.9224702028243542	0.1488276299813295	-0.3562289452800482
305														9.144509999501357	-0.3528200244222863	-3.4101658768561554	0.3578802202457258	0.016008302647050235	0.9336302706121049	0.14469982153608846	-0.9887257814430745	-0.03851351395557926	0.9224877829024598	0.148879358395121	-0.35616179896159855
306														9.142750655001446	-0.33038348499906856	-3.4600255147597734	0.35789025024362014	0.016063181401595697	0.9336254832553676	0.1447097421724543	-0.9887263759662679	-0.03846094108303093	0.9224823354953422	0.14886949879632838	-0.3561800289561295
307														9.154712665039883	-0.3798248782190462	-3.5060486572625247	0.35790019873928636	0.016065423850960645	0.9336216310148717	0.14462554531534566	-0.9887399856342736	-0.03842775624696409	0.9224916798457421	0.14877883910162149	-0.3561937080451528
308														9.20409102617858	-0.3709754816458727	-3.5278474740212595	0.35781281448804986	0.01607604720983244	0.9336549418785551	0.14464318038592408	-0.9887381584756388	-0.038408388954082724	0.9225228128106024	0.14878983392796136	-0.3561084738723643
309														9.155336144391843	-0.3786135466439765	-3.504551352126725	0.35765704787086733	0.016071512930527374	0.9337147008484017	0.14464685753798018	-0.9887384121050393	-0.03838800636126667	0.9225826373353683	0.1487886383435552	-0.3559539554312991
310														9.156034268186142	-0.3781819795542459	-3.502773662042745	0.35745365442968746	0.016050130761886064	0.9337929525528603	0.14470469005352354	-0.9887295534350173	-0.038398214030153796	0.9226523926221488	0.14884980170197798	-0.35574752131519694
311														9.108961066313748	-0.38733237090659733	-3.5030067161605145	0.3572480958189516	0.01602217555427568	0.9338720939851678	0.14475309009379383	-0.9887219583911342	-0.03841135123240626	0.9227244122391215	0.1489032534423249	-0.35553829635112394
312														9.156133883048456	-0.37635006201594406	-3.4746052984087816	0.35708766230458855	0.016022564869591763	0.9339334445477602	0.14479257355209235	-0.9887166670205197	-0.038398736958354086	0.922780316258429	0.14893834217834795	-0.3553784717103151
313														9.110279889458116	-0.38651635984620447	-3.4996656145274208	0.35692904401991504	0.01599899281517235	0.9339944805853672	0.14479533086314217	-0.988716305403011	-0.03839765084550113	0.9228412483711718	0.14894327664960205	-0.35521814515254907
314														9.114193108140665	-0.4087948685654356	-3.472190206610257	0.35674042329635713	0.015995741704390234	0.9340665964660454	0.1448324345928808	-0.988711434271764	-0.03838314252598498	0.9229083574636404	0.1489759577502276	-0.35503003779422326
315														9.162722832911074	-0.3991255674184676	-3.468154754160901	0.356573083081115	0.015961026722993515	0.9341310839748224	0.1449175733749473	-0.9886973707091555	-0.038424029980211896	0.9229596596542805	0.1490729847381857	-0.35485590296922453
316														9.157379848798998	-0.37383543696238053	-3.4434057803127867	0.35636640422001836	0.01595420671269132	0.9342100669718044	0.14499516718748426	-0.9886859281533136	-0.038425733095081877	0.9230272950653019	0.14914958518142013	-0.3546477319885782
317														9.12995721497646	-0.37472135898531894	-3.3695882311136787	0.35618363898284483	0.015938367434605583	0.9342800349811923	0.1451110473625783	-0.988667760135658	-0.0384557408155979	0.9230796277972307	0.1492716601095479	-0.35446011374182224
318														9.134827422896102	-0.3782081550385947	-3.440946837918309	0.35603383388128196	0.015922993775473626	0.934337394842474	0.1452013989051713	-0.9886535097271566	-0.03848105326203882	0.9231232111087753	0.14936765370521415	-0.3543061404193021
319														9.108603077677918	-0.3803481507454127	-3.3920045094762354	0.355900398083669	0.01590574629162088	0.9343885240513138	0.14526032635350478	-0.9886441521342193	-0.03849906542351642	0.9231653937575647	0.1494314146547422	-0.3541693212048769
320														9.128318393302411	-0.3516345540336779	-3.3911295504977907	0.35580297992808574	0.01589586517305283	0.9344257921015954	0.14539709432925796	-0.9886222461331873	-0.038545290389100394	0.9231814146931808	0.1495773242205226	-0.35406595380539696
321														9.099950473802155	-0.33233215568250407	-3.393211395817152	0.35580919987923326	0.015915215729354046	0.9344230943151969	0.1454862320470836	-0.9886085560861229	-0.038560071551450116	0.9231649741871933	0.1496657233357021	-0.35407146410344775
322														9.129877337850491	-0.35266484667763776	-3.415127143801952	0.35586431258791673	0.015896610145976778	0.9344024233766711	0.14553976804345187	-0.9885987372969608	-0.038609746602540615	0.9231352917878218	0.14973254289138682	-0.3541205990267883
323														9.159695709915615	-0.37325297486440523	-3.4373039333549356	0.355915186278768	0.015870447915150646	0.9343834914311805	0.14561182541563278	-0.988585622614016	-0.038673803278014535	0.9231043150561468	0.1498218797233294	-0.35416356091626794
324														9.135595790046413	-0.37830376784090114	-3.438895786530679	0.3559682285263294	0.01583489830530191	0.9343638885763338	0.14570115449106805	-0.9885692888639649	-0.03875480221811113	0.9230697665181092	0.14993337557280478	-0.3542064214967701
325														9.14149144842873	-0.40387021864529654	-3.462186857471723	0.3560170050060969	0.015799594490475535	0.9343459022013346	0.1457992035844825	-0.9885515611409312	-0.03883816679451646	0.9230354729806541	0.1500539362354903	-0.3542447343851649
326														9.15775191037467	-0.37311516635198305	-3.4142424543037135	0.3560694847915466	0.015779843262701848	0.9343262377493676	0.14588050431310778	-0.9885371632346487	-0.03889929774876987	0.9230023837789568	0.15015083566400378	-0.354289889903403
327														9.16990443556057	-0.42365794367153614	-3.4599170627540228	0.35602044571615893	0.015744457875616527	0.9343455218912706	0.14598471827006199	-0.9885190612047718	-0.03896829052508676	0.9230048235321842	0.1502736759417293	-0.35423144701632864
328														9.141589439713076	-0.40468940086345173	-3.461832453573902	0.3559403301480913	0.015721741724214464	0.9343764274698	0.14610289819815586	-0.9884994086712348	-0.039023866988291724	0.9230170228723674	0.1504052721608444	-0.3541437979042626
329														9.13261552826764	-0.3568544841488508	-3.4639193024103783	0.3558556640037558	0.0156997001854441	0.9344090463017437	0.1461420129584844	-0.9884926896665533	-0.03904759306572086	0.9230434759234741	0.15045172611130492	-0.3540551082320951
330														9.112253955517804	-0.38434100599131127	-3.4383654819946514	0.3557736915931268	0.015632459155697276	0.9344413874561338	0.1461719770712713	-0.9884855514473015	-0.039116079801025626	0.9230703296549373	0.15050561717314714	-0.3539621811861483
331														9.155722454848295	-0.3510355932074399	-3.4367913469949314	0.35571003004274504	0.015580748194208752	0.9344664867252858	0.1461119138337083	-0.988493612320898	-0.0391367734571171	0.9231043728435268	0.15045802965110025	-0.353893625473345
332														9.133320984191766	-0.3568600436870165	-3.462058214031886	0.3557230992561077	0.015529130029382526	0.9344623709792492	0.14603785303542466	-0.98850342931154	-0.03916523611737012	0.9231110562312821	0.15039885757497023	-0.3539013443089908
333														9.19333822951527	-0.39760682273402626	-3.5054364980976622	0.3557182281719006	0.015480429639880777	0.9344650332914596	0.14597886883786296	-0.9885110292886262	-0.03919330079948633	0.9231222627577899	0.15035392004502482	-0.3538912074748858
334														9.187465348351099	-0.37226597061131506	-3.4820499671244636	0.35562496849004016	0.015444686703539809	0.9345011200844483	0.14594990798870572	-0.9885148836525262	-0.03920394311191158	0.9231627733745263	0.15033225352552648	-0.35379472495416114
335														9.192642538475065	-0.39603720263776476	-3.479199714502328	0.3554491047868927	0.015361133702887358	0.934569403242776	0.1458923043351386	-0.9885219575983706	-0.039239965362729584	0.9232396056506564	0.15029429436025488	-0.35361031608364196
336														9.140789214231376	-0.38137126707904917	-3.4813450837555817	0.35529044433101103	0.015346153167812057	0.934629977985953	0.1459258974119121	-0.9885169440693474	-0.03924135258024572	0.9232953658670671	0.1503287958800612	-0.3534500254599651
337														9.113053043435599	-0.38212120972403496	-3.408193052519478	0.35518672745239716	0.015289970546964515	0.9346703191191699	0.14585732748039515	-0.9885264557410328	-0.039256672303574394	0.9233461044819189	0.15027196378814783	-0.3533416310560084
338														9.164061466771383	-0.3749595816215317	-3.453793789136952	0.3551516827606011	0.015246323703359377	0.9346843487754815	0.14582725001457897	-0.9885297562039217	-0.03928529308278913	0.9233643351275265	0.150254686159692	-0.35330133583324236
339														9.141810704848378	-0.3810485666387073	-3.4786971629991696	0.3550793947937429	0.0151438021635983	0.9347134794411273	0.14577795817161515	-0.9885339582646215	-0.03936242204176309	0.9233999189431542	0.15023740750461867	-0.35321567219202915
340														9.164758511962875	-0.3752503602767423	-3.451912170289261	0.3549148811742935	0.015082575243362747	0.9347769482850258	0.14576500661599745	-0.988534613667932	-0.03939391357342657	0.9234652077730247	0.15023925420615175	-0.35304415662676525
341														9.117649630227625	-0.38486101845225684	-3.452318374746379	0.3547026960492638	0.014969299944355932	0.934859303571698	0.1457551520843267	-0.9885328948709373	-0.039473426491246834	0.9235482840957797	0.15026189076828822	-0.3528171355340903
342														9.12009324629796	-0.4065939366746155	-3.4002488496313323	0.35455281264757227	0.014894097049583638	0.9349173594049758	0.1457514430590567	-0.9885313513375603	-0.039525741851848935	0.9236064204464463	0.15027951721979294	-0.35265740714507604
343														9.1191027284993	-0.40553340140450767	-3.3746254075368096	0.354459914393411	0.014833974571229688	0.9349535401754658	0.145781407291389	-0.9885245710730468	-0.03958476566801129	0.9236373478678515	0.15033005548881206	-0.3525548525270538
344														9.125549734032514	-0.43081395296425035	-3.3965606572760314	0.35438312992443005	0.014769069942914131	0.9349836746157585	0.14575585506039593	-0.9885265096351379	-0.03963042346714364	0.9236708439376973	0.15032369846964777	-0.3524697969157485
345														9.14661081754604	-0.4037413618528027	-3.420279411868571	0.3542965023826474	0.01467427337964769	0.9350179966718302	0.1458007701960236	-0.9885157733369001	-0.03973287397605773	0.9236969870090892	0.1504035623412236	-0.3523672014041612
346														9.146969379956817	-0.40409665944815487	-3.419278406824996	0.3541997908408186	0.01462094766038717	0.935055472182176	0.14582157505073146	-0.9885107876439628	-0.03978053495411262	0.9237307921781344	0.15044151887369292	-0.3522623638439564
347														9.147244703689191	-0.4042164810974441	-3.4185276158897056	0.3541517607610346	0.014565972603752142	0.9350745225873529	0.14583054899107767	-0.98850731866126	-0.039833803911848605	0.9237477909747986	0.15046964276967448	-0.3522057712104484
348														9.172757943242667	-0.4007747112357371	-3.441333959048284	0.3541390653801649	0.014539374911515343	0.9350797447003361	0.14585041299522156	-0.9885030372940784	-0.03986730853099099	0.9237495220030085	0.1505003383303982	-0.35218811558831603
349														9.148902877516193	-0.40565558985657085	-3.4423443398329048	0.3541249908294731	0.014480799976003822	0.9350859839084749	0.1458931856491437	-0.9884936652310237	-0.039943111787657914	0.9237481633276301	0.1505675271437763	-0.35216296017417587
350														9.131307447041712	-0.43584830646952855	-3.465813766101303	0.35403842262252766	0.014427486530860997	0.9351195875070499	0.1459568735747579	-0.9884816057732686	-0.04000882532871039	0.9237712846604593	0.150651792821403	-0.3520662593269374
351														9.149560626259879	-0.4061616306656967	-3.4405360264489353	0.3538893973247272	0.01437298037406233	0.9351768345592769	0.14600473563640748	-0.9884725060080227	-0.04005898198860516	0.9238208222555307	0.15071669549650912	-0.35190846262306413
352														9.144072043152143	-0.3812170191086024	-3.4159696722207764	0.3537014925695282	0.014305673296474586	0.9352489518120954	0.1460879513787766	-0.9884573545621117	-0.0401293991236414	0.9238796266917249	0.1508224317653274	-0.35170872815492216
353														9.144702570214022	-0.3814699799405439	-3.4142530874473755	0.3535578643279741	0.014243975980354151	0.935304199562962	0.14613639432090392	-0.9884478025293673	-0.04018825611730507	0.9239269401996714	0.15089085732123045	-0.3515550573525247
354														9.118222774949592	-0.3839734821461924	-3.3656480843209033	0.3534840696721741	0.014191842984765335	0.9353328841009994	0.14621519219677892	-0.9884332059310725	-0.040260588466649296	0.9239427092947141	0.15099135407538294	-0.3514704552812737
355														9.118335057354809	-0.3840642657237902	-3.3653335035426877	0.35350704554025475	0.014149679529587636	0.9353248394662741	0.14615068125727232	-0.9884417694483709	-0.040284572454102406	0.9239441255408449	0.1509392426739468	-0.35148911490909646
356														9.15731498832768	-0.4318754053626225	-3.45899572891961	0.3535977589233286	0.014154056260789666	0.9352904829921915	0.14611520374329823	-0.9884471149167514	-0.040282108284024336	0.923915024295771	0.15090382269550964	-0.3515808074631324
357														9.177913206788437	-0.40424822335280125	-3.484073946911137	0.3536030976561986	0.01410355741623849	0.9352892274564844	0.1460627783157245	-0.9884534630971162	-0.04031644927332949	0.9239212705196433	0.15086696444061004	-0.35158021122048866
358														9.178125340764035	-0.4039174356576663	-3.4835534729209403	0.35349319882632807	0.014096980764178549	0.935330868472149	0.1460304815027908	-0.9884592258395657	-0.04029214966602748	0.9239684284950397	0.15082981796044465	-0.3514722025401526
359														9.183293232235279	-0.4273311718761175	-3.480741851549645	0.35333726980014846	0.014086302516139806	0.9353899453445076	0.1460684487042388	-0.988453664021175	-0.040290971398702746	0.9240220679525539	0.15086726008162846	-0.3513150833257064
360														9.204835107498859	-0.41947962625095186	-3.4292962158012004	0.3531754686697534	0.014118041906297396	0.9354505701653252	0.1460918343025286	-0.9884523491739524	-0.04023840656161138	0.9240802261059494	0.15087290779071977	-0.35115965231608043
361														9.17520813833953	-0.3782852039329035	-3.480683206224711	0.35302533340052783	0.014062376366047347	0.9355080777568872	0.14604690192986858	-0.9884583436822288	-0.04025425743536239	0.9241446945225265	0.15083882913866942	-0.35100460283298524
362														9.14890773161266	-0.38026323905165516	-3.4316210523844966	0.3528510897568354	0.014044863013879638	0.9355740752502366	0.14609324720030487	-0.9884512485886741	-0.040260306580578865	0.9242039123374692	0.15088694770063096	-0.35082795988019916
363														9.121045891010832	-0.3808974890286774	-3.3583401104995536	0.3527218893849994	0.013994912951235852	0.93562354136702	0.14599770377172705	-0.9884656000333475	-0.040254540664345015	0.9242683264301874	0.15079754627380942	-0.35069667919120506
364														9.129044359489155	-0.4068334351441717	-3.404682396684458	0.3526856820626347	0.013982875233718647	0.9356373703888772	0.14595156055275454	-0.9884728634522357	-0.040243511163342224	0.9242894306656495	0.15075104450297078	-0.3506610485084329
365														9.129039459666602	-0.4062943950986223	-3.4047599057428237	0.35273264312988034	0.013994771882703427	0.9356194893387801	0.14590448978266343	-0.9884807216315874	-0.04022117382619552	0.9242789418416224	0.15069840517619112	-0.35071131767521196
366														9.158996303221873	-0.42618525932278034	-3.4267534361546526	0.35276245564022973	0.014005821641961305	0.9356080840024894	0.14589791177926037	-0.9884820601437277	-0.04021213886955029	0.9242686023170574	0.15068859855392647	-0.35074277902292955
367														9.163526015474629	-0.4294953782830218	-3.4998121470057524	0.35273317307932955	0.014010444698423552	0.9356190549837792	0.1459347769243306	-0.9884764530375858	-0.04021619915256925	0.9242739580305362	0.15072494561148683	-0.35071304691582356
368														9.148455062194724	-0.3763815103371809	-3.404751895343601	0.3526062968193087	0.014028170892906228	0.9356666125628152	0.14605311120012138	-0.9884588004560276	-0.04022049862690038	0.9243036774524589	0.15083902088793513	-0.35058565519061174
369														9.129612715470506	-0.40470842144526087	-3.403411435863161	0.35251469566912513	0.0140336121365746	0.9357010457767501	0.14612702175902142	-0.9884476127582968	-0.040226985274338045	0.924326935044707	0.15091181054782796	-0.35049299934240324
370														9.122032319431066	-0.3779081550471542	-3.3559977631459907	0.3525541008581937	0.014060460133292998	0.9356857963167499	0.1461552674279381	-0.988443878305592	-0.04021613162982524	0.9243074400712882	0.15093376991594565	-0.3505349530757552
371														9.124920854375626	-0.37980999083229655	-3.4051154304406843	0.3525999264699011	0.014074117210325796	0.9356683232204507	0.14609241730344807	-0.9884544043402761	-0.04018577045105237	0.9242998958454204	0.15086354683971706	-0.3505850720939001
372														9.135670055612255	-0.42816978746813855	-3.426763552252078	0.35261187966936247	0.014113735233905078	0.9356632218879757	0.14609631414674118	-0.9884553853070672	-0.040147456335303075	0.9242947199398992	0.15085341804283248	-0.35060307607894514
373														9.154919828067694	-0.3988216040425453	-3.427112365058968	0.35260255706788307	0.014138514911876662	0.9356663610204641	0.14610196475197806	-0.988455591258536	-0.04012181458197305	0.9242973832294465	0.15084974811323057	-0.3505976338331063
374														9.155078261951331	-0.41840701576629463	-3.3525838651611792	0.3525964369869938	0.014174470757641652	0.9356681233230177	0.1461463632927446	-0.9884499285749908	-0.04009961591338345	0.9242926988353757	0.15088347516821224	-0.3505954703084188
375														9.177362979169711	-0.39167291283815703	-3.4015558178515652	0.35259998875337734	0.014204746743897767	0.9356663257278522	0.14619460496597234	-0.9884433248804068	-0.04008654360517547	0.9242837147813224	0.15092388369409285	-0.3506017625750482
376														9.151869278997756	-0.39467056570807935	-3.3787004089395167	0.35263485989036714	0.014245557688666519	0.935652563549227	0.1462564662062929	-0.9884347260541478	-0.04007291383353113	0.9242606243278726	0.15097634389665485	-0.3506400460595601
377														9.124695522549809	-0.37626030190192433	-3.406113194353474	0.35265569738955366	0.014263962842969727	0.9356444295044468	0.14627302073981624	-0.9884326641910137	-0.0400633468884455	0.9242500540991798	0.15098810457870182	-0.35066284344565807
378														9.150099181902634	-0.3924149912095702	-3.355184806164154	0.3527259452683703	0.014295665706829955	0.9356174653545821	0.14627582569035297	-0.9884330718616189	-0.040043042701681325	0.924222803415464	0.15098243736342903	-0.35073709991196844
379														9.176763647208531	-0.38929694301013373	-3.403445007975348	0.35280825115124603	0.014375982994152423	0.9355852013753484	0.14626166735657553	-0.988438243918238	-0.03996701917712214	0.924193628295323	0.15094094564690472	-0.35083182345041664
380														9.149428692292386	-0.3704985558129311	-3.4313001993913836	0.3528657135365418	0.014406470461596696	0.9355630613802505	0.14624939047174162	-0.9884411500851107	-0.039940062657283934	0.9241736330349354	0.15091900618299492	-0.3508939292375201
381														9.10772206201111	-0.404478120670023	-3.4568541101041803	0.35284860499675785	0.014437052823875904	0.935569042592583	0.14624368478912464	-0.9884435059535259	-0.03990263396820952	0.9241810680873855	0.15090065289475185	-0.350882239996265
382														9.123987539118556	-0.37260069844143495	-3.4084112730725544	0.35284511845037564	0.014474225559926654	0.9355697831696899	0.14626027694920707	-0.988442405788799	-0.03986905849392819	0.9241797735140505	0.1509042982585035	-0.3508840819909432
383														9.123903051556258	-0.37190093102693095	-3.408713853945921	0.3529014336880992	0.014517559951731998	0.9355478707976049	0.1462705692588625	-0.9884421794598385	-0.03983689788842554	0.9241566418468098	0.15090161800899418	-0.35094615400755585
384														9.155205041197288	-0.39282475969275904	-3.4555352231159304	0.3530179634487628	0.01455655170995876	0.9355032999860576	0.14623527675996975	-0.9884487913050051	-0.03980239689528418	0.9241177204844756	0.1508545450756787	-0.3510688606478606
385														9.181942021283966	-0.4101039912716126	-3.42949194257538	0.3531056030941707	0.014597242380180717	0.9354695898736616	0.14626674068548057	-0.9884447768871918	-0.03978647526077878	0.9240792572245893	0.15087691526315228	-0.35116048013397994
386														9.177084443582766	-0.385612986663542	-3.431517425546138	0.35311942865936624	0.014621646003658381	0.9354639899918256	0.14626479304075174	-0.9884460364983811	-0.03976233453139893	0.9240742824145842	0.15086629974512042	-0.3511781316955636
387														9.127809384262735	-0.3933092639510273	-3.409579191002903	0.3530842174095604	0.01464814005948896	0.9354768663142212	0.14629821826177586	-0.9884419491458817	-0.039740967553890984	0.9240824458616814	0.15089050719474445	-0.3511462488605065
388														9.151645533388823	-0.3878246990432199	-3.4086337192777387	0.35316479090362474	0.014712061533342063	0.9354454477474557	0.1463139365491208	-0.9884415378752541	-0.03969330137822081	0.9240491666775631	0.1508869823683991	-0.3512353286818676
389														9.132140364538175	-0.4156777171498617	-3.4092260798238727	0.35324333131264496	0.014764900104890066	0.9354149595810608	0.1463064075477043	-0.988444464181073	-0.03964815683328564	0.9240203374350751	0.15086264930288207	-0.35132161483701185
390														9.164942180150495	-0.43764360459627	-3.480394149954614	0.35332655710007016	0.014830028888406385	0.9353824962500525	0.14629433300789746	-0.9884486184264905	-0.03958910027439937	0.923990428617951	0.15082903889480656	-0.35141469640367023
391														9.157012902265727	-0.4103603210136855	-3.4339780796252337	0.35337859107931485	0.014883466265364437	0.9353619907814973	0.14629632352671187	-0.9884501946154182	-0.03954236319833707	0.9239702143951208	0.15081344501293414	-0.35147453352122776
392														9.15223573394326	-0.3856373807747997	-3.4357793570234065	0.353371886675165	0.014935224903721983	0.9353636986566827	0.14633264500979842	-0.9884464988865127	-0.03950032713069202	0.9239670268532696	0.1508325491930393	-0.3514747151529663
393														9.12835312094901	-0.38958721197195056	-3.437022681151521	0.35336568112018013	0.014979414745597414	0.9353653364008903	0.1463244204130636	-0.9884497490676314	-0.03944943040041968	0.9239707026725752	0.15080686556657796	-0.35147607301313094
394														9.150642280198864	-0.38286179701988043	-3.4118866421375094	0.35344412248463214	0.015026300925416833	0.9353349467231333	0.1463759796029394	-0.9884427695764542	-0.03943303015630697	0.9239325326431296	0.15084794182396777	-0.35155877683699593
395														9.150263447317215	-0.3822159154730865	-3.4129749095499746	0.3535782651250078	0.01511346130456899	0.9352828415610891	0.1464587903395303	-0.9884319958805631	-0.0393955867052148	0.9238680821218316	0.15090981680116733	-0.3517015695580087
396														9.151355739530272	-0.38293410167604164	-3.438424717353914	0.3536663484601278	0.015116565845783955	0.9352494872513482	0.14645112648757758	-0.9884327723960705	-0.03940459369081012	0.9238355814306998	0.15090441971807306	-0.3517892474083776
397														9.175040109290673	-0.37774462395379954	-3.437853414755575	0.353698191508513	0.015132133088869376	0.9352371933749152	0.1464401016962686	-0.9884350098295818	-0.03938943968098378	0.9238251381829757	0.15088820328765296	-0.3518236265088378
398														9.154300089817786	-0.40466104633646965	-3.41344670159169	0.3536965770691158	0.01515408898288971	0.9352374484357917	0.146450822933065	-0.9884341943054469	-0.03937003924268384	0.9238240567509701	0.15089134208045563	-0.35182511998625093
399														9.144838035482218	-0.3562043756537521	-3.4166188226039877	0.35371971940473734	0.015193065691555985	0.9352280635540864	0.1464566990995408	-0.9884347155567326	-0.039335078125612995	0.9238142645538121	0.15088400789074227	-0.35185397648701666
400														9.150869833425785	-0.38063475062834545	-3.4399728818040827	0.3537880405274887	0.015239947334528992	0.9352014576469396	0.146465388963419	-0.9884347981173949	-0.03930063239210122	0.9237867244204769	0.1508787389789081	-0.3519285352292709
401														9.169833740122296	-0.35124076116943653	-3.4409428879960244	0.35384983911827655	0.015266690152765494	0.9351776406265012	0.14643462336094665	-0.9884405218062875	-0.03927131182494743	0.9237679321329074	0.15083853295194172	-0.3519950916416286
402														9.150473417435114	-0.37936491466164707	-3.4411674459748602	0.3538891765317724	0.015293511468262591	0.9351623170555118	0.14646284218612848	-0.9884367701306589	-0.03926050575873113	0.9237483892231827	0.150860398914494	-0.3520370057919115
403														9.172650333549377	-0.37290593401645283	-3.416344247353475	0.3539949785104717	0.015291606771953667	0.9351223032051491	0.14641354143724017	-0.9884440151727025	-0.03926198865406736	0.92371566516606	0.1508131149190895	-0.35214311621161265
404														9.156071286652908	-0.40372802078801173	-3.465681446154988	0.35408437924736513	0.015295295384441063	0.9350883949189571	0.1463919790614504	-0.9884470774720597	-0.03926529642593464	0.9236848168284898	0.15079266884052206	-0.3522327784072241
405														9.151136249170271	-0.37927568715871723	-3.467804709465879	0.3541197071590643	0.01532713812189522	0.93507449534172	0.14636741459865554	-0.9884521816375156	-0.03922836422466348	0.9236751663573539	0.15075597319187697	-0.3522737906823133
406														9.154280798102713	-0.4013814890136907	-3.4423135003962693	0.3541527272164021	0.015323529870371513	0.9350620488702864	0.14634104137748433	-0.9884561083038784	-0.03922781621892897	0.9236666852353935	0.15073059208091927	-0.35230688780833874
407														9.154177817127112	-0.40094221422983506	-3.4426385387901424	0.35418956929576434	0.015334394007979923	0.9350479160783631	0.1463256409517336	-0.9884588248526283	-0.039216812351670974	0.9236549982553799	0.15071167151674036	-0.35234562047297374
408														9.13495650254543	-0.4292150095676067	-3.4425009496023855	0.3541885049162642	0.015340535873309358	0.9350482185129823	0.1463443844733501	-0.9884560311928196	-0.03921728613324476	0.9236524368604775	0.1507293679335922	-0.35234476514351976
409														9.122500408186262	-0.3785636342032117	-3.3970262531269784	0.35422811636135165	0.015353575156538068	0.9350329990481628	0.1463625418585318	-0.9884533436853697	-0.03921726275407496	0.9236343691741872	0.15074566357651942	-0.35238515433127504
410														9.125292455317368	-0.3806864407829325	-3.4461354016218855	0.3542738942026554	0.015351188076126232	0.9350156944731663	0.1463512704964776	-0.9884547697225002	-0.03922338380234714	0.9236185974256651	0.15073655574375705	-0.3524303863913506
411														9.120722702589017	-0.37656101171750606	-3.373604554879452	0.35432149591356416	0.015386909775666091	0.9349970698034997	0.1463868258989424	-0.9884501387665958	-0.039207402050265024	0.9235947026357436	0.15076327861868058	-0.35248157268620345
412														9.150243031041692	-0.37616396495457044	-3.4704995880827623	0.3544139694265502	0.015435627661083404	0.9349612182727284	0.14643961504267233	-0.9884429298642805	-0.039192008719515975	0.9235508526450885	0.15080555626376996	-0.35257836969744
413														9.15463360935432	-0.39959473234803383	-3.4699557859738954	0.35451350946178684	0.015473612476722381	0.934922851857846	0.1464905183249713	-0.9884355272763456	-0.03918847354533768	0.92350457478562	0.15085017644952425	-0.3526804851635239
414														9.148115390859322	-0.3739899020346394	-3.4480184592085172	0.3545964489849328	0.015506508001682504	0.934890852761364	0.14650846853907307	-0.9884334058627012	-0.03917487486893224	0.92346988419418	0.1508606986072079	-0.352766810516712
415														9.171773815079412	-0.36874094669621077	-3.4475329309849108	0.3546504653625502	0.015515993364439512	0.9348702056264504	0.14651267302787804	-0.988432746683807	-0.03917578238314456	0.9234484739607041	0.1508640422135774	-0.3528214232535025
416														9.176368754341109	-0.392186108718718	-3.446462828256199	0.3546770347234576	0.015541587043121655	0.9348597007636796	0.14652579408851374	-0.9884314934499516	-0.03915832507946851	0.9234361876743331	0.15086961863967155	-0.35285119450699653
417														9.15095894023772	-0.3950784319870856	-3.423513198621335	0.354684705841292	0.01556359501555618	0.9348564242451711	0.1464659336384675	-0.9884421398556382	-0.03911350714290822	0.9234427376538774	0.150797581770392	-0.35286484609055874
418														9.15087974410987	-0.3945104137208784	-3.4237903738402085	0.3547304804929467	0.015561200652710577	0.9348390959108893	0.14645465515878808	-0.9884435686309818	-0.03911963208376952	0.9234269436136046	0.15078846330636542	-0.3529100723160807
419														9.122003076965239	-0.3750362049070523	-3.4271320885853247	0.3548186831857703	0.015585882360067499	0.934805210904055	0.146462208960462	-0.9884427652005867	-0.03911165132080834	0.9233918579935274	0.1507911807556286	-0.3530007031120271
420														9.153201223516287	-0.39601845392307106	-3.4741419706171723	0.35492924467005904	0.01563822591271309	0.9347623640092942	0.1464745629698303	-0.9884421817936256	-0.03908011839611452	0.9233474068197401	0.1507895856528562	-0.35311763929022477
421														9.175329729570203	-0.3893756813713431	-3.4495464129348448	0.3549961492802358	0.01565909614989615	0.934736608197183	0.14647008248650567	-0.9884433291688801	-0.03906788908987028	0.9233223970708183	0.15077989829320912	-0.3531871647414282
422														9.173426408387856	-0.3674277175855866	-3.499931936106744	0.3549650145867189	0.015676788162725858	0.9347481354527282	0.14649224884531734	-0.9884406609644556	-0.03905228265277551	0.9233308504797685	0.15079555054792454	-0.35315838158998325
423														9.118232522377987	-0.3502844792023949	-3.4544595825727766	0.3548608872928162	0.01566644461486222	0.9347878439426162	0.1465303258236865	-0.9884347200772428	-0.039059797232283304	0.9233648327090217	0.15083556165225848	-0.35305243103155115
424														9.120317491940778	-0.3713019685859403	-3.403682590672156	0.3548402475514685	0.015656708558197244	0.9347958419862257	0.14647132893704873	-0.9884440895374476	-0.03904397082651158	0.923382124863281	0.15077516153402154	-0.35303300433155305
425														9.098037272693693	-0.3970745714401731	-3.355337494035342	0.3549869042518637	0.01566063118728611	0.9347400935235923	0.1463953488521631	-0.988455657089208	-0.0390360833434384	0.9233378036472524	0.1506989004576948	-0.35318145726624733
426														9.148110577247444	-0.3893562766685713	-3.4034304678411473	0.3551924793039985	0.015696469069640964	0.9346613951076745	0.1463338137793987	-0.9884657940305268	-0.03901011377036234	0.9232684970205878	0.15062866556650545	-0.35339254027072925
427														9.175704455897199	-0.38777982433979896	-3.4770437863851296	0.35534243473160254	0.015693994334056716	0.9346044364440282	0.14629204046758276	-0.9884714840817344	-0.0390226095114773	0.9232174137086282	0.1505915791108411	-0.35354177027057987
428														9.19937389720342	-0.3826631565302795	-3.476523099006154	0.3553259239369164	0.015697714991659117	0.9346106512994692	0.14632343548601665	-0.9884666303450753	-0.039027848029609444	0.9232187931394957	0.15062304750035238	-0.35352476229503416
429														9.178992345413304	-0.40994664503995865	-3.4513281911419345	0.35524512879761766	0.015681584949330515	0.9346416352586916	0.14639308593579453	-0.9884551410709268	-0.039057630248765816	0.9232388438837261	0.15070010611784967	-0.3534395495135056
430														9.143043528842233	-0.36435652060769386	-3.4058907812864474	0.35515414749814433	0.015674393615721455	0.9346763316248288	0.1464600861584616	-0.9884445225133953	-0.039075172113798934	0.9232632206891616	0.15077048550046668	-0.35334584478189535
431														9.11315295588224	-0.34398924739388875	-3.383655385507834	0.3551414090789553	0.01564017402567057	0.9346817450415202	0.14649668328047738	-0.9884372006866946	-0.03912316559880087	0.9232623144833944	0.15082203172977887	-0.35332621385862084
432														9.139862823728123	-0.34157724149476654	-3.4313934452239057	0.35521266345218266	0.015640232081641434	0.9346546671705215	0.14651559943548093	-0.9884336253363272	-0.03914265482241181	0.923231900903163	0.15084545549971723	-0.35339567868016536
433														9.127988622156677	-0.39644846315661947	-3.4792609719678653	0.35534512670409635	0.015629986250875624	0.9346044855752873	0.1464559386603383	-0.9884420361328576	-0.03915353415274554	0.9231903915004582	0.1507913947655118	-0.3535271648769054
434														9.148613980365873	-0.38884366395106934	-3.43048713355907	0.35543091964691537	0.01560437269096314	0.9345722898266722	0.14635202336949948	-0.9884573440466198	-0.039155641432052066	0.9231738441997808	0.1506936712447589	-0.3536120343429718
435														9.149648571908388	-0.38974312666987154	-3.455939487654092	0.3555687604758094	0.015617699002103691	0.934519632780166	0.14634338491182378	-0.9884583697341809	-0.03916203512325998	0.9231221318256032	0.15068556261409172	-0.35375046424482376
436														9.1567899501508	-0.4158074859247381	-3.5044461006569385	0.3556944459677203	0.015640257151078182	0.9344714246374604	0.14637300325431396	-0.9884536198655257	-0.03917123042554752	0.9230690142270128	0.15071437798361143	-0.3538767740937288
437														9.180296462806725	-0.4110013480533258	-3.5043185372734826	0.35578782199299075	0.015610622093574639	0.9344363724723771	0.14643792260016616	-0.9884411335902659	-0.03924360140631527	0.9230227302434276	0.15079931665840401	-0.353961305158243
438														9.154750602416568	-0.4149445977596021	-3.481653544990988	0.35581740397710343	0.015601132645948354	0.9344252670423452	0.14659323167079358	-0.9884151427923407	-0.03931831541546237	0.9229866734982188	0.15097056057046443	-0.3539823306123229
439														9.127472959586308	-0.3974223776819846	-3.5087303420473237	0.35582235651213723	0.015585201431484175	0.9344236470158971	0.14671404889747602	-0.9883946669029322	-0.03938236018766325	0.9229655673221286	0.1511062008462323	-0.353979487546326
440														9.142351774539575	-0.3651413372385889	-3.4359690783814787	0.3558150857981158	0.015572585697329097	0.9344266259547501	0.1468101657312647	-0.9883784433201285	-0.03943130758722021	0.9229530865414762	0.15121358191240203	-0.353966174498049
441														9.11990673862848	-0.37097117454830475	-3.461418096547168	0.3558100160868404	0.015586239744720648	0.9344283287566266	0.14678913754002132	-0.9883824992254893	-0.039407922110058995	0.9229583856017232	0.15118566187107776	-0.35396428363899235
442														9.124676438062037	-0.3943017205216631	-3.4599582662410278	0.3558129936965116	0.015594125815769425	0.9344270633691899	0.14676614670771077	-0.988386576850877	-0.039391279257928465	0.9229608939154988	0.1511581884683967	-0.3539694765960136
443														9.177179256843667	-0.408222688972341	-3.4563503973683645	0.3558469302636592	0.015574924493971992	0.9344144604772219	0.14677704218494964	-0.9883837481372153	-0.039421647678242175	0.9229460775740738	0.15117866299593014	-0.35399936404659693
444														9.172390087554687	-0.3841544271217892	-3.457939403933966	0.35582907373010064	0.015578032397418548	0.9344212086607429	0.146822254877583	-0.9883765957240307	-0.039432607035778125	0.9229457707585211	0.15122509689731073	-0.3539803303961371
445														9.093347984069862	-0.3719567213276588	-3.413501609465509	0.355693895892108	0.015567931685952427	0.9344728417284881	0.146852839162665	-0.9883720925838229	-0.039431589257084884	0.9229930097541145	0.15125556553230207	-0.3538441151701476
446														9.116127776844747	-0.36544640317473026	-3.3872188834775567	0.3556614117983696	0.015585001559883016	0.934484921164579	0.1468888295537501	-0.9883671388949188	-0.03942170093999239	0.9229998006012355	0.15128617411730422	-0.3538133146322066
447														9.11458416358245	-0.36376704782610164	-3.363225640898959	0.3557694324174801	0.015606650106270895	0.9344434404659305	0.14689892820427125	-0.9883656498882276	-0.03942140298693679	0.922956562276785	0.15129367003772015	-0.35392288645513875
448														9.173777489587367	-0.3838631190676733	-3.482558652062649	0.3559633138959294	0.015609677707242503	0.9343695506180113	0.14683833867927099	-0.9883743673681245	-0.03942857115812764	0.9228914461918801	0.15123639737687433	-0.3541171143200005
449														9.1699463133604	-0.36082266524089884	-3.509725118893338	0.3560337178119934	0.015613944903023133	0.9343426547608411	0.14679254871715908	-0.9883815633030497	-0.03941868800126432	0.9228715725506402	0.15118892170786158	-0.35418917336745864
450														9.149245926108383	-0.38803347071147365	-3.4854432337742756	0.3560469509963667	0.015562177073969286	0.9343384757842899	0.1467182964856192	-0.9883914489144174	-0.039447245648044575	0.922878274835067	0.1511296210462319	-0.35419701788675956
451														9.128859964747319	-0.4154254097424777	-3.460318795259846	0.35595586951884567	0.01551318594278557	0.9343739936540335	0.14669529398788267	-0.9883937764130866	-0.03947446604688794	0.9229170654381097	0.15111943557922253	-0.3541002774827012
452														9.099049600386001	-0.39495234146304486	-3.437894408372135	0.3559049421770506	0.015482749817725835	0.93439389798523	0.1466695773152698	-0.9883970532630779	-0.039487975271278064	0.9229407929136684	0.151101123619074	-0.35404624446100685
453														9.121546253410441	-0.3884481119157486	-3.4123869810213536	0.355952754652269	0.015494781872706614	0.9343754856534812	0.1466218739095952	-0.9884050394713491	-0.039465225691484994	0.9229299337147432	0.15104764043955907	-0.35409737046600803
454														9.13523384456397	-0.4394741888491916	-3.482827661671224	0.3559857831719936	0.015491106410574343	0.9343629636290165	0.1465954339941995	-0.988408982776593	-0.03946468672868374	0.9229213947631048	0.15102221157404994	-0.3541304712952674
455														9.129072594152223	-0.4139590513213732	-3.4599335412289767	0.35594302396377414	0.015488961403296114	0.9343792890289099	0.14660920027135477	-0.988406934987245	-0.03946483580244255	0.9229356998660946	0.15103583331040077	-0.35408737759049663
456														9.153098333015018	-0.40863703559014186	-3.4585049414251783	0.3559273296951904	0.015509031108600371	0.9343849345586234	0.14661861453416541	-0.9884063502647888	-0.039444500609343666	0.9229402569224793	0.1510376003196262	-0.35407474555742585
457														9.12155049013679	-0.3866150244651587	-3.4125838227686467	0.3559640468975438	0.015499199272714925	0.9343711105006552	0.14656608974221352	-0.9884142758038845	-0.03944110450735136	0.9229344389792812	0.1509867352087165	-0.3541116026579929
458														9.151432344016127	-0.4065380743798566	-3.4349025411483023	0.3560579970149803	0.015488797671306592	0.9343354857375257	0.14651087285093853	-0.9884222197313394	-0.03944717579027394	0.922906965461924	0.15093578995079324	-0.35420491302887613
459														9.177890552916825	-0.40392593737516264	-3.483229980331033	0.3561206983682189	0.01548143690493016	0.9343117109964376	0.14651591187142837	-0.9884206516596011	-0.039467745581594264	0.9228819728232944	0.15094681342833405	-0.35426532959579304
460														9.17312174228872	-0.3797453573688497	-3.4847366837676117	0.35605274940886816	0.015507697778675875	0.9343371719823588	0.14661083902588634	-0.9884066997372012	-0.0394646398024942	0.9228931148938713	0.1510354502235161	-0.35419851955826737
461														9.122786705453459	-0.3866999331793205	-3.437560750351782	0.35596738501768793	0.015502131728026197	0.9343697901342679	0.14670425886852226	-0.9883917616296081	-0.0394915936948318	0.9229111989966893	0.15113374690851478	-0.3541094595063599
462														9.142055306600186	-0.3578517847676466	-3.4375244791668984	0.3559876992569112	0.015508945737470956	0.9343619376771952	0.14679475642948986	-0.9883770845241995	-0.03952262987517512	0.9228889735296317	0.15122900313615614	-0.3541267162300338
463														9.119474491142876	-0.3638630942383049	-3.463310903353334	0.35603315029813964	0.015485963852311033	0.9343450009564703	0.14678470897043472	-0.9883774433393239	-0.03955096345837758	0.9228730384517939	0.15122901316078888	-0.3541682375329088
464														9.1050143224756	-0.4162532347185988	-3.461809791604925	0.3560615908582034	0.015496308244392173	0.9343339916466277	0.1467918951412227	-0.9883765063186053	-0.03954770888783083	0.9228609229111254	0.15123407747006995	-0.35419764366156253
465														9.117751496125186	-0.36212268516448887	-3.4398112470553537	0.35613477693399065	0.01547378888572673	0.9343064714084436	0.1467753953823221	-0.9883777488036591	-0.03957788498863832	0.92283530706651	0.15122826299118436	-0.354266860578476
466														9.1443839316098	-0.3594277019776444	-3.4876737814441694	0.35612963870495573	0.015466374138086575	0.9343085527313228	0.14670362674159393	-0.9883892284472231	-0.03955728744955544	0.9228487017581708	0.15115397566893302	-0.3542636720053791
467														9.146367461244349	-0.38038079504231803	-3.4374193490906095	0.35611677456932045	0.015442900483968278	0.9343138443237298	0.14665567572024824	-0.9883961765125541	-0.03956148422901209	0.922861287328373	0.15111093633489017	-0.35424924738185626
468														9.153926154000473	-0.40639951066865965	-3.4848277504165908	0.3561733720457194	0.015456890263246925	0.9342920387057636	0.14666528204832174	-0.9883948034405818	-0.039560176609064225	0.9228379186440425	0.15111848687385693	-0.35430689922394687
469														9.127119562411897	-0.40846777699726716	-3.4374996715544994	0.35615846869623846	0.015436821652955401	0.9342980518620411	0.14665774522246208	-0.9883952910530331	-0.039575931959374804	0.9228448682970577	0.15111734897570336	-0.354289282785045
470														9.1239264351502	-0.38563694111222013	-3.4629114530638425	0.3560907588241098	0.015403353867452271	0.9343244127013398	0.1466585082287049	-0.9883942178406526	-0.03959990029400537	0.9228708758240237	0.1511277831134908	-0.3542170799481599
471														9.124228552637561	-0.3854331172716868	-3.4621380435704148	0.3560048173726803	0.015373779238209012	0.9343576493609818	0.14664388942850642	-0.9883959545868641	-0.03961068857772995	0.9229063547840184	0.15111943577269185	-0.35412819208729884
