// Start Time: 1748431178.2324173
// Update Rate: 100Hz 
// Filter Profile: 46.1 human
// Option Flags: AHS Disabled ICC Disabled 
// Firmware Version: 4.0.2 
PacketCounter	SampleTimeFine	Year	Month	Day	Second	UTC_Nano	UTC_Year	UTC_Month	UTC_Day	UTC_Hour	UTC_Minute	UTC_Second	UTC_Valid	Acc_X	Acc_Y	Acc_Z	Mat[1][1]	Mat[2][1]	Mat[3][1]	Mat[1][2]	Mat[2][2]	Mat[3][2]	Mat[1][3]	Mat[2][3]	Mat[3][3]
0														9.442155008945583	-0.973412133020916	-2.3985778003923044	0.25885661394366405	-0.026687226384318363	0.9655470187233416	0.2802755070483265	-0.9545358826861831	-0.10152284872536262	0.9243586390392121	0.29689904111064674	-0.2396081505732936
1														9.471709740737518	-0.9917354756601003	-2.373692080098629	0.258862469268164	-0.026686265645816082	0.9655454754853701	0.28008403995170017	-0.9545972619454405	-0.10147412502999138	0.9244150326388698	0.29670172010311774	-0.23963500729052084
2														9.517942241821178	-1.0423818469506008	-2.370956309560781	0.2589207288366016	-0.026631458938483427	0.9655313674726114	0.2798767738811716	-0.9546675537835185	-0.1013846792906132	0.9244614906098525	0.2964803992641012	-0.23972969201083255
3														9.511228468052781	-1.0721307527499584	-2.3865924668740632	0.2589387553021804	-0.026624677788425755	0.9655267202595796	0.2797491062367367	-0.9547085928692455	-0.10135058096218666	0.9244950830384686	0.29634883032380654	-0.23976282489870532
4														9.506886049671582	-1.025772173646138	-2.3195580751860585	0.2588084379790347	-0.02667898902791971	0.9655601607229353	0.2797426241055419	-0.9547093543910534	-0.101361298811547	0.9245335346483642	0.29634149250934533	-0.23962358633476794
5														9.466857650766654	-0.9912873564637634	-2.2904553229532203	0.2585585273209479	-0.02681428118648224	0.9656233646065507	0.27963940187795056	-0.9547366369488752	-0.10138914628743338	0.9246346807615241	0.29624136846835686	-0.2393569692760807
6														9.420671288796466	-0.9635287055616963	-2.283887016670564	0.2583954895423495	-0.026912547307707174	0.9656642717743987	0.27934186929425275	-0.9548270718186325	-0.10135769818542933	0.924770182825637	0.29594083482964356	-0.23920520737845874
7														9.395777437848876	-1.014216495380919	-2.365760548915645	0.2583247363951662	-0.026956486626965842	0.9656819758052329	0.279012705145976	-0.9549301066029552	-0.10129364180635254	0.924889312800993	0.2956041936982613	-0.2391608658089952
8														9.394882910132866	-1.0605390020369885	-2.3509701326465957	0.25834826290878976	-0.026958502085026897	0.9656756257757271	0.2788725166546673	-0.9549739008904977	-0.10126681624638001	0.9249250210188407	0.29546249809970365	-0.2391978630965993
9														9.436320997339534	-1.0486142661454736	-2.392813611289368	0.25845579105230687	-0.02691279235878613	0.9656481272590857	0.2788180070827538	-0.9549925036767897	-0.10124147790080204	0.9249114135947981	0.29540653264372807	-0.23931957185629904
10														9.443372798610211	-0.9949378763771761	-2.385287107927624	0.25849156572742327	-0.02686097818270089	0.9656399941483648	0.2788420863022369	-0.9549890464446509	-0.10120776688254994	0.9248941568387171	0.2954224247104562	-0.23936664267143348
11														9.496528662788483	-1.0157727451404501	-2.366048561897951	0.2583272448079608	-0.026868343859191984	0.9656837612221677	0.27892682190765994	-0.9549667068786241	-0.10118506200961327	0.9249145163799847	0.29549396077020074	-0.23919961650871985
12														9.467311398939565	-1.0367300260483667	-2.2704563391837285	0.2581853521292561	-0.026817142497176538	0.9657231305162873	0.2790496577388771	-0.9549375687372472	-0.1011213544708065	0.9249170841008979	0.2955927615529194	-0.23906757801051004
13														9.44448840870832	-1.0105403981341345	-2.2709943284693206	0.2581483362930547	-0.026736375035539856	0.9657352653388434	0.279071629077315	-0.9549402387077522	-0.10103547070664812	0.9249207870478751	0.29559145242503104	-0.23905487014490884
14														9.474281860848883	-1.0051076167676256	-2.2544932226464622	0.2582461414013022	-0.026608236630076332	0.9657126550867896	0.279029091698548	-0.9549639624966044	-0.10092866945852084	0.9249063176545083	0.2955263644350905	-0.23919128639345577
15														9.46794569729737	-1.011049315338468	-2.2781978327829324	0.2583605046415655	-0.026481910954828103	0.9656855378608177	0.2789195118854732	-0.9550083467150963	-0.10081152510535779	0.9249074307901984	0.29539425535490593	-0.23935011671690404
16														9.479139893723522	-1.02614684743011	-2.3298799725268426	0.2583847775982929	-0.026365184093540606	0.9656822374742089	0.2788806803679782	-0.9550321169197197	-0.10069370272927887	0.9249123595362829	0.2953278393913322	-0.23941302065149517
17														9.44991556720453	-1.0064960685003794	-2.354072046553147	0.2583675669805395	-0.0262776434151388	0.9656892283696158	0.2788078846557883	-0.9550650522193835	-0.10058284885084354	0.9249391135563042	0.29522911693417675	-0.23943141967574993
18														9.466971997256307	-1.0381292523285608	-2.3751405303476023	0.25838109072251647	-0.02619703747234442	0.9656878000599963	0.27873644317432683	-0.955095794074976	-0.10048890180918614	0.924956867753069	0.2951368146605292	-0.23947662397083425
19														9.467009837253494	-1.037382017120636	-2.375316182909789	0.258405692268549	-0.02609244859908183	0.965684048915232	0.2787777314417064	-0.9550926815025051	-0.1004039152253039	0.9249375517598081	0.2951561516662976	-0.23952739191606837
20														9.474202824763294	-0.9833115536467046	-2.3672384735556915	0.25839449095728556	-0.025999890821983312	0.9656895426171757	0.2789397908358019	-0.9550509454923239	-0.10035080768333207	0.9248918207722481	0.2952993348984433	-0.23952749879112561
21														9.456954283073378	-0.9736094223651397	-2.3383185618342623	0.25832857155757094	-0.02590910216753342	0.9657096186441855	0.2790911327904967	-0.955014231733299	-0.10027939361890183	0.9248645785815041	0.2954260239243145	-0.23947646162729241
22														9.486507698853263	-0.9915986498078913	-2.3135156081838897	0.25828484359714265	-0.025817943969304896	0.9657237562249349	0.27916893257341846	-0.9550002898563056	-0.10019557605099359	0.9248533108843898	0.2954790688755637	-0.23945453264161054
23														9.469169241941918	-0.9816717055612212	-2.2850347578838366	0.2583141261311013	-0.02572215762671695	0.9657184801214851	0.2791779977074952	-0.9550063573801899	-0.10011245157049298	0.9248423962152463	0.29546781207171585	-0.23951057219336658
24														9.445168747196357	-1.0018308152702944	-2.2720235082607347	0.2582950684240294	-0.025602450313199437	0.965726758542905	0.2792144855005131	-0.9550077333947341	-0.09999750118346203	0.924836703810197	0.29547376143104975	-0.23952521285091766
25														9.451379580142262	-0.9775455613346988	-2.3597546933402356	0.25823534328288045	-0.025528775181724445	0.9657446811229631	0.27924620568916325	-0.9550071996168915	-0.09991398945146766	0.9248438052383647	0.29548186123284015	-0.239487798425302
26														9.474760747634912	-1.0026110309131064	-2.3575196620997887	0.25816674880833523	-0.025468159782840616	0.9657646207265049	0.2793506107835938	-0.9549823741932493	-0.09985940734381517	0.9248314257552925	0.2955673152050149	-0.23943014872386548
27														9.475490367280882	-0.9788261037103166	-2.363941751301033	0.25808386889519996	-0.02537691894418065	0.9657891739924334	0.2795045020526246	-0.9549453496314027	-0.09978282692765107	0.9248080611393916	0.2956947601873589	-0.23936302732322867
28														9.428022083310447	-0.9970431465232363	-2.344454111826511	0.25804342718163065	-0.025327468292889205	0.9658012782338984	0.27949038881663646	-0.9549563047162402	-0.09971749416140531	0.9248236114240839	0.2956636187165699	-0.23934141371676343
29														9.41542559478369	-1.033610261945063	-2.381864879786458	0.25801347895808446	-0.025231116186646974	0.9658118012593976	0.27954509813981815	-0.9549497451172022	-0.09962691607487585	0.92481543173865	0.2956930419819967	-0.2393366711172521
30														9.458000358849812	-0.991103603432957	-2.327349643939806	0.2581016489699755	-0.0250829846711616	0.9657921011682413	0.2797792040833784	-0.9548872306022047	-0.09956893991262693	0.9247200310155781	0.29590745295250553	-0.239440271311469
31														9.440811760030197	-0.9580961569747324	-2.3072791521258225	0.2582362620894391	-0.02492495714448828	0.9657602080503319	0.27996707265030535	-0.9548389388648821	-0.09950396504162548	0.9246255843170758	0.29607659032542877	-0.23959587118223696
32														9.482223868756817	-0.9456373584439041	-2.3493979909339737	0.2582643207832497	-0.024844039877829988	0.9657547899404463	0.27988025160019214	-0.9548741427979219	-0.0994103424204287	0.9246440317087327	0.2959698381566651	-0.2396565657914208
33														9.474835428390856	-1.0217600372573195	-2.3498705082160742	0.25819957939223237	-0.024819259693154155	0.965772738044494	0.2797385460955695	-0.9549241689739344	-0.09932863302078904	0.9247049924327282	0.29581047286687706	-0.2396181151588156
34														9.468752483095665	-1.0284229502472013	-2.372263957440378	0.2582525750855549	-0.02477431443857725	0.9657597220871137	0.27980369544630224	-0.9549062039218912	-0.09931784193223898	0.9246704815642561	0.29587222758410897	-0.23967504139593765
35														9.475637789454344	-0.9751353223850373	-2.3648759841789664	0.25837856597947567	-0.02471545047965426	0.9657275304918963	0.28000710250543026	-0.9548429985355875	-0.09935225560640383	0.9245737067367329	0.29608106095316955	-0.23979046302124324
36														9.469809277880195	-0.9590747748465663	-2.3951014076301202	0.25838772462590726	-0.02467338125508292	0.9657261558123436	0.2801037158222208	-0.9548160802440843	-0.09933861932756123	0.9245418823099525	0.29617136452527426	-0.23980164863904957
37														9.493149767421878	-0.9845485715490511	-2.3929062175014417	0.2583105289155454	-0.024666317455859538	0.965746987276967	0.28012818317629595	-0.9548115120895477	-0.0993135306573038	0.9245560402927012	0.2961866795864365	-0.23972813600794307
38														9.429195220215316	-0.947323245043858	-2.359289810023608	0.2582151923646128	-0.024617380958660146	0.9657737307396809	0.28029045822931953	-0.9547676853854301	-0.09927701631972043	0.9245334896355585	0.2963319954012461	-0.23963550455600663
39														9.441346975661412	-0.9565250446055152	-2.305740461964829	0.25814104736071325	-0.02458275475398719	0.9657944335293192	0.2804545549855042	-0.954721077083104	-0.09926181320709279	0.9245044306304844	0.2964849964871449	-0.23955835323073366
40														9.458967760420222	-0.9655439989778177	-2.3335138588408384	0.2581434710212353	-0.02449976956397784	0.9657958944106261	0.2805280281322651	-0.9547059584809474	-0.099199588069704	0.9244814621188099	0.29654054382544026	-0.23957823788144944
41														9.441058242442809	-0.9791910366633901	-2.2980418420706252	0.25819517673479037	-0.024433907406733235	0.9657837412587404	0.28053602688468465	-0.9547084529485497	-0.09915294997297179	0.9244645954987385	0.29653794704460057	-0.23964652643409573
42														9.458384259982813	-0.988196134973424	-2.327025807727869	0.2583023865696066	-0.024353877474822955	0.9657570945866187	0.28057307163276113	-0.9547012540371336	-0.09911744051620024	0.9244234032990528	0.29656770591530407	-0.23976857016950892
43														9.488857386624234	-0.9369451783265514	-2.325597019629623	0.25839645049958465	-0.02434900490347308	0.9657320541068453	0.2805685011385538	-0.9547001228951236	-0.09914127048258659	0.9243985020206824	0.2965717473129339	-0.2398595592376343
44														9.4585714248601	-0.9649599906245002	-2.3353612233558776	0.2584163454290352	-0.024313271874662895	0.9657276309735836	0.28049089365308777	-0.9547280299904194	-0.09909211536900835	0.9244164921683264	0.2964848285517513	-0.23989767703303172
45														9.475711187824054	-0.9974219270172942	-2.355900261091429	0.2583642153004933	-0.024351106413317142	0.9657406255659997	0.280451741816914	-0.9547384192466626	-0.09910283207983409	0.9244429418650024	0.29644826602770347	-0.2398409322971134
46														9.429571682154233	-0.9465689234400975	-2.3580876531710024	0.2582909073742243	-0.024375417502731506	0.9657596213289142	0.280488054666148	-0.9547266916221047	-0.09911304401495695	0.9244524100014019	0.29648403553290753	-0.23976021003644837
47														9.435470007315125	-0.9629643821220603	-2.327403138762781	0.2582588192288293	-0.02437345151129497	0.9657682523007045	0.2804673371567793	-0.9547345933990063	-0.09909555467032674	0.9244676603747242	0.29645875097331975	-0.2397326717254511
48														9.453385098187752	-0.9491386521843571	-2.3629370138888515	0.25831743082287284	-0.024383208117363553	0.9657523306184539	0.2804531664086664	-0.9547362076006827	-0.09912010566791489	0.9244555837812993	0.29645275012752215	-0.23978665633726526
49														9.447145163159057	-0.9563919739333864	-2.3857410380083306	0.25835673831886374	-0.024379399271551805	0.9657419120326072	0.2803973895412677	-0.9547531896720062	-0.09911433170622859	0.9244615187792731	0.2963983665648109	-0.2398310000688636
50														9.452277705043507	-0.9960201459196301	-2.349038910229331	0.25846792350856773	-0.024333258797943735	0.9657133244568195	0.2804010484780251	-0.9547530932565114	-0.0991049087056143	0.9244293291158574	0.2964024686695376	-0.2399499781975617
51														9.481828907285221	-0.9914740572365489	-2.333053489079893	0.25858637110803184	-0.02430733436376631	0.9656822677119568	0.28044629648394037	-0.954737345981816	-0.09912857799867715	0.9243824768274338	0.29645531481780873	-0.24006516375903608
52														9.505782130070056	-0.9707029478418903	-2.3464692181867948	0.2585984044380636	-0.024312865775214437	0.9656789061483557	0.28040713813204865	-0.954748939529396	-0.09912769215556609	0.9243909898450344	0.2964175214546044	-0.24007905128941842
53														9.458180209949605	-0.9897463755828173	-2.327196324298798	0.2585753144296077	-0.024359522567371145	0.9656839133111415	0.2803916553635871	-0.954749874155931	-0.09916247980815265	0.9244021453729421	0.29641068040731033	-0.24004454205496617
54														9.476556540793094	-0.9527619589356704	-2.3699306719456903	0.25861661609320336	-0.024362487203043653	0.9656727784802587	0.2803363924917265	-0.9547659284141194	-0.09916415170942412	0.9244073522669677	0.2963587203994621	-0.24008864179291806
55														9.451945045137549	-0.997063768709481	-2.3499345614604055	0.2587146203114774	-0.024348162786672928	0.9656468879492142	0.2801762194048143	-0.9548155101069182	-0.09913943584311535	0.924428489022874	0.2962001158476808	-0.24020295596579788
56														9.522499007549861	-1.0036699400249671	-2.3684816759237886	0.2589090456791772	-0.024268361204822092	0.9655967857806538	0.28010647501028174	-0.9548396524673325	-0.0991039894927451	0.9243951907722217	0.29612883128884293	-0.2404188980855953
57														9.546206413797528	-0.9988650580185396	-2.2730292650984474	0.2591978452229419	-0.02415225441592983	0.9655222139538852	0.28022502384835035	-0.9548040839102805	-0.09911153998118197	0.9242783201184454	0.2962529830311893	-0.24071509508991434
58														9.528686321584873	-0.9661315860859054	-2.2542810908743514	0.2594017857898399	-0.024009576349059536	0.965471001000331	0.28027780143163017	-0.9547950985563582	-0.09904884551273946	0.924205100372041	0.2962935369127945	-0.24094620235648617
59														9.551670705141758	-0.9907513204364397	-2.25393803883499	0.2594299559534381	-0.02387665095313804	0.9654667283201734	0.2801695611444418	-0.9548424918845979	-0.09889809249799976	0.9242300119354101	0.29615151735365813	-0.24102523479295268
60														9.515913415425347	-1.001209196388624	-2.292992923067433	0.2593067243603581	-0.02378849643491099	0.9655020093914193	0.2800942929391935	-0.954879669041681	-0.0987522390315465	0.9242874064728976	0.29603872227838146	-0.24094369704847812
61														9.410505729711968	-0.9583516789591024	-2.328068620622218	0.25905900367246615	-0.02373497832736296	0.9655698231718041	0.28001711657702233	-0.9549179576302701	-0.09860075364379357	0.9243802502434372	0.29591949073866936	-0.24073389449939764
62														9.380995818215807	-0.9849296762333599	-2.335316242894879	0.25882975127766705	-0.023617000445801145	0.965634194270006	0.28006800755884176	-0.9549211900307685	-0.09842475284317982	0.9244290513584918	0.2959184991178543	-0.24054764784606586
63														9.363489368289779	-0.9811431520907855	-2.4088189270244844	0.25870366827232616	-0.023484433752259337	0.9656712139200265	0.28004925597778774	-0.9549448011934696	-0.09824887225740496	0.9244700245268795	0.2958528486340804	-0.24047092486695798
64														9.380686147176329	-1.0120676665420416	-2.4298576094498108	0.25878949277988045	-0.023256931113671137	0.9656537234339779	0.28009226320985914	-0.9549513704903906	-0.09806224598948937	0.9244329735122556	0.2958496157741262	-0.2406172943277159
65														9.445931992838076	-0.9775874505228505	-2.486146709360737	0.2590137036937128	-0.022971081516969555	0.9656004508660951	0.2802165457418887	-0.9549333089788912	-0.09788290399814226	0.9243325098639286	0.29593023640136246	-0.24090393602447469
66														9.49890510296883	-0.9734637618651886	-2.4773554530941437	0.2592017376156585	-0.022693154563933338	0.9655565648645141	0.2804028893510576	-0.954895682942891	-0.09771619282702534	0.9242232840935147	0.2960730575938434	-0.2411473941522712
67														9.534168907475163	-0.9836784156147607	-2.4322426161946833	0.2593168854389122	-0.022499669451477716	0.9655301744641837	0.2805822280877309	-0.9548540533239345	-0.09760814582901367	0.9241365517106156	0.29622204800694313	-0.24129677177075048
68														9.463867857771211	-0.9529797324621434	-2.421987294495727	0.25915873396065425	-0.0224238786063006	0.9655743991428942	0.28079531564063276	-0.9547985118420219	-0.09753867181040796	0.9241161947104859	0.2964067668804323	-0.24114785344535172
69														9.441741645031927	-0.903739297814712	-2.428401343246513	0.2588389964008809	-0.022393180749667452	0.9656608718375714	0.2810623902866715	-0.9547262749351239	-0.09747652391651083	0.9241246164389998	0.29664167846817496	-0.2408265099341359
70														9.40757073344379	-0.8845338156727499	-2.369042905931587	0.2586324189862601	-0.02229434278914913	0.9657185066720614	0.2812817661334489	-0.9546724971588665	-0.09737038158137487	0.9241157069816334	0.2968221444704804	-0.2406382651653347
71														9.413622603514016	-0.8996651026612292	-2.338351356014749	0.2586682340914284	-0.022125522937606446	0.9657127968018027	0.2813135893538397	-0.9546781254103796	-0.09722315211812071	0.9240959956178154	0.2968166742244469	-0.24072069455170936
72														9.447252992452396	-0.9864666352545359	-2.374038978138934	0.25882449377592404	-0.021883468889727198	0.96567644436995	0.2812673901907172	-0.9547122593054473	-0.09702142622736122	0.9240663053249695	0.2967248148053021	-0.24094781103346768
73														9.476495203325998	-1.0030587417239885	-2.3512344555204123	0.25887480983616046	-0.021661993077579655	0.965667950637381	0.2812893911481182	-0.9547258024268239	-0.09682417367568336	0.9240455136300448	0.29669748943387575	-0.24106117170507263
74														9.494902939438928	-0.964268982414169	-2.3942080516317166	0.25876429393879996	-0.021508315679540896	0.965701005766787	0.2814659263015006	-0.9546880595751939	-0.09668320038036445	0.924022712119996	0.29683008820060797	-0.2409853236718511
75														9.431883059348237	-0.880216391718611	-2.374488164025264	0.25848976327169254	-0.021564872371660326	0.9657732645726629	0.28158364893231436	-0.9546534049795077	-0.09668259933925946	0.9240636833777789	0.2969374220953409	-0.24069581720849637
76														9.409192904918207	-0.8782017705439452	-2.3649531211743575	0.25808745253592785	-0.021733598137961024	0.9658770716584449	0.28149438583431485	-0.954678129902565	-0.09669839207299681	0.9242033204805516	0.2968456147523806	-0.24027256067850128
77														9.43978964566587	-0.8736249601963457	-2.344688313927576	0.25788045475065674	-0.02192057087057353	0.9659281337813406	0.2811161737710025	-0.9547874537806601	-0.09671925841008043	0.9243762047467181	0.2964800274483132	-0.24005879576116657
78														9.444104429608595	-0.9672662000989057	-2.3948774211198196	0.25795946347678	-0.022027111052768528	0.9659046130863235	0.2808003981754087	-0.9548754728212511	-0.0967675967921274	0.9244501347218806	0.2961885173045383	-0.24013394310183533
79														9.497195035483886	-0.965560057672028	-2.384577311498852	0.2581310364636029	-0.022138087019902913	0.9658562383281093	0.28061853974151263	-0.9549170907415383	-0.09688438967686143	0.9244574642283805	0.2960460351242963	-0.24028138071772598
80														9.545086121823159	-0.924804586992758	-2.4108345068086288	0.2580902895651052	-0.022310450854207103	0.965863161226725	0.2805183456924011	-0.9549331806500332	-0.09701586583446103	0.9244992483297101	0.29598118905817916	-0.2402004903440203
81														9.503960310270594	-0.937687151794755	-2.3674353220147397	0.2578634401759997	-0.022497957701372723	0.9659194004262805	0.2803466964159548	-0.9549765716831095	-0.09708489761561664	0.9246146094612926	0.29582695860188524	-0.23994631594400306
82														9.480985758524819	-0.9363560825324556	-2.3587280160521775	0.25761581828326524	-0.02271348607967455	0.9659804282284153	0.28016888260454276	-0.9550197354956826	-0.09717356653884199	0.9247375235115997	0.29567110505401983	-0.2396645786213915
83														9.517870144751729	-0.902111193487583	-2.3238432693416717	0.25740280413338373	-0.02287163042281401	0.966033480240759	0.2800818019515038	-0.9550385122470424	-0.09724003465936314	0.9248232158849977	0.2955982554866617	-0.2394236636453732
84														9.459277639690754	-0.9053415060418809	-2.251898623788976	0.25725022039890205	-0.023003739177766686	0.9660709870856065	0.279965670784619	-0.9550672308749741	-0.0972923824917854	0.9249008310553274	0.2954951987641268	-0.23925099836889824
85														9.459674935123534	-0.9055623854299006	-2.2501401798195433	0.2571141629312653	-0.023087885895805627	0.9661051996263228	0.27966679485472923	-0.9551585645710384	-0.09725533600927039	0.9250290758002353	0.29519326898060455	-0.23912787974785987
86														9.40058302580429	-0.9149330304878082	-2.282382555222628	0.25697803807327096	-0.023171728001390834	0.9661394096968833	0.27932531513504005	-0.9552633956724149	-0.09720706359682811	0.9251700688374668	0.29484727556794005	-0.2390092630368959
87														9.406283219066236	-0.9539935744256949	-2.2434880173963507	0.25679715358199057	-0.023233968051264875	0.9661860093381506	0.2789993831826295	-0.9553667346880135	-0.09712747518223395	0.9253186294979153	0.2945073598064334	-0.23885319533961463
88														9.406689312312182	-0.9532805343922106	-2.2420879772244726	0.25668199306431744	-0.02325337613011963	0.966216142969616	0.2786645555432132	-0.955474961186513	-0.09702403841077571	0.9254514681605047	0.29415451559373246	-0.23877332563622639
89														9.454620395230226	-0.9335635034404791	-2.260183237863347	0.2566540840128257	-0.023258099664166892	0.9662234430811275	0.2782620124875903	-0.955603225268463	-0.09691608877202397	0.9255803225900457	0.2937371897743327	-0.23878762484179122
90														9.442156079815874	-0.9700035508944915	-2.297816785271791	0.2566264922108997	-0.023273776299873067	0.9662303942809256	0.2778495537191621	-0.9557333225479187	-0.09681653613706229	0.9257118714770769	0.2933123718977093	-0.2387998816962612
91														9.506607491198393	-1.0061646118801615	-2.3302908709378727	0.25666827992694435	-0.023264027717889685	0.9662195294516069	0.2775018300626034	-0.9558430775604103	-0.09673027133089741	0.9258045843433966	0.29295528002441656	-0.23887878833116577
92														9.506571959480919	-1.0058362153638898	-2.3305775641004667	0.2566951618482142	-0.02330771476007082	0.9662113352245371	0.27726925547637954	-0.9559114163201781	-0.09672189057460341	0.9258668121556651	0.292728738905859	-0.23891532300648305
93														9.553569844714717	-1.0336696612512395	-2.3340125480771468	0.25660657065474796	-0.02340735836667468	0.9662324582992979	0.2770346830223234	-0.9559783755272175	-0.09673225897839675	0.9259615825181579	0.2925020360589596	-0.23882568245863428
94														9.49461878991565	-1.0437741918937764	-2.365557081991765	0.25634220239278677	-0.023601817743179043	0.9662978989274653	0.2769180490741162	-0.9560040971606307	-0.09681198432566664	0.9260696892617755	0.29240232627546847	-0.23852842643863953
95														9.501489431376317	-1.0380515220155055	-2.3392081721790334	0.25600141604056564	-0.023851085114257792	0.966382119414519	0.27696138336039955	-0.955976210587198	-0.09696327613295172	0.9261509958491212	0.29247326464176804	-0.2381254340835252
96														9.443349613848357	-1.0194281302694825	-2.2734626732566587	0.25582848740615116	-0.02409866292552504	0.9664217710071947	0.27713444007564403	-0.9559021567141288	-0.09719860551076048	0.9261470116323003	0.2926949286107962	-0.2378684334040162
97														9.414476707523388	-1.0028624445829117	-2.2952096894234657	0.25568256837923964	-0.024277431429016894	0.9664559123675558	0.27716410577524825	-0.955879429947105	-0.09733742278180858	0.9261784291899711	0.29275437097882406	-0.2376728751372159
98														9.449449360411817	-1.0461078034471158	-2.34269774594675	0.2556423285560457	-0.024438166510989456	0.9664625061884312	0.27715180468042405	-0.9558683998931651	-0.09748066089263041	0.9261932179695694	0.29277701088586355	-0.23758734159022882
99														9.426286555314167	-1.0220440417006582	-2.3435907207719704	0.25567966573088624	-0.024535482632613348	0.966450163548916	0.27724154211053775	-0.9558290129672365	-0.09761160432166296	0.9261560537295606	0.2928974360797013	-0.23758378748985393
100														9.385478123098983	-0.9884266946183607	-2.3166475397987516	0.25570183321032214	-0.024579886445376065	0.9664431704322887	0.2773549833402312	-0.9557879331808616	-0.09769155542930762	0.9261159677433606	0.29302773924696923	-0.23757937267908902
101														9.415290347449343	-0.9843917217981245	-2.2989563096658925	0.25564781938479375	-0.024639630661115047	0.9664559384910852	0.2773890843203217	-0.9557728300862651	-0.09774248395056093	0.9261206661897433	0.2930719806971933	-0.2375064752517091
102														9.455901331532639	-1.0428821408866153	-2.3168145826925497	0.2555333018283788	-0.02471409774142641	0.96648432218506	0.2773207964338468	-0.9557905698749269	-0.09776278639370126	0.9261727201348485	0.2930078495723122	-0.23738258690777153
103														9.426433538436244	-1.047982200771151	-2.332663298292176	0.2554986604205403	-0.024733169366255026	0.966492992657686	0.2773614712988664	-0.9557768802655228	-0.09778123229348688	0.9261700971000077	0.2930508923088358	-0.23733968432345548
104														9.456096834884049	-1.0437294670491861	-2.315634743838554	0.25560375638346855	-0.024709751333084617	0.9664658027637182	0.27754985913128877	-0.9557162524462084	-0.09783925851302046	0.9260846588832269	0.2932505294099791	-0.23742647616031531
105														9.474840469707317	-0.9840039713328687	-2.3664128652245044	0.25571366245625565	-0.024697636081048274	0.9664370386141129	0.27780482606066026	-0.9556331738958714	-0.09792709312090082	0.9259778622897065	0.2935221690464136	-0.23750733636600402
106														9.47483764019282	-0.9849964819243634	-2.3660112714449864	0.2556501144718258	-0.024764548876722664	0.9664521385404841	0.2779645360536681	-0.9555777917129586	-0.09801428814950724	0.9259474799722778	0.293696784292777	-0.23740990549905577
107														9.45756414619393	-0.9764264812978761	-2.3362058661147262	0.25549337070870554	-0.02480437226688828	0.9664925662623333	0.2780948316680525	-0.9555374595193293	-0.09803789091399626	0.9259516197531178	0.2938246187299367	-0.23723551864083464
108														9.463515298919873	-0.9932865884346577	-2.304528995159999	0.2553986277298871	-0.024856938452747862	0.9665162562339279	0.2782873542216483	-0.9554740636557196	-0.09810943971678687	0.9259199152378171	0.2940262680305678	-0.23710939305310397
109														9.446944315862611	-0.938274022533644	-2.2902613118599917	0.2554474563771655	-0.024870500102066567	0.9665030032312935	0.2784560561388708	-0.9554175215943655	-0.09818138433565936	0.9258557240898942	0.2942087994182933	-0.23713363429683343
110														9.399991939750711	-0.911191646351062	-2.28657102665654	0.2555370291103684	-0.024858911294521446	0.9664796227974488	0.2785718961330313	-0.9553789867553102	-0.09822774735911129	0.9257961576061413	0.2943348878329732	-0.2372097138948081
111														9.47031701365578	-0.9416537862745182	-2.2965689446283926	0.2556296312005023	-0.02486852972955747	0.9664548866250227	0.27850541313249655	-0.9553961515187623	-0.09824931816066654	0.9257905953876355	0.2942783544405341	-0.2373015457167923
112														9.452013697319508	-0.9629115439614409	-2.364867968603445	0.2557109510818354	-0.024835169544665442	0.9664342315183742	0.2784516690291673	-0.9554139972130087	-0.09822811178237903	0.9257843039886201	0.294223228660057	-0.23739442749390216
113														9.463466868221499	-0.9723040363167517	-2.3130138826970836	0.25581339726612506	-0.024837665592539304	0.9664070551000121	0.27845315207039917	-0.9554099621374742	-0.0982631484867559	0.9257555551446741	0.2942361205161329	-0.23749054192197405
114														9.510919228655684	-0.9541784059379632	-2.33264381336263	0.25597673132859644	-0.02481303629146303	0.9663644375950136	0.2785798885122202	-0.9553668929366009	-0.09832266064943962	0.9256722739365413	0.2943780105759675	-0.23763928158974268
115														9.493153513963867	-0.9455769723301108	-2.304862462648852	0.2560037884440106	-0.024854196111519233	0.9663562123968391	0.27863151314305823	-0.9553454084459652	-0.09838511292275155	0.9256492533275898	0.294444255330042	-0.23764688156425084
116														9.481134379833078	-0.9603340428237398	-2.349355751570764	0.25594949365116554	-0.02490438565005118	0.9663693022210017	0.27867741475859886	-0.9553274540165291	-0.09842943719111984	0.9256504497936443	0.2944982634544562	-0.23757528831748026
117														9.440068734158725	-0.9493724032617663	-2.3145596866549374	0.2559113867340983	-0.02495673058553452	0.9663780439032712	0.27874682547092056	-0.9553012699428933	-0.09848700896758084	0.9256400863347027	0.29457875898302177	-0.23751586331508
118														9.458331050018197	-0.9288176944843978	-2.246174342102496	0.2559148984823996	-0.024971508593699315	0.966376732177104	0.2788796250653863	-0.9552573758899805	-0.09853679785328072	0.9255991137950235	0.29471981536086705	-0.2375005494215197
119														9.464350184866355	-0.922232906441587	-2.2235525178189426	0.2559877436732303	-0.02496940817692017	0.9663574927242933	0.27890461382806164	-0.95524726729844	-0.09856406395985408	0.925571440502843	0.29475275566847	-0.23756750946064775
120														9.469671211153749	-0.9458541509433311	-2.297505652351636	0.2560972364425645	-0.02490699684699546	0.9663300921499578	0.27892459900662514	-0.955243711410434	-0.09854197014376115	0.9255351282125792	0.29476955968838486	-0.23768810051334316
121														9.469429371510092	-0.9458250723056134	-2.298514194827751	0.25623220450035267	-0.02484601874764225	0.9662958825997768	0.27895117458892604	-0.9552370813234174	-0.09853101369709792	0.9254897620029886	0.2947961903029125	-0.23783167705446862
122														9.480644878767675	-0.962508998257723	-2.3504408498241163	0.256392023624131	-0.02478370811628139	0.9662550895254988	0.27914046458111064	-0.9551779243728785	-0.09856842204357733	0.9253884218291065	0.2949930517872006	-0.23798186515343817
123														9.486962124040131	-0.9325131696875278	-2.3359844632049693	0.25644710879103766	-0.0247398019622819	0.9662415963885976	0.279266549741926	-0.955140408846356	-0.09857481211778768	0.9253351147492236	0.2951181824078005	-0.23803399720283253
124														9.469492711759452	-0.9233153009135314	-2.3072593713865968	0.25635760653960676	-0.024743748413329686	0.966265245408186	0.2793639172754069	-0.9551118603480878	-0.09857553422099459	0.925330524349988	0.2952102321005705	-0.23793768001160204
125														9.445678739505036	-0.9444602565167614	-2.2929369785545295	0.25626493587889954	-0.024759395748414265	0.9662894260836952	0.2794420980495522	-0.9550883352702184	-0.09858187292006274	0.9253325869527389	0.2952850218906071	-0.23783683350233153
126														9.44022195182405	-0.9284919010131093	-2.322263626884947	0.2562912674122032	-0.024728681213497083	0.9662832289622373	0.2795501840958166	-0.9550561128767624	-0.09858760484322311	0.9252926460424514	0.29539179674149674	-0.23785963423327783
127														9.463293108752076	-0.9540251079700286	-2.320936241379382	0.2564213318546224	-0.024642643619951943	0.9662509201472058	0.27961648123402977	-0.9550394859701067	-0.09856065980021798	0.925236577309934	0.29545273793514737	-0.2380020076688935
128														9.439449885095728	-0.951498232245815	-2.3162100834509056	0.25651298775965975	-0.024579055198812066	0.9662282117368268	0.2795514280975765	-0.9550637569409566	-0.09850999556608975	0.9252308285823696	0.295379569746046	-0.23811514781177318
129														9.456455896354164	-0.983792928891826	-2.3376011537100747	0.2565755793506781	-0.024506999719306394	0.9662134231346731	0.2795833412159078	-0.9550588759567102	-0.09846673941415651	0.9252038301884695	0.29540133787961087	-0.23819303554789917
130														9.450235664916441	-0.9906180336088866	-2.360904927896326	0.25669623052055396	-0.02440468128088455	0.9661839663170345	0.2796652394345751	-0.9550392229062756	-0.098424776162194	0.925145609668305	0.29547333930856545	-0.2383298274855769
131														9.45001179117418	-0.9906169239145766	-2.361801326875145	0.25679869582829185	-0.02434281714495634	0.9661582981449451	0.27981148558929275	-0.9549954689102326	-0.09843366747835294	0.9250729497467768	0.29561982615239657	-0.23843019110931685
132														9.46239240935864	-0.953173113630619	-2.324955114443051	0.2569052544392355	-0.02423496186370741	0.9661326807768058	0.27995267994831163	-0.9549578535584404	-0.0983971286004611	0.9250006417464103	0.29575017252830493	-0.23854904782498731
133														9.491856570091468	-0.9481626420599697	-2.309137714658166	0.25706559365813486	-0.02416005149103828	0.9660919068438265	0.27997456152810263	-0.9549532646055335	-0.09837940494016244	0.9249494718385092	0.2957711181491258	-0.23872142805889573
134														9.5030161662837	-0.9642698944829299	-2.3614207460507415	0.25723909124993694	-0.024040155719637885	0.9660487155655673	0.27989666112859934	-0.9549847291150684	-0.09829560644343088	0.9249248126317993	0.2956792824497438	-0.23893064455618918
135														9.472026416177915	-1.01506935856547	-2.3651862071414773	0.25743266610258947	-0.02393348790191993	0.9659997984369159	0.27986842733612816	-0.9549983106747121	-0.09824403284092728	0.9248794979908009	0.29564406769846663	-0.2391495336206813
136														9.448514283167796	-0.9893563653108554	-2.368312073659662	0.2575425655645742	-0.023865228927139992	0.965972193062861	0.2799323267446422	-0.954981250721191	-0.09822781283486579	0.9248295623333788	0.29570468650199944	-0.2392676723149334
137														9.449024140962182	-0.9660350327065944	-2.375517062922563	0.25744103378348876	-0.023842001631603466	0.9659998307881257	0.2800480128484316	-0.9549499175993701	-0.09820267499717847	0.9248228071496365	0.29580773119571335	-0.2391663888189795
138														9.456182755050975	-0.9122613027961471	-2.3671469447716955	0.2574477590801894	-0.023791233728351124	0.9659992901354909	0.28010247572470565	-0.9549374374504279	-0.09816869994301285	0.9248044411860704	0.2958521045274033	-0.2391825198655349
139														9.419430181611615	-0.9702565417712575	-2.392158611767547	0.2575528716735209	-0.023696880496069606	0.9659735897774213	0.2799709537061339	-0.9549856708978972	-0.09807463209500876	0.9248149995396922	0.29570395031931596	-0.23932486371447248
140														9.488905766578734	-1.0228753597455562	-2.3967737410397576	0.25794484980568744	-0.023530721480111982	0.9658730556368921	0.2798694095580703	-0.9550222802351992	-0.09800794788167921	0.9247364857365251	0.2955989671852496	-0.2397575495092391
141														9.540093618018993	-1.0894555181170518	-2.3669767731560363	0.2582892828633427	-0.02334447053423766	0.9657855259080125	0.27986416595819225	-0.9550316805222553	-0.09793129127792784	0.9246419279756167	0.2955833636967971	-0.24014116709806638
142														9.522855490072555	-1.0335442833988988	-2.355928716864266	0.25841943808567813	-0.023286417693658384	0.9657521093792542	0.2800548994289709	-0.9549723510786041	-0.09796459554978162	0.92454780694419	0.2957795655997888	-0.2402619429878332
143														9.505854569932204	-1.0015396361367752	-2.334455853790093	0.25825547253919146	-0.02335692286805008	0.9657942664241154	0.2802571885970547	-0.9549057820566274	-0.09803497148719993	0.9245323245529246	0.29598885375797035	-0.24006369843816255
144														9.442541995711377	-0.9419681969865271	-2.3068397654979766	0.257946421759724	-0.023525726350272946	0.9658727575105568	0.28027669534980987	-0.9548924432254602	-0.09810910209914864	0.9246126851526235	0.2960185164320019	-0.23971737605824933
145														9.383794495399915	-0.9522796644178021	-2.337485649481418	0.2577214797942614	-0.023646468065738196	0.9659298542858443	0.28012615540035346	-0.9549356725513832	-0.09811828753833124	0.9247210259928522	0.2958694067267747	-0.2394834404502183
146														9.400731581115933	-1.0085331446009864	-2.3495877874033737	0.25778196906478956	-0.02367357221983271	0.965913049090565	0.28009489909429464	-0.9549409528292594	-0.09815612110766778	0.9247136334706203	0.29585019619378083	-0.23953571233881732
147														9.41225653535696	-1.0024156099976904	-2.4090687991681774	0.258061624826666	-0.023612942379870272	0.9658398556406679	0.2801942878481998	-0.9549062123170148	-0.0982104207078497	0.9246055152599196	0.29596715126942313	-0.23980843713347783
148														9.441823747843925	-0.97475711799554	-2.401818433181936	0.2582900062095229	-0.023517235809684706	0.9657811410004631	0.28032536914976247	-0.9548665373935175	-0.09822211144729105	0.9245020065437035	0.2961027446444669	-0.24004000606290543
149														9.470771044062847	-0.9933450478816261	-2.378767953594964	0.25839546033974514	-0.023480438693889855	0.9657538273672819	0.2803883003290758	-0.9548466856479183	-0.09823547193227951	0.9244534531897122	0.29616967418344536	-0.2401444085955129
150														9.506595035649024	-0.9817011459086794	-2.339224215887257	0.2583540806867261	-0.023469282658489854	0.965765169057164	0.28065684674224384	-0.9547630926806008	-0.09828108277626714	0.9243835261238798	0.2964399258306322	-0.24008012621687785
151														9.471776815036435	-0.9635878538339062	-2.2814004175089524	0.25822374981329077	-0.023528145253138816	0.9657985925716137	0.28090162978219513	-0.9546828225827717	-0.09836148967506715	0.9243455898191268	0.2966936713958337	-0.23991268398230103
152														9.454988612979529	-0.9316570999553362	-2.259033704548847	0.25812593706490083	-0.023577197851921056	0.9658235430738986	0.2810080629044248	-0.9546468554231365	-0.09840655472792788	0.9243405590998754	0.2968054870991593	-0.2397937314250752
153														9.461218567240067	-0.9245818822354532	-2.235870147147779	0.25816540470554966	-0.02353219618784183	0.9658140916117328	0.2809540023342345	-0.9546675056771203	-0.09836057226653448	0.9243459700705112	0.2967426314953787	-0.23985065825968283
154														9.4540956427161	-0.9778915550332397	-2.2442370533903473	0.2583304089437761	-0.02345950645760131	0.965771738751817	0.28087055220439505	-0.9546963005582576	-0.09831941112911496	0.9243252310303665	0.296655735250717	-0.2400380012071357
155														9.459159677717494	-1.001623604048598	-2.3187587459364933	0.2584599923292222	-0.02343794220490425	0.9657375912898792	0.28080650743991886	-0.9547148151783718	-0.09832256637375936	0.9243084646072289	0.2965978498643021	-0.24017405711545897
156														9.470867927459365	-0.9950742861990379	-2.3776592194968864	0.2585134007041114	-0.023429871827850585	0.9657234918766998	0.2807081848859626	-0.9547454372564423	-0.09830597629866228	0.9243233939452274	0.29649990074894694	-0.24023753299899003
157														9.453363179390498	-0.9856667158905721	-2.349291709341397	0.2584701347291645	-0.02341927916168743	0.9657353295891348	0.28077248986046877	-0.9547272987781703	-0.09829849391161395	0.92431596242337	0.29655913799997063	-0.24019300422384054
158														9.478079190093359	-0.9417275988687844	-2.3690063414676867	0.258383492535091	-0.023428395613268427	0.9657582932930768	0.28094079746497785	-0.9546751853100632	-0.09832374521415861	0.924289045215354	0.2967261377637378	-0.24009031647008278
159														9.490568835487924	-0.9276337205802696	-2.3226005598467094	0.2582791642672718	-0.02343075306475076	0.9657861425368547	0.2810638638059897	-0.9546388396930557	-0.09832492162185456	0.9242807894616479	0.2968428634148283	-0.23997778370473777
160														9.45006886341659	-0.8926016076516188	-2.2952308444264395	0.258227642997002	-0.023421290789533644	0.9658001488558411	0.2809874827977905	-0.9546660132132376	-0.09827938607105549	0.9243184077487444	0.29675620693305527	-0.23994006489857295
161														9.449314660704351	-0.9387454831314245	-2.279875677022373	0.2582385072251252	-0.02338946877717668	0.9657980151856084	0.28091282183950456	-0.954692862394735	-0.09823199590110321	0.9243380658137509	0.2966723297560274	-0.23996805796777454
162														9.437194773570404	-0.9528601982377325	-2.324823512184969	0.25823144650435514	-0.023369472873644798	0.965800387126593	0.2808634593511877	-0.9547109678124	-0.09819717480658492	0.9243550385201309	0.29661563626403664	-0.23997276321726324
163														9.46706872427964	-0.9478402256745442	-2.3073911287647038	0.2581733126791383	-0.023396643011158957	0.9658152710099839	0.2807830550822868	-0.9547358984667773	-0.09818472466475213	0.924395703472781	0.29653323806049814	-0.23991794873751843
164														9.43147898784703	-0.9595336405383885	-2.3460741258857465	0.258115998168419	-0.023376600632748018	0.9658310753089163	0.28056449588945453	-0.9548098819488741	-0.09809002487038879	0.924478066335712	0.2962965134382013	-0.23989306156816792
165														9.418667768633934	-1.0197153366546952	-2.3755277052511143	0.258061290765106	-0.02339501930161919	0.9658452481016431	0.2803324777298736	-0.9548841197888794	-0.09803070796871372	0.9245637198908887	0.2960557225369815	-0.23986024475645917
166														9.495427245877815	-1.0424807135046579	-2.361745304680639	0.2580173170185034	-0.023414959953713343	0.9658565130333486	0.2803668877730579	-0.9548725059422969	-0.09804542638964775	0.9245655587134006	0.29609160245748994	-0.23980886262841294
167														9.485075971012716	-0.9798578873525073	-2.324747599544781	0.2578831687924293	-0.023470643858804735	0.9658909877053563	0.2805007320201288	-0.9548283415412475	-0.09809269863635695	0.9245623886951857	0.29622958506274216	-0.23965062558609845
168														9.46272428805249	-0.9317604813676533	-2.33214518576127	0.2577147500268064	-0.02357423842246581	0.9659334153560597	0.2805043122797893	-0.9548221526446663	-0.09814269005610482	0.9246082621364919	0.29624130721728686	-0.2394590768526636
169														9.456184409710081	-0.9859497915626149	-2.3377907111363196	0.2576125774269482	-0.023705621706308938	0.9659574542654359	0.2802925117634213	-0.9548799605420424	-0.09818537979037233	0.9247009612846722	0.29604442986610086	-0.23934457951760346
170														9.425781460627427	-1.0377048909715367	-2.3387351234905296	0.2576131831000211	-0.023753255697007786	0.9659561225733125	0.2801762725101131	-0.9549123052901923	-0.09820257393627814	0.9247360186644699	0.2959362634912523	-0.2393428999060182
171														9.473403857840097	-1.0195665729418069	-2.3577233016946333	0.2577388484197475	-0.023767784497851135	0.965922242437416	0.28023459320735566	-0.9548880701657408	-0.09827179770949192	0.9246833289214046	0.2960132866531689	-0.23945119615407762
172														9.462377174236853	-0.9648702892510034	-2.4259307479578047	0.2578260930247516	-0.0237432570722578	0.965899561807123	0.2803374702922836	-0.954854782927729	-0.09830181214078447	0.9246278216156566	0.29612261187494576	-0.2395303534641176
173														9.462348442457294	-0.9652494413355178	-2.4258919846760585	0.2578165297834471	-0.0237436530669711	0.9659021047235878	0.2804290768114176	-0.9548257113375617	-0.09832290601592181	0.924602709194126	0.2962163059450898	-0.23951144073536018
174														9.492280214872721	-0.9606423276492115	-2.4080174488825725	0.2577145492926546	-0.023762798409221214	0.9659288485673504	0.2805395909535744	-0.9547916767990645	-0.09833815039359133	0.9245976146359484	0.29632445617429914	-0.23939730090901368
175														9.503880932924504	-0.9929430956972096	-2.346388694880267	0.2576003953749527	-0.023773731157209765	0.9659590291567923	0.2806762911909105	-0.9547504682740883	-0.09834817178638533	0.9245879384168838	0.29645632568267766	-0.23927137542285093
176														9.511207649792034	-0.9395855748482786	-2.337259126674218	0.25746999138032023	-0.023785751393097465	0.965993499755192	0.280876066878277	-0.9546894259870256	-0.09837039678457091	0.9245635935908401	0.29665188005342225	-0.23912302998072454
177														9.540410883285784	-0.9816440547141482	-2.3034801608667843	0.2573405046635305	-0.023855413044707535	0.9660262853193936	0.28101230199394434	-0.9546428404829246	-0.09843339495698725	0.9245582462925656	0.2967961697582373	-0.2389646058085924
178														9.529631433576522	-0.9504013082104015	-2.3615072335114666	0.2571588945541477	-0.02394392055135605	0.9660724567134285	0.281148290451139	-0.9545960983682891	-0.09849836423231657	0.9245674349273236	0.2969393501182867	-0.23875108507238002
179														9.565731757804024	-0.9472654670972418	-2.423103502677961	0.257022396292801	-0.024070973515113808	0.9661056236447135	0.28130837573540324	-0.9545361802736867	-0.09862189558931068	0.9245566967714934	0.2971216397076363	-0.2385658099402136
180														9.584150015110307	-0.9354514254466839	-2.4566417146470862	0.2569061347554329	-0.0242987520664896	0.9661308444372504	0.2814507627599161	-0.9544709481836176	-0.09884673598722059	0.9245456754897968	0.2973125959684136	-0.23837053973097877
181														9.632280308143743	-0.927511556223069	-2.57603691310386	0.25672421767941467	-0.024622138667629745	0.9661710129911394	0.28154037019125694	-0.9544149874082799	-0.09913148724306886	0.9245689244234105	0.29746559817546087	-0.23808931494851415
182														9.632518246603807	-0.9620143758205488	-2.6678704450317356	0.256408743269394	-0.02506322283034279	0.966243443049611	0.28155450217600003	-0.9543755407443677	-0.09947054605922763	0.9246521609121103	0.29755530929602436	-0.23765356978238827
183														9.668507591245156	-1.008218772038586	-2.71074343101658	0.2559026479119531	-0.025624184980253345	0.9663628903966406	0.2816146843623042	-0.9543151092769991	-0.09987913574490724	0.9247740288001018	0.2977013156667729	-0.2369956166411134
184														9.640668943038394	-1.018028449962082	-2.7193607647999696	0.255163086190695	-0.02627514196898237	0.9665409543108613	0.2820357846643654	-0.9541366787066712	-0.10039429523313932	0.924850050340268	0.2982160546669358	-0.2360499293041442
185														9.602520633777438	-0.9572285604374983	-2.587052286083413	0.2542626960502713	-0.0269405894689958	0.9667598905810643	0.2826957676276343	-0.9538845812363589	-0.10093219825684835	0.9248965263004673	0.29896222222648833	-0.23492127472566182
186														9.516477339441082	-0.9461808499253739	-2.530474856055371	0.25325030823214406	-0.027641982661329972	0.9670057922137153	0.28330392804179494	-0.9536486631520107	-0.10145497338461408	0.9249881976200637	0.2996500426546508	-0.2336807356216009
187														9.42842692353154	-1.0276029334309054	-2.442499236503684	0.25211971512031606	-0.028382452968146815	0.9672797349325383	0.28386586447358764	-0.953427127775418	-0.10196510681884911	0.9251247592807758	0.30028511182778855	-0.23232096629503562
188														9.38201289366522	-1.0659146085020632	-2.3005186252170136	0.25117345114622674	-0.029010498053855666	0.967507254981564	0.28450867232428745	-0.9531843745765016	-0.10244200034885328	0.9251846911895836	0.300994915348865	-0.23116087065626895
189														9.299691482583594	-1.0930092499309116	-2.2087880877047925	0.2506261607645547	-0.029500636538477842	0.9676343524205022	0.2852958575162563	-0.9528947981640739	-0.10294550653580606	0.9250906989179408	0.30186290940702587	-0.23040395547785664
190														9.300504451285194	-1.0976006442422095	-2.203079924846029	0.2504365265309436	-0.029827458774243754	0.9676734309064126	0.28595094973555746	-0.9526525249691264	-0.10336934272443342	0.9249397821071648	0.30259459574324765	-0.23004979917950785
191														9.298922169767405	-1.171021656962087	-2.1770784801392007	0.25041352410750206	-0.030095570780648534	0.9676710823226295	0.2864272081635395	-0.9524686765384234	-0.1037442752000589	0.9247986382817088	0.30314629608908655	-0.22989084757720546
192														9.356549111723561	-1.2666229870261896	-2.2122997958629718	0.2502597397784766	-0.030466723070739915	0.967699251540137	0.2870453951407732	-0.9522313262718761	-0.10421344632523538	0.9246485839358043	0.3038540439945406	-0.22955983135922808
193														9.363132587972883	-1.2648461752515365	-2.1835261099773176	0.24969168333477204	-0.031093499468229563	0.9678260471615068	0.28800259221670244	-0.9518686895832794	-0.10488329069718567	0.9245044997997076	0.304924895805229	-0.2287186869677738
194														9.418713675627194	-1.1912936497448345	-2.0817506894234534	0.24891303959049343	-0.03193320214637377	0.9679992610134057	0.28905553042310717	-0.9514573453267475	-0.1057157526369351	0.9243858496610801	0.3061195691628621	-0.22759967118145424
195														9.413933899077668	-1.1746527014816548	-1.9977496322077246	0.24818553705611512	-0.03285579942994238	0.9681551712612951	0.2898071976975374	-0.9511333472238961	-0.10656990176109173	0.9243461079914107	0.3070274454222092	-0.2265356934318391
196														9.438606874648404	-1.1853982884696266	-1.9935766811656928	0.24771584541471092	-0.03375885612197757	0.9682443904117445	0.29032681066368204	-0.9508780166791512	-0.10743063067011373	0.924309040819319	0.30771957531112554	-0.22574645075839161
197														9.47103353130745	-1.1523349475532831	-2.0883350597256154	0.24752968769653516	-0.03461090211546791	0.968261916613273	0.2910823325747335	-0.9505380327981301	-0.10839060783625332	0.9241212741689845	0.30867383053801906	-0.22521176028191392
198														9.551583771633792	-1.0467155987949388	-2.115549217865516	0.24740287845886727	-0.035461007909909914	0.9682635656928748	0.29207256253181973	-0.9501157403632701	-0.10942439458389014	0.9238427539069421	0.30987513103178826	-0.2247041815847423
199														9.55340990962408	-1.010494904570274	-2.124894222888576	0.24701986839070278	-0.036411161592017155	0.9683260876026017	0.29280381610276596	-0.9497768283472245	-0.11040788744625972	0.923713759719914	0.31080251550817334	-0.22395242007599325
200														9.524717607118593	-1.0807345112183402	-2.2203586789802245	0.24634710471643928	-0.03742334649978463	0.9684588773585509	0.29345695906219826	-0.9494668352604546	-0.11133616626444469	0.923686157293588	0.3116283393359048	-0.22291626442893564
201														9.455093878106416	-1.0823433395192845	-2.193646387383341	0.24558108973228188	-0.03844318282851475	0.9686134678291016	0.29436091454517244	-0.9490734733430257	-0.11229957339515927	0.923602501270993	0.3127005978417989	-0.22175832736415302
202														9.391241759101941	-1.0203782477490502	-2.057580669527076	0.2449599053610566	-0.03935573496924594	0.9687341074260434	0.2955272311169931	-0.948596004889519	-0.11326639031931471	0.9233949861428887	0.31403303270941807	-0.2207372961995776
203														9.367719449506183	-0.9937025896724674	-1.9484347284472545	0.24455504150956547	-0.04018335296992473	0.968802420422425	0.29653446981160103	-0.9481718182361348	-0.11418192202067133	0.9231793649588402	0.3152070767715668	-0.21996444909874896
204														9.384526579305502	-1.0019641351190371	-1.8664963023229104	0.24434088192623066	-0.04088534963625745	0.968827085503204	0.29727769920037767	-0.9478433051554233	-0.1149740772094857	0.9229970221932686	0.31610355432542037	-0.21944256643868004
205														9.386339531632292	-0.9632830600995718	-1.8783444838775352	0.24431491454336468	-0.041480189430612935	0.9688083486513052	0.29808342262129467	-0.9474971420101288	-0.11573866700896614	0.9227440033346427	0.3170623909697241	-0.2191231264438302
206														9.393779802623023	-0.9163700980306932	-1.8688823169081445	0.24427057473700498	-0.04200772196020419	0.9687967989281173	0.29879099006959975	-0.9471922890693181	-0.11640752458863239	0.9225268725467465	0.3179026876629685	-0.21881967600236385
207														9.440336510917696	-0.9507059185120522	-1.8679772779159842	0.2441970034538941	-0.04250221821521627	0.9687937783403263	0.29921515835392903	-0.9469894841622304	-0.11696668712666243	0.9224088640702518	0.31844069829866206	-0.21853468638110646
208														9.445957975542544	-1.0045372672328172	-1.9298587544777026	0.24419311991438736	-0.04293586910293515	0.9687756351864207	0.29939876370925467	-0.9468737690427333	-0.11743272877770418	0.9223503133169344	0.31872649190675	-0.21836511369943906
209														9.428675194618693	-1.0321773989028296	-1.9954319619343113	0.24420148972285555	-0.04333679319888842	0.9687556734142904	0.29961406933666956	-0.9467502856127916	-0.11787835317656606	0.9222781803082298	0.31903889895643556	-0.2182135171798621
210														9.41738853868817	-0.9951894327339306	-1.9511315214045903	0.24404410619523664	-0.0437474776728376	0.9687768744291089	0.29982725869753074	-0.9466330861099526	-0.11827685836152377	0.922250556613165	0.31933048473206027	-0.21790353908896354
211														9.420325092873059	-1.0598694191236122	-1.9022811569449385	0.2441012947954086	-0.04403427708562091	0.9687494724234702	0.2997758438109074	-0.9466134104393562	-0.1185643059433548	0.9222521354524822	0.31934939113440897	-0.2178691465889992
212														9.505212431043836	-1.1735107665613373	-1.9131950521534409	0.24441147132491736	-0.04425090850829849	0.9686613906732217	0.29957178279355234	-0.9466443552133614	-0.11883270465899708	0.9222362927355886	0.31922769591448347	-0.21811441612705995
213														9.564046180793165	-1.2000671118411184	-1.975876888188849	0.24481000016110505	-0.044412949761855475	0.9685533303409628	0.2994746111407476	-0.9466411451960673	-0.11910289460788073	0.9221621446921455	0.3192147116210793	-0.2184466680484129
214														9.564130096149484	-1.1800755888744456	-1.9864275630098458	0.2451126319570771	-0.044673196128672266	0.9684648177413177	0.29929450806369495	-0.9466585374037078	-0.11941696279668038	0.9221402252900507	0.3191268072542983	-0.2186675234086961
215														9.49881110960519	-1.2007028402313364	-2.0449269717384992	0.24530946494322758	-0.04496849299021827	0.9684013119814827	0.2990121764726551	-0.9467113481732605	-0.11970522779333341	0.9221794753356605	0.3189286093754475	-0.21879112731436356
216														9.458218236090588	-1.2011060968241822	-2.1163188639113306	0.24553997092114127	-0.0452851779977215	0.9683281341228089	0.29871602311667667	-0.9467646725768335	-0.12002246578803248	0.9222141075766532	0.3187254420566344	-0.21894116189606933
217														9.457427773974276	-1.2042313207813289	-2.11807475933778	0.24587365738980482	-0.045553493583605026	0.9682308732033335	0.2983780421274229	-0.9468338291587013	-0.12031726366933902	0.9222346168833432	0.31848167793924953	-0.2192093342881034
218														9.44282346419015	-1.2685363362304412	-2.149960212497516	0.24638545771644382	-0.04573342687235962	0.968092278603837	0.2980749767415649	-0.946894087338689	-0.1205939285517608	0.9221960282208844	0.31827667371257695	-0.21966894296664663
219														9.48693761338031	-1.3230108934003366	-2.148037363383939	0.24687633503469242	-0.04589316716994701	0.9679596543280865	0.29786843672785124	-0.9469243114299601	-0.12086663238545735	0.9221314817319403	0.3181637402816457	-0.2201030775996763
220														9.468024927273492	-1.3152280607357407	-2.123182425235408	0.2471279973001011	-0.046088080082267696	0.9678861719359214	0.29780048202107734	-0.9469125385853736	-0.12112603839727272	0.9220860186872241	0.31817060383406587	-0.22028354681503265
221														9.475238335255456	-1.264004994464996	-2.1180388719101333	0.24728401333823918	-0.04628078106605005	0.9678371278532611	0.29770605756944285	-0.9469142378065578	-0.12134467242398829	0.9220746824600452	0.318137573296745	-0.22037868413951717
222														9.402701217893913	-1.280364014754809	-2.0953418655556124	0.2474611030422536	-0.04640837455673891	0.9677857537968373	0.2975517187903107	-0.9469438077398747	-0.12149238506194021	0.9220769908885282	0.31803095408168736	-0.22052286756671885
223														9.37934407418739	-1.2558747460647195	-2.1004862461303158	0.24782899877638154	-0.04644495980958405	0.9676898537619284	0.2973307267503499	-0.946999482006271	-0.12159942438170958	0.9220494706335475	0.31785979108427737	-0.22088441981329154
224														9.40197479651937	-1.2593696060297153	-2.1099942561940934	0.24838609561395059	-0.046306758700990935	0.9675536324174829	0.2971051550545109	-0.9470704629107125	-0.12159796512328576	0.9219722741740624	0.3176684157745258	-0.2214811578297589
225														9.437329987592012	-1.25743246720473	-2.179432036714839	0.24906891652352203	-0.04611498321100477	0.9673872457011451	0.296868835043564	-0.9471464084272367	-0.1215836164261587	0.9218641817543819	0.31746982427757575	-0.22221462839221262
226														9.473473834333968	-1.2320694109856651	-2.257772346593156	0.2497432034299143	-0.04585128332353369	0.9672259261197198	0.29664893784686586	-0.9472260811259363	-0.1214996251398639	0.9217525372977775	0.3172702492393294	-0.22296154137591317
227														9.468063280185094	-1.1932322117848906	-2.303116176007454	0.25036654317988144	-0.0456752577859143	0.967073091799347	0.29634349583263947	-0.9473263448285544	-0.12146328198868311	0.9216816839526801	0.3169961627842871	-0.22364325665262236
228														9.506912587662278	-1.1957128358589233	-2.2391186357247217	0.25094227008096115	-0.04551052759044533	0.9669316257962889	0.2959473317412438	-0.9474583558014729	-0.12139950929558524	0.9216524040666597	0.31662510307998326	-0.22428863140546795
229														9.492811038228712	-1.2337623803854483	-2.2817586336612066	0.25149283596403893	-0.04539230300450206	0.9667941312847905	0.29558310651301	-0.9475745271727787	-0.12138015734626356	0.9216192167065984	0.3162942526844783	-0.22489100719211486
230														9.515136062844777	-1.2365954234824557	-2.292614255946167	0.25203329148926595	-0.04526672168310025	0.9666592697994221	0.29528571738635373	-0.9476690380982062	-0.12136613752462962	0.9215669075486128	0.31602898306656246	-0.22547753052843483
231														9.535592756956241	-1.2855532661456028	-2.286887782209214	0.2525229107627782	-0.04516231716897304	0.9665363648864033	0.29504624873902097	-0.9477431669201	-0.12136968592400138	0.9215095716512799	0.31582155509747595	-0.22600189090112988
232														9.54327408492992	-1.2092979833104585	-2.2933042927863108	0.25297396951353684	-0.04505859144478941	0.9664232479020646	0.2950553622836854	-0.9477336518338288	-0.12142181998865667	0.9213829301306852	0.3158649213172082	-0.22645716492322915
233														9.55605635514413	-1.1487070344492467	-2.2684938111109263	0.25335919958444536	-0.04495387668451298	0.9663272038791844	0.2951909491815139	-0.9476837118241699	-0.12148203926704655	0.9212336400214909	0.31602963676559986	-0.22683440915909775
234														9.472474697727613	-1.1222832300576897	-2.205746512142084	0.25366837284075844	-0.04481511308545824	0.9662525354478816	0.2951875341495267	-0.947688993410307	-0.12144913112773197	0.9211496492443799	0.316033506780684	-0.2271698621931601
235														9.49462356983436	-1.1476434779823326	-2.2055586192693286	0.2538929410560463	-0.04469684242103861	0.9661990306140341	0.2949945747777852	-0.9477603572217893	-0.12136105689429164	0.9211495944381586	0.3158361878512572	-0.22744433848746526
236														9.43497220440316	-1.1561347701496125	-2.242226902609503	0.2541268718430294	-0.04449673752412814	0.9661467659506942	0.29486150666943195	-0.9478210251703956	-0.12121054463029568	0.92112769195802	0.31568234761330766	-0.22774641712536736
237														9.49363325709533	-1.1451717686666645	-2.211099513586068	0.25444042567073144	-0.044256456496908486	0.966075274418528	0.2947407199417572	-0.9478790680079257	-0.12105032193530559	0.9210797890480019	0.31554181734084585	-0.228134573698343
238														9.470177740795785	-1.1179355554520716	-2.2177846668190075	0.2548323868821047	-0.04402538077411633	0.9659825155993582	0.2945266215499114	-0.9479645166675642	-0.12090220981283827	0.9210399143329053	0.31531736550169	-0.2286054138000872
239														9.486133226754754	-1.1498738668723512	-2.2415822737237394	0.25517159561365726	-0.043819888541140134	0.9659023108783946	0.2940950436975398	-0.948123345233634	-0.12070719736422586	0.9210839060935345	0.3148681304788182	-0.22904693480649668
240														9.486456131813336	-1.125112758493105	-2.2531496609178876	0.2554136704297834	-0.04365576482158931	0.9658457595058482	0.29366969854421365	-0.9482788081700341	-0.12052140943654352	0.921152520006615	0.3144224485838477	-0.22938299569061554
241														9.474103829651098	-1.1384389720608519	-2.300575175233235	0.25558014737183377	-0.04345021839296262	0.9658109891645446	0.2933557334089282	-0.9484044580828161	-0.12029712201358034	0.9212063840125633	0.3140717472334056	-0.2296469804814647
242														9.431470270788921	-1.1459612421701326	-2.2620944971625123	0.25582749365208296	-0.04317523861859847	0.9657578331351607	0.29308765228689504	-0.948519537939657	-0.1200429682392769	0.9212230574451824	0.3137619876864739	-0.2300032467474828
243														9.490154962886814	-1.1340785957092023	-2.231653439677321	0.2561754444510147	-0.042874438649223606	0.965678996442834	0.29281763186402343	-0.9486341040571027	-0.11979637343977953	0.9212122318607533	0.3134567260887726	-0.23046237163545347
244														9.568105429501081	-1.0864402826248578	-2.2461692089131526	0.25662172069278805	-0.04247155893233573	0.9655783029617688	0.2927074257949342	-0.948702706657683	-0.11952212039990324	0.9211230402900448	0.31330391166125426	-0.2310259803238181
245														9.603759899352191	-1.0482470675770004	-2.2200058469901576	0.2570348513458031	-0.0420637913598505	0.9654862622793117	0.292477997096321	-0.9488137550231192	-0.11920184349855144	0.9210807274111024	0.3130225163392622	-0.2315754690300142
246														9.57433185036175	-1.026744915148894	-2.2494404617185437	0.2572796306372407	-0.04169758181432745	0.965436949432744	0.2921071747041005	-0.9489745813720929	-0.11883030924831095	0.921130061470992	0.3125836777256589	-0.23197166696376592
247														9.520791597049298	-1.024934806181851	-2.2637646923999184	0.25735090589045323	-0.04138891688861465	0.9654312346284171	0.2915370380395551	-0.9492027932262759	-0.11840697945035956	0.9212907612086889	0.31193110599974194	-0.23221179647315865
248														9.501487867220934	-1.0564979431345058	-2.2214843339052526	0.2573392994402367	-0.04113051846537885	0.9654453715329401	0.29077139074024916	-0.949493749278306	-0.11795600200246725	0.9215359370586635	0.3110786082844557	-0.23238247820611735
249														9.39333298866143	-1.1021090852324729	-2.2299674726377576	0.25730809310894615	-0.040872409304693325	0.9654646505068257	0.28983246642854243	-0.9498428687262226	-0.11745495363707407	0.9218403802310818	0.31004511105251925	-0.23255610610741922
250														9.380536152390162	-1.1356758230325026	-2.268661857961746	0.2573809599757924	-0.04062716283177166	0.9654555790310503	0.288856682593997	-0.9501972543722079	-0.11699143004643109	0.9221262702920522	0.3089896623250668	-0.23282725401788934
251														9.381276795859884	-1.1082686080881576	-2.279260271062928	0.25752413578551614	-0.040350754486150456	0.9654289907084423	0.28794344785176756	-0.9505303711635553	-0.11653576418812482	0.9223718828797631	0.30799972420129246	-0.2331657770016181
252														9.44587386437607	-1.1194588284814728	-2.32146519229162	0.25775141681140745	-0.0400191602255727	0.9653821388168276	0.28698027212093724	-0.9508822266667303	-0.11604014142836282	0.922608546754855	0.30695513975850214	-0.2336065316525493
253														9.415822244056729	-1.1192337005153652	-2.3424015140220718	0.25794849471081494	-0.039652034166541825	0.9653446484354069	0.2860171099950615	-0.9512382583212903	-0.11549886880809875	0.9228525271496508	0.3058978458445449	-0.23402931662757454
254														9.486511496471723	-1.1219240035552036	-2.362308119758092	0.2580767290694031	-0.03923884323638273	0.9653272580292699	0.2851153497274752	-0.9515808761028364	-0.1149046282146126	0.9230956826150892	0.304883829379043	-0.23439328343737414
255														9.444450670965105	-1.1260261149887774	-2.32394994541953	0.2581132759594781	-0.03876877033382857	0.9653364797935848	0.2842303278737572	-0.95192701197962	-0.11422821271616714	0.9233583581092684	0.3038617223513951	-0.2346857392331304
256														9.450711405490155	-1.111935741564445	-2.303784511219884	0.25809704782886767	-0.038289834997861205	0.9653599341374491	0.2833194938423573	-0.9522833090666127	-0.11351900141409457	0.9236427763540048	0.3028042070529723	-0.2349332540958965
257														9.44344546695549	-1.1583843370898943	-2.312616522721057	0.2580311474295668	-0.03777572802100081	0.9653978047047055	0.2823375200856504	-0.9526673450931588	-0.11274065080988924	0.9239618237287005	0.3016586215668894	-0.2351523428041874
258														9.395166970253541	-1.1915100740429345	-2.287647684434217	0.2578819290064904	-0.03719457808795461	0.9654602394986291	0.2814497892729772	-0.9530298766267606	-0.11189312032014219	0.9242742703386739	0.3005837946690409	-0.23530077682037448
259														9.33730045131863	-1.1698558710742089	-2.3306777325610097	0.2577421652750782	-0.036615799611566094	0.9655196836202354	0.280666589380603	-0.9533562053267661	-0.11107750163920961	0.9245513732858622	0.29961847236736633	-0.23544326104493107
260														9.34552707724009	-1.1081939864539694	-2.3248919542527853	0.25760545303111415	-0.035939668215008755	0.9655815712912238	0.28003437371556056	-0.9536433228089148	-0.11020509243998179	0.9247811525471133	0.2987854633521622	-0.23559937772215267
261														9.286795756354717	-1.1088829276509808	-2.360684960096033	0.2575474283784049	-0.03516996882525961	0.965625390836685	0.27935194827413334	-0.9539530417665696	-0.10925238258159535	0.9250036816851683	0.29788700441130295	-0.2358633533886602
262														9.3041289750563	-1.1322908263809706	-2.3838455387711757	0.25757505383195295	-0.034284098017448514	0.9656498807883721	0.27863300514826955	-0.9542829181065234	-0.10820240594433819	0.9252128079990632	0.29693216874099204	-0.23624679274280153
263														9.32286995670473	-1.1088150525412652	-2.422733289913314	0.2575551711164052	-0.033360148860599875	0.965687544860758	0.2780887682950465	-0.9545610657985555	-0.10714386874511528	0.9253820674615127	0.2961423173569173	-0.2365750559360213
264														9.370788028260103	-1.1043019232505529	-2.4357265756686317	0.2573989647536323	-0.0325576295035922	0.9657565809793195	0.2777619316136998	-0.9547597240263354	-0.10621760081729487	0.9255236800266023	0.29559071389044456	-0.23671089449316146
265														9.35486461849564	-1.0629679184246594	-2.415027721403526	0.25700840609132386	-0.0318963050759281	0.965882655875392	0.27758024507980666	-0.9549038095404374	-0.10539412728703229	0.9256867109016053	0.2951971210016521	-0.2365645218804045
266														9.360973568303462	-1.0945961176856494	-2.375046016941378	0.2565461391015362	-0.03135237543076873	0.9660233470610036	0.2773577225570359	-0.9550498676651975	-0.10465392496540106	0.9258816189179211	0.29478259586946043	-0.23631853275270814
267														9.32557429304933	-1.1459746490405525	-2.3967381951929103	0.2560816392026702	-0.030866895639187028	0.966162216616275	0.27694156171405276	-0.9552505646272482	-0.10392175024847121	0.9261347447637712	0.294182925291261	-0.23607380415544071
268														9.305369955088372	-1.2999104684476286	-2.4164108633792445	0.25568112705455115	-0.03038731246508053	0.966283484547503	0.27648920710186925	-0.9554591045144485	-0.1032066759305241	0.9263805263628411	0.2935549536996406	-0.23589109676735953
269														9.280445190859961	-1.4150372210941102	-2.4745179528318144	0.25533601566360314	-0.029918540223517337	0.9663893625531739	0.2761257577314037	-0.9556356949911924	-0.10254259786039428	0.926584094954308	0.29302781337203154	-0.2357469311955332
270														9.338725864348188	-1.5007233187812283	-2.5127949393755644	0.2552641813275545	-0.029394798515207057	0.9664244117112438	0.2762172298806578	-0.955664606079498	-0.10202549977321258	0.9265766237328833	0.2929865295660678	-0.23582759347583254
271														9.546256227621042	-1.471290082965512	-2.4998845131877876	0.2558675938257499	-0.028695539938855485	0.966285848192676	0.27704611085742276	-0.9554556920814014	-0.10173432522029197	0.9261626352259081	0.2937362532219492	-0.23652016120097102
272														9.765464389484416	-1.382720472172071	-2.4616607081463897	0.2568225584311861	-0.027865788011388698	0.9660567640358226	0.2785443444183572	-0.9550345183783191	-0.10159781935868667	0.9254486596637375	0.29518225990800506	-0.23751255074668226
273														9.862780557858699	-1.197617917332173	-2.4481395594623563	0.25725285669934844	-0.027163869757595716	0.9659622621509688	0.28040423373458273	-0.9544985796790719	-0.10151811214929174	0.9247672320231434	0.2969757322920967	-0.23793062225326717
274														9.88973425617982	-1.051957305969591	-2.3956602862502874	0.2567909140994403	-0.026827189598656875	0.9660945752534851	0.28208440357998427	-0.9540084546377716	-0.10147047716738032	0.9243845605011469	0.2985769086481555	-0.23741317134736362
275														9.751097694688122	-0.9908742445233202	-2.3688511353831725	0.2556080631318159	-0.026836334387483618	0.9664079517567332	0.2832478620365579	-0.9536711956784393	-0.10139970012270494	0.924356623124279	0.29965156714073526	-0.2361647128518159
276														9.607727175692181	-0.9374389925877314	-2.359570513210828	0.25411561647401976	-0.026991640810931555	0.966797137351142	0.28446420058349053	-0.9533107089039201	-0.10138447058352397	0.9243945975882945	0.300782552046224	-0.23457298295868606
277														9.441237010926752	-0.8269803902225891	-2.2570326094737845	0.25283600406908635	-0.027062971974822214	0.9671305757726139	0.286039881696029	-0.9528329884757498	-0.1014420137403349	0.924259239134616	0.3022861088774384	-0.23316939604939335
278														9.416783849369583	-0.6843025007660037	-2.2070160839013995	0.2520588119411173	-0.02689625030676293	0.9673380727761461	0.28751854621877737	-0.9523923955436311	-0.10139926277298499	0.9240126843842965	0.3036862140929351	-0.23232572493554543
279														9.437252202452154	-0.6464052865497849	-2.2443945313267823	0.25156496370084214	-0.026580734702142506	0.9674753400376098	0.28821231414414594	-0.9522141789233702	-0.10110301396579874	0.9239311289343327	0.30427228266798584	-0.23188283029612866
280														9.461417501165561	-0.7238125750871552	-2.325245625262361	0.2510917478598734	-0.026226052269446326	0.9676079414406613	0.2882958848154141	-0.9522398786856504	-0.10062154957679509	0.924033774791361	0.30422262838766323	-0.23153871257681835
281														9.55587411835014	-0.8534347818750622	-2.4064069900728953	0.2505452244310094	-0.025861973000811722	0.9677593961658654	0.2883975639802059	-0.9522628286150802	-0.10011168926898416	0.924150385816669	0.3041819580292557	-0.23112637409951714
282														9.509846252931977	-0.8673868047878363	-2.381886412188158	0.24973254371189357	-0.025564842528860543	0.9679773217579335	0.2889296540415597	-0.9521458804784175	-0.09968890260908558	0.9242041504054241	0.30457291592400937	-0.23039537160918533
283														9.477121356227467	-0.8208613474271206	-2.3250586006609604	0.24860406981885114	-0.02544163179604947	0.968271005370427	0.28944881209076767	-0.9520256067988864	-0.09933090746819351	0.924345931807322	0.30495896014179613	-0.22931339032094739
284														9.48491573568286	-0.8555181543990873	-2.2757729322440245	0.24739481853368178	-0.02529048651652438	0.9685846349465	0.28967349195636977	-0.9520077671131165	-0.09884573543710308	0.9245999523147782	0.3050272162415287	-0.22819580524508803
285														9.444089235117698	-0.931012037725476	-2.2008470984957413	0.2463799888549706	-0.02509872408882735	0.9688482621860541	0.28978895748278594	-0.9520232713528123	-0.0983567533203974	0.9248347210247161	0.30499466364479616	-0.22728614989772933
286														9.456788585721052	-0.9573137072785681	-2.1323405462473968	0.245658444168327	-0.024787741606117825	0.9690394711645468	0.28995481860837835	-0.9520241551639463	-0.09785811744641307	0.9249746655852681	0.3050173369670024	-0.2266854476471279
287														9.445614192195915	-0.9584625100010892	-2.0688767851457066	0.2451135287802953	-0.024490890596431808	0.9691849948728388	0.2900510145943732	-0.9520404456656448	-0.09741354500034789	0.9250890589244074	0.3049904688585427	-0.22625438551285632
288														9.49492959086738	-0.9357893211645144	-2.0829404899430135	0.2446036562579515	-0.02423769523359587	0.9693201666503208	0.28996387089541303	-0.95211140391343	-0.09697849304534568	0.925251319869683	0.3047891216361917	-0.22586187463059942
289														9.454510442505601	-0.9986044243564867	-2.1253101978474316	0.24411948342089773	-0.02405844578280006	0.9694466818762287	0.2897600601481132	-0.952212313441793	-0.09659615765024143	0.925443021129489	0.3044879329568653	-0.22548240136733422
290														9.463503023647236	-0.974139508063002	-2.209672042837805	0.24362600083899144	-0.023928486568051133	0.9695740297913107	0.28962745628719644	-0.9522849929868855	-0.09627683364431162	0.9256145570807575	0.3042707998847884	-0.22507103780287507
291														9.44661550057716	-0.961858353980967	-2.177836889710031	0.2432020921040176	-0.02387104843409235	0.969681863006051	0.28956846755710297	-0.9523238935971046	-0.09606926813857543	0.9257444814811805	0.30415353808678225	-0.22469486036941827
292														9.423444714844562	-0.9807881523925237	-2.1610581999076617	0.2428244217809144	-0.023815354735139044	0.9697778761477313	0.28941854479010287	-0.9523909155692898	-0.09585640235617827	0.9258904935889255	0.30394797716045063	-0.2243711680714045
293														9.465224982032414	-1.0374918983443242	-2.1752133941512457	0.24257330376221503	-0.02377423591964442	0.9698417283290723	0.2893599617334436	-0.9524223450567109	-0.09572089208890962	0.9259746242999887	0.3038526984298703	-0.22415292282141247
294														9.524166709841147	-1.0490516442022975	-2.130180216116465	0.2423445192259122	-0.023754520219258307	0.9698994054902367	0.28946925993651296	-0.9523958279614443	-0.09565424419983946	0.9260003680090895	0.30393734494265073	-0.22393170565206516
295														9.536157898318976	-1.0336833794125762	-2.0818184863102798	0.24198115441403262	-0.023818541768701434	0.9699885555904589	0.2897187162473702	-0.9523193717905019	-0.09566022981636349	0.9260173790833669	0.304171811942784	-0.2235426636125994
296														9.500441502072357	-1.0373208360700366	-2.0135712099327034	0.2414613925011938	-0.023943820524108983	0.9701149877154225	0.2900034674825976	-0.9522302891435228	-0.09568419559004401	0.9260639204609231	0.30444074940183863	-0.22298306062163686
297														9.472651425357942	-1.0198767600458787	-2.0335722416541913	0.24104643030963563	-0.024049771540040676	0.9702155569376598	0.29023117055734743	-0.9521584170454137	-0.09570901988048733	0.9261006889490437	0.3046571143735912	-0.22253439417236748
298														9.432372521600927	-0.9622163417034914	-2.012992288330492	0.24086751286024594	-0.024111989038973353	0.9702584466177574	0.29060109356575914	-0.9520363168701225	-0.09580112618730773	0.9260312336346458	0.3050335446224824	-0.22230764941436426
299														9.444216662050563	-0.924943203723694	-1.9744125170443665	0.24088155231157365	-0.02416674012786124	0.9702535990283978	0.2907950585946615	-0.9519665344374452	-0.09590594980546314	0.9259666903581867	0.3052469262462	-0.22228360795243768
300														9.456611465389344	-0.9434823265644484	-2.025059664697861	0.24107808443596396	-0.02418050258954349	0.9702044426301103	0.29082771806277463	-0.9519479980288871	-0.0959908717284761	0.9259052843628689	0.30530363958412055	-0.22246143945772695
301														9.479958997914254	-0.9468446986924678	-2.031609594498782	0.24128175389390016	-0.02426282486515466	0.9701517564625889	0.2907179272155902	-0.9519693977251981	-0.09611114706523302	0.9258867112305665	0.3052303738560218	-0.22263920778326296
302														9.49353846136856	-0.8963329211961311	-2.1070659672194525	0.24149627734245782	-0.02431324785886546	0.9700971157612458	0.2906727641658905	-0.9519722777767592	-0.09621915878186413	0.9258449612121326	0.3052173788025222	-0.2228305622553206
303														9.493582265970131	-0.8746220366213432	-2.1163960882802195	0.24167585319512724	-0.024420232126756508	0.9700497071002511	0.2905860953452699	-0.9519843523080349	-0.09636137272082135	0.9258253092103269	0.3051711736444428	-0.22297545067131547
304														9.493643348727495	-0.852938603414714	-2.1256557257648407	0.24187691346095425	-0.024494995593784985	0.9699977082062943	0.29048120631345603	-0.9520049042476995	-0.09647450993401767	0.925805718017167	0.30510106109155033	-0.2231526719703994
305														9.511480698133377	-0.8634818642460073	-2.154466929760968	0.2419972111021993	-0.0244831820777949	0.9699680013351487	0.2903672275552095	-0.9520396921098928	-0.09647433756809	0.9258100361200773	0.30499343999936485	-0.22328183664753198
306														9.510258388179551	-0.9095062448904213	-2.139768511580887	0.24214737590067553	-0.024450705385089255	0.9699313436272635	0.29009146578270123	-0.9521288067142337	-0.09642446217103481	0.9258572189190194	0.3047177356687677	-0.22346255110071173
307														9.556935460281354	-0.9364130065906925	-2.144012078669666	0.24234468065929532	-0.024296797457094177	0.9698859321536077	0.28991501710001777	-0.9521957018499283	-0.09629448706140191	0.9258608635297423	0.304520953321526	-0.22371555683972538
308														9.57513478329884	-0.9224310874437593	-2.1818260688282582	0.24256412860106547	-0.024157702154020466	0.9698345472000074	0.28993578247497725	-0.9521955132016482	-0.09623381255708506	0.9257968921726991	0.304532609198567	-0.22396429264077866
309														9.568685310070785	-0.9526849214885326	-2.198151775856583	0.24271306303097817	-0.024023242547854956	0.9698006253099688	0.2900622974115781	-0.952162365182315	-0.09618052791878508	0.925718225301002	0.30464686794369955	-0.2241340072315141
310														9.551455928490924	-0.8964092865733558	-2.1866340697145294	0.24266426046587308	-0.023984890294626388	0.9698137871416895	0.2902191291129824	-0.9521161359172716	-0.09616507070067606	0.9256818642435712	0.3047943384702523	-0.22408368402681256
311														9.444974017422355	-0.9255239293879164	-2.20207076234285	0.24256359048852316	-0.023951715471319412	0.969839790839341	0.29029959486413204	-0.9520962136502055	-0.09611943182657083	0.9256830179878188	0.30485917286334513	-0.22399070277589683
312														9.444308813670617	-0.9711847349003188	-2.1851946345210314	0.2424908907618048	-0.023862782460403964	0.9698601628641081	0.2904065777366175	-0.9520721577104767	-0.09603450483978945	0.9256685084331502	0.3049412634029134	-0.22393891660312754
313														9.432561114937304	-1.0092843913061817	-2.2225790679381663	0.2426732228988568	-0.023754791593460695	0.9698172079130338	0.29062982784115765	-0.9520033244922632	-0.09604151875463673	0.9255506523453487	0.305164513061446	-0.2241218639737536
314														9.484235894042698	-0.95044690617053	-2.125867727214116	0.24308780980393768	-0.02355472495964464	0.9697182537504386	0.2909039473048155	-0.951919162221489	-0.09604583300703709	0.9253557208810036	0.30544243897601075	-0.22454778178638118
315														9.531180555271485	-0.9321170206446417	-2.148630238809141	0.24361426856900925	-0.02334336384593219	0.9695912414589681	0.2911284489648992	-0.9518487363198418	-0.09606356941948571	0.9251466447828035	0.3056780504561567	-0.22508801637680453
316														9.536274020658695	-0.9019060038505392	-2.1383439400087583	0.24399458933079293	-0.023262953010160264	0.9694975375907589	0.29120293177445555	-0.9518196330938766	-0.09612615972252303	0.9250229688517251	0.30577478815998765	-0.22546460037543642
317														9.500137099962059	-0.9387980009987155	-2.1726608738739834	0.24420629721016957	-0.023274168187494476	0.9694439630520576	0.2911716492840215	-0.9518219198679765	-0.09619825108630063	0.9249769483917542	0.30576681630618513	-0.22566412871756675
318														9.482839607374325	-0.9625071821367035	-2.2412951871427356	0.24432641093156304	-0.023287490097304298	0.9694133781448809	0.29118065473233506	-0.9518136790488887	-0.09625251521424605	0.9249423934661826	0.3057914537399434	-0.2257723534639755
319														9.47081609709527	-1.0016173863827966	-2.2790668773895484	0.24446519964698832	-0.023269033863563326	0.9693788311205355	0.2913497278223318	-0.9517550370265738	-0.09632074331315812	0.9248524759438191	0.30597532834789554	-0.2258915584588902
320														9.476572193096748	-0.9715758488806009	-2.2657519510703206	0.24466913894376824	-0.02317308656846037	0.9693296758623485	0.29165441169022466	-0.9516570031082724	-0.09636727959536152	0.924702501667506	0.30628737566845987	-0.2260825665901371
321														9.52932497682713	-0.9687615547748101	-2.2552118626172533	0.2448679513903163	-0.023030161060762888	0.9692828782473284	0.2919598470364375	-0.9515634351857003	-0.09636636620756227	0.9245534782263112	0.3065887155443026	-0.22628350669132963
322														9.553366271157959	-0.9481154055934558	-2.2690062629394805	0.24487909747197373	-0.022937125838029898	0.9692822684231887	0.2923639572863551	-0.9514382157620043	-0.09637758073056499	0.9244228167354883	0.3069840547095315	-0.22628134269736294
323														9.588197406664392	-0.9583424675441645	-2.220241028883898	0.2447564879700781	-0.022870455646408522	0.969314811531877	0.2928696306081833	-0.9512808265797734	-0.09639589435826106	0.9242952131564779	0.3074763913542443	-0.22613409228993375
324														9.57150885673799	-0.902823853605537	-2.2062108085044323	0.24451688269108796	-0.02292237746035594	0.9693740550946255	0.29327338035366335	-0.9511491918999317	-0.09646729561899611	0.9242306089147712	0.30787948837113566	-0.22584951225397742
325														9.507111603805779	-0.8658373546226704	-2.172728609697671	0.24418047801143683	-0.022988109713562188	0.9694572919783025	0.2935687878097981	-0.9510553562950371	-0.09649391735444243	0.9242257629940817	0.3081643329042436	-0.22548056001281036
326														9.478026056329439	-0.8947429785246039	-2.1784881234572557	0.2439218200349244	-0.023049034621317244	0.969520957851802	0.29380001063813926	-0.9509807549284763	-0.09652542413631127	0.9242205902596412	0.3083899248657304	-0.2251931499433985
327														9.478466756837054	-0.8950334649815442	-2.1764502497685942	0.24385994251927373	-0.02302700692850071	0.9695370469385945	0.2939883726293959	-0.9509221324504762	-0.09652945029656876	0.9241770204853695	0.30857228483412613	-0.22512214426624272
328														9.497043587831856	-0.8819937802910791	-2.2120986773968068	0.24396776388858232	-0.022946685356087765	0.969511825515488	0.2940384594596468	-0.95090981916131	-0.09649818745034786	0.92413262822054	0.30861621061404654	-0.22524413422867162
329														9.485193818100441	-0.9203442008193556	-2.2495599799948063	0.24402182177423576	-0.022900952087415494	0.9694993021614163	0.2940359351768521	-0.950913416895621	-0.09647042237167264	0.924119158616819	0.3086085221788031	-0.2253099214769691
330														9.503863116404645	-0.9073890970013765	-2.284782827989891	0.243935274498499	-0.022947117924002808	0.969519990322182	0.29404093249952057	-0.9509100300930411	-0.0964885728118307	0.9241404178317029	0.30861552852608287	-0.22521310726157168
331														9.499004721037318	-0.8924445632942327	-2.3138191211721373	0.24379109165841306	-0.023025301230061607	0.9695544023577348	0.29399511680266976	-0.9509223389538374	-0.09650687319951799	0.9241930398591974	0.3085717757375554	-0.22505706897137878
332														9.504559588790706	-0.9080692767694782	-2.2816132442091375	0.24366126923180859	-0.02310388477326747	0.9695851671641476	0.2939127702164798	-0.9509463201589714	-0.0965213949328664	0.9242534659821511	0.30849198803939015	-0.22491826056477932
333														9.48101504934804	-0.9062391384154816	-2.275403379588917	0.243669684704507	-0.023159274459347512	0.9695817308316632	0.2938942156333671	-0.9509467179319442	-0.0965739595942526	0.9242571475370127	0.30848660856021126	-0.2249105101273947
334														9.515164911002659	-0.9397319368515796	-2.2190278339999465	0.24365955529797706	-0.023203929300431053	0.9695832087948995	0.29393722384435983	-0.9509282497828322	-0.09662490467592244	0.9242461412149166	0.3085401779833236	-0.22488225590151895
335														9.497164964002804	-0.9302883968878949	-2.1906125416427313	0.24360085233500506	-0.02326711375914467	0.9695964450012072	0.29392748830340965	-0.950927155065046	-0.09666528528664244	0.9242647111955044	0.30853879363415226	-0.2248078211750515
336														9.526317103384784	-0.9482152721636374	-2.1640696138109443	0.24349840204942813	-0.02332624817368051	0.9696207580005265	0.2938455866935031	-0.9509520047099134	-0.09666982941408546	0.9243177480607665	0.3084577294935844	-0.22470097849261056
337														9.52182516041042	-0.9103965520304877	-2.2015447631651712	0.24346567398643643	-0.02344384575229591	0.9696261401626263	0.29372423450554863	-0.950981854233957	-0.09674495843130168	0.9243649385683448	0.30835677228510383	-0.2246454124424821
338														9.516370261268115	-0.9185055028390701	-2.2231456895388324	0.24340249205077508	-0.02347348331837218	0.9696412854475488	0.29358557999248863	-0.9510272408871216	-0.09671966868792978	0.9244256238789289	0.3082145075617482	-0.22459092422562982
339														9.528149031966556	-0.9825620767793768	-2.2561920124536656	0.24335200387245037	-0.023566665196366743	0.9696516975196742	0.2934525219811318	-0.9510639763917021	-0.09676223515875144	0.9244811623576635	0.30809401990549334	-0.22452762712926289
340														9.510301388421201	-0.9728720779649259	-2.2271919832662057	0.24320584523904692	-0.02362706155215344	0.9696868973044711	0.29341672621407866	-0.9510747379806799	-0.09676501202807798	0.9245309846724302	0.3080561713996206	-0.224374360485405
341														9.487555134465579	-0.9478369914727689	-2.2276827859437622	0.24295420253800065	-0.023751703627754917	0.9697469319590057	0.2933938211943385	-0.951078297387958	-0.09679947273931055	0.9246044133325937	0.3080355966644168	-0.22409986620586836
342														9.498584856446907	-0.9787646097981737	-2.163161795454032	0.2426077722153807	-0.02388809451092161	0.9698303087660891	0.293362807008644	-0.9510865335315772	-0.09681254670184823	0.9247052137436556	0.3079996179795126	-0.22373310662433304
343														9.451423520981196	-0.9976063117479046	-2.140993279149491	0.2422826243355744	-0.02403377287193345	0.9699079892992981	0.29338454099248734	-0.951075562443742	-0.09685445590651658	0.9247835644364006	0.3080221620011459	-0.2233779457879525
344														9.481463994965482	-0.9926144873749214	-2.1203561618948954	0.24205367371468495	-0.024123217151117676	0.9699629319904477	0.29346631064642137	-0.9510470078138726	-0.09688711701696405	0.9248175731228316	0.30810332572460297	-0.2231250705784455
345														9.476811180193579	-0.9778022371011196	-2.1486930291103024	0.24193184997835532	-0.02418600678376412	0.96999176132682	0.2935212441069327	-0.9510264872018923	-0.09692213317064133	0.9248320167597838	0.30816173953994486	-0.22298449062602138
346														9.530175989993205	-0.9751476052282074	-2.135054055889941	0.24186272644284917	-0.024239653359147073	0.9700076601566923	0.29356734761433095	-0.9510080644416883	-0.09696325995737422	0.924835463189166	0.3082143743758606	-0.22289743259126776
347														9.543605732811653	-0.9704373000667439	-2.1914850467073608	0.24168387290660082	-0.02432895084395098	0.9700500026945511	0.2935933337674616	-0.95099643558966	-0.09699862815045215	0.9248739697624611	0.3082432183302569	-0.2226976838883416
348														9.562463821843055	-0.9807222171795686	-2.216076289407071	0.24134699014213618	-0.024407518026956843	0.9701319000079813	0.2936552287300955	-0.950979177060566	-0.09698046935690026	0.9249422884638843	0.30829024937706534	-0.22234856678247322
349														9.510840586387792	-0.9609148124456608	-2.2322161996124543	0.24092543242910802	-0.02450155636972562	0.9702343066209883	0.29385361113732134	-0.9509176858814216	-0.09698252368070949	0.9249891843856363	0.3084724111057334	-0.22190038385773947
350														9.504824976584683	-0.9355220293447958	-2.154870056203905	0.24047705159432814	-0.02460674212787739	0.9703428754303046	0.29409306408403	-0.9508422417113621	-0.09699639702060543	0.9250297602316188	0.3086965170181945	-0.22141906662857685
351														9.47660172428702	-0.9410629176540223	-2.167465699664938	0.24004587770818214	-0.024698257073883567	0.9704473054694011	0.29418337967981467	-0.9508173352653018	-0.09696666478307302	0.9251130286162176	0.3087659162804457	-0.22097396504571826
352														9.500906025980138	-0.9659159262141481	-2.1601192346970155	0.23965519551793435	-0.024732443022440348	0.970542989013574	0.2941823815117365	-0.9508272748849051	-0.09687218250369012	0.925214631136659	0.3087325697057031	-0.22059484747738167
353														9.484169096775824	-1.034858053163569	-2.2079707445315178	0.23941780545958857	-0.024734577143548375	0.9706015223161588	0.2943993934053121	-0.9507625320129964	-0.09684836024848652	0.9252070641707721	0.3089317212812019	-0.22034763442055594
354														9.49623824282463	-0.9962733085827036	-2.16877067446456	0.23926940322272672	-0.024680695987305573	0.9706394881350245	0.29482440780275143	-0.9506308400232075	-0.09684820370315594	0.9251101130380087	0.30934102418262155	-0.22018040219885515
355														9.50393140799388	-0.9196170569423714	-2.1675563440898404	0.23890372705888974	-0.024705958690179664	0.9707289141684056	0.2952841975326283	-0.9504866693989229	-0.09686244877379062	0.9250579721751951	0.30978170846604647	-0.21977952865308936
356														9.482112567285371	-0.871195996091107	-2.174623271098914	0.2385166304221999	-0.02470886835002667	0.9708240256796805	0.2955461261745144	-0.9504115680249046	-0.09680050964576807	0.9250742155715281	0.3100118113706371	-0.21938635439657322
357														9.529493441052976	-0.9209210767248652	-2.1651770701108566	0.23827232141218418	-0.02465598216713155	0.9708853605818881	0.2954788705838273	-0.9504475262471724	-0.0966526610556394	0.9251586555220432	0.30990576373150047	-0.21918001669550263
358														9.533466156374736	-1.0038723669086056	-2.1085632610543104	0.2381631766192296	-0.02456464002224895	0.9709144554301454	0.29540111348668735	-0.9504862900253181	-0.09650903908304564	0.9252115884777188	0.30979411055487305	-0.21911441215048422
359														9.551152783425135	-1.0588336626981436	-2.118644374647438	0.23803140074333717	-0.02448348169144912	0.9709488201673812	0.2954242171847855	-0.9504909994006643	-0.09639186666458643	0.9252381229504768	0.30978608616687614	-0.2190136905686203
360														9.55870894838335	-0.9809519421193638	-2.118400846350796	0.23773883245833277	-0.02444683181323401	0.9710214209561214	0.29551123057280815	-0.950475219692974	-0.09628068007102189	0.9252855560024129	0.3098373914876791	-0.21874055565764966
361														9.454879738106305	-0.9177189379706053	-2.164676185227668	0.237440661272583	-0.024488131637633997	0.9710933342286607	0.2955005444158194	-0.9504845996494504	-0.09622086093555467	0.9253655281154545	0.3098053537918978	-0.2184474356395245
362														9.450138828425489	-0.9248316336659477	-2.18432710012104	0.23719205940496052	-0.024480653397977392	0.9711542743377294	0.2954079582768773	-0.9505245694646143	-0.09611025455588207	0.925458840328364	0.3096832905620157	-0.21822510030874492
363														9.46348815410331	-0.9418247796897464	-2.2326617814916783	0.2371223272098656	-0.024421203625573124	0.9711727996356037	0.29531967288480665	-0.9505622939132577	-0.09600841732669435	0.925504885317084	0.30957217285125	-0.21818748142450228
364														9.521220476597469	-0.9759471736778486	-2.1807166132893565	0.23706394389752422	-0.024334053856888332	0.9711892402238825	0.29539633146715416	-0.9505471914262582	-0.09592207372341681	0.9254953775462628	0.30962540382620973	-0.21815227582117475
365														9.532063609741616	-0.9825152414030146	-2.126022495306375	0.23681953574201525	-0.024294535007197637	0.9712498561439903	0.2954829921668262	-0.9505301701333029	-0.09582378100709095	0.9255302852046913	0.30968075696616937	-0.2179254917025188
366														9.543788143562756	-0.9658017872292441	-2.0777293710351676	0.23640792914081332	-0.02428256253124428	0.9713504250250108	0.295517495803873	-0.9505333826986881	-0.09568541189333965	0.9256244922824594	0.30967183522610897	-0.21753770651207482
367														9.501668092027481	-0.9981781463460236	-2.0248718678101474	0.23597255419961916	-0.024257157265336726	0.9714569182346242	0.29558584797680626	-0.9505273519532105	-0.09553407593445722	0.9257137571303242	0.30969233686067044	-0.21712829467721795
368														9.491069718266946	-0.9101352853451046	-1.9957546919069036	0.23568218873810015	-0.02423382487793041	0.9715279860320051	0.29568532820032745	-0.9505059104492263	-0.09543951429126046	0.9257559573660236	0.3097599650259421	-0.21685172692059423
369														9.509451701625425	-0.9419791222037073	-2.013309665853444	0.2356128825262474	-0.024075241129210112	0.9715487390513373	0.2956535326166526	-0.9505343868578053	-0.09525422852635175	0.9257837534969855	0.30968494016568987	-0.21684021673943793
370														9.546365156994232	-0.9605687745721639	-2.0682947266853318	0.23565953671370443	-0.023917852354657015	0.9715413110591968	0.29554373328138417	-0.950584996303866	-0.09508978136519886	0.925806936933389	0.30954175993025573	-0.21694564845899933
371														9.525302476945793	-0.9678088402352295	-2.166470852227995	0.23561403186036323	-0.0238419723452655	0.9715542127669419	0.2955527860802536	-0.9505908813050634	-0.09500277374826231	0.9258156288542037	0.309529540972023	-0.21692598884169034
372														9.53200524351196	-0.9131384259690056	-2.1591978071650235	0.23545199478642853	-0.023772131310505373	0.971595205795113	0.2956199925774148	-0.9505805309379377	-0.09489717693523823	0.925835394732574	0.30956669713440554	-0.21678856493291876
373														9.523973187260271	-0.9325505953830746	-2.0684985541202017	0.23521690201913453	-0.02375291110635183	0.9716526170491663	0.2956419616339441	-0.9505827353116163	-0.0948066128955061	0.9258881355356886	0.3095614035073794	-0.2165707688788749
374														9.49537263050247	-0.9373473730362775	-2.0836534910483264	0.23498399109873142	-0.02373443446438217	0.9717094218684758	0.2956213753358209	-0.9505990122239518	-0.09470755198718182	0.9259538467828022	0.30951283427267273	-0.2163591436677174
375														9.477409866245136	-0.9265030552963404	-2.0545125292241986	0.23487901162214148	-0.02367665127135074	0.9717362121913442	0.2956622815068146	-0.9505943864862949	-0.09462625256729797	0.9259674212376974	0.30953146619579697	-0.2162743772181281
376														9.47707686063489	-0.9487401692480069	-2.046027777134022	0.23491941850281195	-0.023547581040411103	0.9717295808183708	0.29570812366320715	-0.950590308905971	-0.09452391344859074	0.925942531915392	0.3095538338337882	-0.21634891159633163
377														9.477556368207093	-0.924731735566055	-2.0546347373292257	0.23495129947417126	-0.023421135743228766	0.9717249288126224	0.29563777701473015	-0.9506250783015306	-0.09439420165454161	0.9259569059503727	0.3094566381655221	-0.21642642495339215
378														9.537699152324306	-0.9689615358431453	-2.1068821682750483	0.23501548262762534	-0.023271374796553973	0.9717130060055711	0.29556906456181575	-0.9506604937375849	-0.09425260590914655	0.9259625537781525	0.30935912587426606	-0.2165416362710701
379														9.53863940649515	-0.9220383073136685	-2.123616613266967	0.23503515171326717	-0.023171261524921744	0.9717106411367867	0.2956882843310842	-0.9506297256099447	-0.09418897651052979	0.9259194975636172	0.309461172727864	-0.2165799312157839
380														9.554917890620693	-0.8978113240926628	-2.0559498077470373	0.23499015495315873	-0.02306016471987346	0.9717241665607492	0.29582440413819233	-0.9505964434075662	-0.09409741599623753	0.9258874386184175	0.30957168892516296	-0.21655904604668036
381														9.53179413169183	-0.8716727045063665	-2.058567684396928	0.23491129403116978	-0.022979034390859104	0.9717451558485204	0.29577681381859955	-0.9506227557527475	-0.09398112923544688	0.9259226535428966	0.30949691472374324	-0.21651535611259815
382														9.496539250870052	-0.9300292638048007	-2.081614950219859	0.2348311519616489	-0.022888201003351843	0.9717666696914413	0.295653300329881	-0.9506753954847849	-0.09383719104862936	0.9259824275181543	0.309341918715647	-0.2164812260980336
383														9.49634756448143	-0.9519790362863179	-2.0726909638979714	0.2347512237491347	-0.02281905164376563	0.9717876073661172	0.29566146715857033	-0.9506819182738133	-0.09374533110968304	0.9260000862774934	0.30932698095914885	-0.21642702942278969
384														9.50230653745087	-0.920372529876558	-2.058167464919117	0.23480927362099124	-0.022695956231880532	0.9717764653418518	0.29576310639232506	-0.9506579602758665	-0.09366764361983107	0.925952909125915	0.30940965746862203	-0.21651067859670414
385														9.478752194763159	-0.8943321095380519	-2.0627047012807607	0.23501029079877128	-0.022523453749660194	0.9717318854755483	0.2957398845080526	-0.950675866978067	-0.09355916126528996	0.9259093281363142	0.30936724127917575	-0.21675752834324263
386														9.515204440377735	-0.9133550553758191	-2.1198080661536016	0.2352332474661285	-0.02234988094685128	0.9716819449327038	0.2955334317586813	-0.9507543564957894	-0.093413833650137	0.9259186303339387	0.30913853921169415	-0.21704389780545275
387														9.522124188598207	-0.9609029637234837	-2.1857690965047976	0.23531207392512588	-0.022230531627319555	0.9716655964521042	0.29535009851249205	-0.9508244828434067	-0.09327980560780567	0.9259570979120566	0.3089313941462336	-0.21717469129055333
388														9.498267950231538	-0.9577393431032644	-2.181464175464209	0.2353409593323949	-0.022142265228758368	0.9716606161366466	0.2953198288613288	-0.9508421261419209	-0.09319576082219212	0.9259594113900587	0.30888342662637486	-0.21723304816193462
389														9.49920152924018	-0.9110919472931602	-2.1978650075793316	0.2353400811630723	-0.022078113672714256	0.9716622886038199	0.29528478499873556	-0.9508599938704779	-0.09312447478984714	0.925970810526125	0.3088330114370695	-0.21725613708317176
390														9.51495687732174	-0.9099572496462774	-2.122378859549528	0.23537069360291418	-0.02200828250507561	0.971656457856407	0.29522334830834884	-0.9508861938367383	-0.09305171134529464	0.925982619278834	0.30875731873407875	-0.21731338412912382
391														9.509535290749373	-0.9172150609912643	-2.1452557681160567	0.23542725699617312	-0.02191906567819296	0.9716447711087901	0.2951948596571367	-0.9509024275668497	-0.0929761694170904	0.9259773223439445	0.30871366637592706	-0.21739795467637585
392														9.526051859193831	-0.8700701566076692	-2.0866479698048135	0.23551618941222852	-0.021813440773686937	0.9716255957550508	0.29523469088376775	-0.9508964147463673	-0.09291117113281756	0.9259420078080001	0.3087396673965276	-0.21751141568288357
393														9.520544391497817	-0.8770810785677432	-2.110003236431744	0.2355908061906425	-0.02166315966339019	0.9716108683788184	0.2951812475360004	-0.9509262153123546	-0.09277588121280218	0.9259400645514447	0.30865845289756766	-0.2176349151982429
394														9.51994159618031	-0.8991575027360985	-2.1029954909160575	0.23572147163007878	-0.021574987654889743	0.9715811380014749	0.29501424789134467	-0.9509861268536959	-0.09269293432031592	0.9259600322657853	0.30847999358061706	-0.21780292056546963
395														9.485195811598734	-0.9116741252797423	-2.1440953508265075	0.23579322094997973	-0.021437011117663857	0.9715667818057466	0.2948893761950325	-0.9510385921164577	-0.09255188875679717	0.9259815401838952	0.3083278301734813	-0.21792690604689952
396														9.527267421249828	-0.9228686488311184	-2.1775496099787257	0.23592156773126133	-0.021301705368904217	0.9715385999679066	0.29487242012475867	-0.9510530518236098	-0.09245727914429254	0.9259542481834572	0.3082926044610448	-0.21809264156691305
397														9.496045696488027	-0.8710463945739052	-2.1097657580411795	0.2360530223412592	-0.021154151452109	0.9715098931662505	0.29484173289499793	-0.951073139853382	-0.0923484444530889	0.9259305174725763	0.30824078984743697	-0.2182665624579188
398														9.49082965815031	-0.8550618559483159	-2.141792602356248	0.23618236517431518	-0.02104417587069385	0.9714808454326774	0.29473517168449404	-0.951114965636507	-0.09225779487055906	0.925931460180924	0.30811923796509305	-0.21843412334851015
399														9.526961184431915	-0.8973256280706922	-2.189940383075658	0.23632218967272378	-0.02092660647355704	0.9714493809817321	0.2945811279037863	-0.9511729556250281	-0.09215187231131913	0.9259448049161584	0.30794818659808576	-0.218618692292604
400														9.507863191589673	-0.9094943775060029	-2.1559278593681803	0.23648145973993495	-0.02080885139670352	0.9714131514977651	0.29450234994362	-0.9512052953420005	-0.0920698212826732	0.9259292008987272	0.30785626161715096	-0.21881416111887542
401														9.513381616682995	-0.8781337170821576	-2.1431654874983868	0.23664717548978437	-0.020720919616709382	0.9713746742750426	0.2944535867843815	-0.951224618798151	-0.09202613662501188	0.9259023704270986	0.3078024822553427	-0.2190032701923184
402														9.508067340169692	-0.8625519415423059	-2.1753379923773	0.23680853613396446	-0.02061819659338393	0.9713375351459067	0.2943728826922146	-0.9512560929012779	-0.09195896722816749	0.9258867766360878	0.30771209870174443	-0.21919612488135698
403														9.530711744289077	-0.9102807758198971	-2.165690490579636	0.2369887861224979	-0.020541028566178093	0.9712952081615704	0.2942134505722219	-0.9513107002657344	-0.0919042820672937	0.9258913331242342	0.3075483989640677	-0.21940652118856202
404														9.535859669397437	-0.9020646503855755	-2.1445754084965687	0.23709624394994322	-0.020502435271332775	0.9712697983839375	0.29404215960916513	-0.951367855432729	-0.09186082963760618	0.9259182358487211	0.3073741267531733	-0.21953716479338292
405														9.511406132998943	-0.9226714598401339	-2.1326400158005527	0.23725556441849788	-0.02045461438420701	0.9712319011970586	0.2939238927920368	-0.9514066303477486	-0.09183773176814165	0.9259149757933688	0.3072572740892155	-0.21971441718929013
406														9.511488108809978	-0.8994459249718579	-2.1423141235489087	0.2374353511853442	-0.020384981960011067	0.9711894287511483	0.29379472747865876	-0.95145042767502	-0.09179728635837721	0.9259098833651321	0.3071262544744609	-0.2199189662108656
407														9.505354594385425	-0.9302071024045726	-2.15801297358079	0.23757062557709585	-0.02034622579887982	0.9711571597628514	0.2937664291825711	-0.9514592361778405	-0.09179655209865986	0.9258841628131615	0.3071015353065196	-0.2200617278495961
408														9.516825174383042	-0.8686039526764298	-2.130191543453142	0.2376694314165651	-0.020320866283319833	0.9711335149008207	0.2937527834679109	-0.951463061535319	-0.0918005704704093	0.9258631343643517	0.30709136250851043	-0.2201643738157591
409														9.491953817481932	-0.9124554709113921	-2.110111557191974	0.23785068800819398	-0.02024700124212586	0.9710906801914693	0.29369345598441954	-0.9514840373832828	-0.09177298358850379	0.9258354087665673	0.3070312452267836	-0.2203647211523071
410														9.534203120540141	-0.901554750144265	-2.152141695663145	0.23799049192240007	-0.020212237216567674	0.971057151367125	0.2935772193922753	-0.9515214820820308	-0.09175666401039034	0.9258363473143806	0.3069174719743355	-0.22051921319569678
411														9.504745285099977	-0.9069127029949542	-2.1707127158413346	0.23809264781029293	-0.020119645517339635	0.9710340318047258	0.29351917357073937	-0.9515462697456947	-0.09168528387590057	0.9258284861706486	0.3068466985276376	-0.22065066915297393
412														9.51035543801345	-0.8760132452774897	-2.157416758140792	0.2382395508568365	-0.0201212505272422	0.9709979668798244	0.2934701706151226	-0.9515577604847802	-0.09172288384214981	0.9258062299243096	0.3068109576570068	-0.22079370664701187
413														9.480373056927025	-0.9050408673386107	-2.1681009949228747	0.23842956514286223	-0.020097467390460116	0.9709518187172189	0.2933583152263052	-0.9515911222107476	-0.09173459008069819	0.9257927637184088	0.3067090281262998	-0.22099169828853577
414														9.503767258633681	-0.9073581130773416	-2.1748049557126996	0.2386284472307562	-0.02005407792567035	0.9709038562755785	0.2932391308106491	-0.9516284756830846	-0.09172816596064581	0.9257792805705112	0.3065959527254721	-0.22120498511269332
415														9.556421388917533	-0.9041347705940576	-2.163957485006645	0.23880332093195517	-0.020038215428574396	0.9708611866967946	0.2932047750655715	-0.9516358796775766	-0.09176117037741673	0.9257450695470205	0.3065740080840575	-0.22137850793755703
416														9.550586901126382	-0.9126881671715908	-2.187784324007183	0.23898594991906397	-0.02008051764909849	0.9708153730510385	0.29314839882427135	-0.9516448296948424	-0.09184843156984487	0.9257157944034706	0.3065434568311951	-0.22154317201379203
417														9.526940162760473	-0.8880555371310584	-2.1917684917349103	0.2390579791337385	-0.020090579018631927	0.9707974305936276	0.2930273615590282	-0.9516816940968031	-0.09185270000818156	0.9257355172997563	0.3064283305370679	-0.2216200132073315
418														9.520977984779002	-0.9194645029681587	-2.2063083375227053	0.2391100974818537	-0.020163948549712513	0.9707830738435353	0.29300488692562754	-0.9516805552932852	-0.09193615673044452	0.9257291707189089	0.30642704817876176	-0.2216482948829795
419														9.473762304755558	-0.893107265806089	-2.204121169757547	0.23912025999794845	-0.020253312201366364	0.970778710419315	0.29305871403853345	-0.9516539488706102	-0.09203994635513219	0.9257095070185869	0.30650377639410664	-0.22162433005326115
420														9.495894189400852	-0.8396007184248057	-2.1225920685745714	0.2392546117985403	-0.02027040604605021	0.9707452505018291	0.29302306664983313	-0.9516599116524753	-0.09209177468553488	0.9256860769960075	0.3064841320400326	-0.2217493261847951
421														9.495080400695047	-0.8631187533095951	-2.116087726251178	0.23951120234663792	-0.020264311794688655	0.9706821012143756	0.2927897924782502	-0.9517296390743044	-0.09211314525103174	0.9256935353404014	0.306267941147914	-0.22201672651853688
422														9.535780313623095	-0.9218504340744423	-2.134824939841146	0.23980395243669156	-0.020261785504490426	0.9706098724224433	0.2925871006640304	-0.951787729463206	-0.09215696700897039	0.9256818313658092	0.3060875333812959	-0.22231412233098596
423														9.53522537775399	-0.922443261757473	-2.137046339149294	0.24002494109762162	-0.020258068817405883	0.9705553246976045	0.29251762225706035	-0.9518041151119192	-0.09220828121753696	0.9256465136974045	0.30603682311742464	-0.22253088454422487
424														9.501053242619307	-0.8907644327465432	-2.1938508257833744	0.24003666199081186	-0.02036967649421098	0.9705500899901199	0.2924787624195986	-0.9518059848634215	-0.09231219156575211	0.9256557537409945	0.3060235995110398	-0.2225106336975784
425														9.473099376117993	-0.8282991202376196	-2.2349023887950743	0.2399821987632108	-0.020466548039475896	0.9705615203005544	0.2924197584071134	-0.9518179860961572	-0.09237535513859683	0.9256885162785056	0.30597980612322156	-0.22243455009259583
426														9.477764263899862	-0.8671004034835934	-2.195933474779617	0.24007113071977798	-0.02050065427240494	0.9705388067302257	0.29229855351642897	-0.9518519975225967	-0.09240849757704007	0.9257037365200221	0.3058717018402419	-0.22251987373316479
427														9.529630211996775	-0.9101528709326158	-2.168712551154841	0.24033094105582148	-0.02048609331649215	0.9704748109826709	0.29213914308952876	-0.9518978713690749	-0.09244005386162131	0.9256866423613006	0.30572988480626423	-0.22278572146843106
428														9.599199151995037	-0.9862418101020702	-2.16172700097274	0.2405778147494082	-0.0204699856559101	0.9704139811120029	0.29198443649281236	-0.951942724117826	-0.09246696082984553	0.9256713260636169	0.3055912788126981	-0.22303938310810834
429														9.575462976389773	-0.9615934970180356	-2.1661527043670885	0.24068008208670327	-0.02053825221385222	0.9703871795745955	0.2918548010481664	-0.9519757877062083	-0.09253580240252869	0.9256856233040855	0.30548368175263446	-0.22312742321593332
430														9.509157810164824	-0.9711555106826156	-2.1201238492237753	0.2406356973229668	-0.020698980336398776	0.9703947719288909	0.29172718734579933	-0.9520039543766357	-0.09264836217958125	0.9257373868096718	0.3053850406687979	-0.22304768010117976
431														9.45187326528006	-0.9145285029007376	-2.178697399991718	0.2406796292747732	-0.020843237406746623	0.9703807889208047	0.29152856580480035	-0.9520542914370456	-0.09275624763917888	0.9257885349106207	0.3052182589733296	-0.22306367480460726
432														9.441028420798814	-0.9082471567822135	-2.2324704391322348	0.24089224368450535	-0.020910463535884855	0.9703265839125291	0.2913515033571168	-0.9520995207320226	-0.09284828546289883	0.9257889761842014	0.3050725407777082	-0.22326109477300493
433														9.440416270317966	-0.9094978242587017	-2.234549080474017	0.24120454039238204	-0.02096998228293573	0.9702477155536898	0.2912601713030857	-0.9521140614739654	-0.09298562553453177	0.9257364000116867	0.30502307090875	-0.22354651396700154
434														9.49241669312755	-0.9304686713088925	-2.216272019361733	0.241447014236284	-0.02099516618333752	0.9701868594829137	0.29127366558174383	-0.9520995375481565	-0.09309201007155352	0.9256689424707731	0.305066670741859	-0.22376625158303043
435														9.515750163253882	-0.9338921184270098	-2.2227410367987295	0.24160268059626183	-0.021079037629141928	0.9701462873718221	0.2911839670972969	-0.9521161184854601	-0.09320297326620933	0.9256565464761652	0.30500913280229924	-0.22389592866554836
436														9.544529320360978	-0.9522481380336488	-2.1972021911440676	0.24154929581774875	-0.021152482465313788	0.970157982070706	0.2911685868546615	-0.9521158188343746	-0.09325406990800889	0.925675316576503	0.30500498358371614	-0.22382396714848896
437														9.520897563173422	-0.9508288851529717	-2.191148237835522	0.2415159465348677	-0.02122829681030261	0.9701646288047722	0.2912645590677726	-0.9520779563853952	-0.09334088919689135	0.9256538252502519	0.3051178860367645	-0.22375895830118847
438														9.526396807694164	-0.9440191986307358	-2.1683033754508205	0.24159752294069942	-0.021263103727758276	0.9701435550106908	0.29140325088179764	-0.9520262869881428	-0.09343497342585762	0.9255888840540593	0.3052766438878566	-0.22381105516066108
439														9.495152397670793	-0.9172536246809233	-2.091296964766699	0.24174193995779586	-0.021333509322201932	0.9701060333001958	0.29144590652330626	-0.9520008394669277	-0.09356113095229827	0.9255377453330844	0.3053510815999583	-0.2239209658104529
440														9.48461825889839	-0.8882479532719871	-2.1535434466730283	0.24194420712447873	-0.021395130358711295	0.9700542505632563	0.2914575676399016	-0.9519846034569421	-0.09368991966247357	0.9254812190986585	0.30539738567620767	-0.2240913874244127
441														9.483702879832055	-0.9124825202392848	-2.147017603006957	0.24217881521976325	-0.021409531778454366	0.9699953883435629	0.29146558412832313	-0.9519730844656702	-0.09378197972773715	0.9254173300341243	0.3054322812047634	-0.2243075720312786
442														9.467435198621681	-0.8908818754109247	-2.232698764350794	0.24244516547798955	-0.02141446527175614	0.9699287408946468	0.2913643894631712	-0.9519975012507744	-0.09384854908326976	0.925379454218162	0.30535582242591375	-0.22456777912579096
443														9.490229668366242	-0.9171705503478377	-2.2315320714533464	0.2426513936053536	-0.021494241301114936	0.9698754037361033	0.29123420106383285	-0.9520261427835717	-0.09396203269057939	0.9253663822033362	0.30526090651690724	-0.2247506121023597
444														9.483867232312607	-0.9493598114496821	-2.2469354967268873	0.24278165414883596	-0.021583358716695533	0.9698408256179267	0.29123294759138624	-0.9520137502309017	-0.09409138966200616	0.9253326097387837	0.3052932655624769	-0.22484568787550946
445														9.489963767642614	-0.8969793335908378	-2.2415156201642366	0.24293682634307984	-0.021662125307120944	0.9698002117619542	0.2913078119180039	-0.951976425341978	-0.0942371705255128	0.9252683162855504	0.30540405681701144	-0.22495978520129906
446														9.542249997671385	-0.91797066122144	-2.222092044506565	0.24310543065341622	-0.02169801316532116	0.9697571581646073	0.2913248673976813	-0.9519618950982094	-0.09433118210194241	0.9252186613025816	0.30544679815919495	-0.22510593566531206
447														9.576339238864833	-0.9286182572380617	-2.175134317852881	0.24325536095328648	-0.021766557833108185	0.9697180241325747	0.2912575003815271	-0.9519726457932416	-0.0944306630969013	0.9252004635963988	0.3054084128204619	-0.22523277634370908
448														9.529112920614303	-0.9021552229860478	-2.173223071821592	0.24325160565133191	-0.021885574991692663	0.9697162873517863	0.2911753338292261	-0.9519882910636597	-0.09452628548256597	0.9252273133222385	0.3053511344091845	-0.22520014075825207
449														9.499839267152844	-0.9087457555394438	-2.1899638945296207	0.24324338165055126	-0.021993258568786894	0.9697159139978733	0.29109107977612103	-0.9520058572620569	-0.09460883158303963	0.9252559865021011	0.30528862460999506	-0.22516708268697117
450														9.47562184086059	-0.9303292117021439	-2.1763647882829464	0.24327796865894524	-0.02205907650535735	0.9697057425368318	0.2910272271097869	-0.9520193865660647	-0.09466911155790317	0.9252669793340547	0.30524168251748474	-0.22518555061977064
451														9.49966102729422	-0.9104303251684338	-2.1900374114478978	0.24343168660004966	-0.022106832092614576	0.9696660775410699	0.29099300036075304	-0.9520210602038521	-0.0947574517881335	0.9252373142605643	0.30523300755842675	-0.2253191589650898
452														9.492943306265373	-0.9652373557864842	-2.1969104315980594	0.24352694418660964	-0.022182612444693384	0.9696404277670463	0.2908948296894001	-0.9520429618293575	-0.09483879423083992	0.9252431169779687	0.3051591888446311	-0.22539530595950746
453														9.488277472523398	-0.9280907497705378	-2.2353152753265064	0.24347834950732977	-0.022299311305895686	0.9696499543837815	0.29091423467299077	-0.9520267096183406	-0.09494236271498611	0.9252498048558642	0.3052013841524292	-0.225310704862478
454														9.494473521654253	-0.8983609994713114	-2.219764823097899	0.24340235078990347	-0.022414914979019568	0.969666369024126	0.2909528881976532	-0.9520050893296539	-0.09504065835147667	0.9252576465392724	0.30526035031907023	-0.22519859245493912
455														9.457259309043007	-0.9251148667026449	-2.147346428803767	0.24338217634393078	-0.02252952081244275	0.9696687769182084	0.2908290056355508	-0.9520353678023765	-0.09511649664717066	0.9253018997706257	0.30515746614716177	-0.22515620163680872
456														9.474965855086072	-0.9590076384857611	-2.166613895054951	0.2434741655799949	-0.0226009099963084	0.9696440220836016	0.29064507585704213	-0.9520860283934857	-0.09517160510348101	0.9253354908222096	0.3049940874922947	-0.22523950812316007
457														9.474705066550076	-0.9599090773415372	-2.1673550634126575	0.24363145521298302	-0.02266350780450921	0.9696030525141716	0.29060805835282105	-0.9520869906775669	-0.09527496314844758	0.9253057172908895	0.3049864383813314	-0.2253721410295928
458														9.487011354513605	-0.9790606519451914	-2.218348001751132	0.24380270682747385	-0.02270918125872043	0.9695589374711344	0.29066683609391986	-0.9520575720383823	-0.09538956923862682	0.9252421469749132	0.3050748639448013	-0.2255134072517947
459														9.511425344538228	-0.9365814075134149	-2.2404518795756605	0.24389192807962695	-0.02279180134340214	0.969534559058688	0.29066499132634654	-0.9520471508547057	-0.09549913804161621	0.9252192119897081	0.30510122310629906	-0.22557183650487772
460														9.535006655560462	-0.9400956359062981	-2.245819915820562	0.2439760394268481	-0.02287060204617819	0.9695115408016733	0.29068251353174873	-0.9520308719267764	-0.0956080290833714	0.9251915307180746	0.3051461198514368	-0.22562463745601635
461														9.50614462020955	-0.9238379630153871	-2.2708748147448077	0.24393978974474634	-0.0229822873495234	0.969518021208205	0.29074166148568104	-0.9520015206669118	-0.0957203788356153	0.9251825037557914	0.30522928941383065	-0.22554914237942353
462														9.511487723073722	-0.9400991730723358	-2.238713150495111	0.24380497763260106	-0.023104650506358654	0.9695490230032445	0.2907980538656908	-0.9519752212884023	-0.09581059399056276	0.9252003160124264	0.3053020687415608	-0.22537751013051338
463														9.49360211863349	-0.9309829854235518	-2.209354008297623	0.24369659151620437	-0.02323109698576359	0.9695732501550475	0.2908104858253844	-0.9519621536709622	-0.0959026553967477	0.9252249632480677	0.30533321815842684	-0.22523408550135215
464														9.475064278893601	-0.9446713606970536	-2.172610950088457	0.24370084115195811	-0.023275609250864165	0.9695711144809493	0.2908378943740757	-0.9519485651948922	-0.09595440802506675	0.9252152285916413	0.3053721913295121	-0.22522123688659956
465														9.522595073152607	-0.9501170603362868	-2.1824308924763547	0.24373874542411195	-0.023344397893627106	0.9695599326839287	0.2908973836074885	-0.951920877526642	-0.09604871232466321	0.9251865412928347	0.3054532403100223	-0.2252291761622151
466														9.499757627665911	-0.9026245949895957	-2.193527027762084	0.24377090835383775	-0.023366096880369003	0.9695513239416068	0.2909544808936456	-0.9518988219082658	-0.09609434373346512	0.9251601127849464	0.30552030761674964	-0.22524676988918735
467														9.494187482726641	-0.9111921664966317	-2.215754607917541	0.24378852663256684	-0.02345670091531951	0.9695447062742865	0.2908516518799713	-0.951923214512587	-0.09616397595105967	0.9251878030329924	0.30543735340359607	-0.22524553772448513
468														9.488092441895661	-0.942680763249662	-2.2299889724117596	0.24384789044551897	-0.02349355845244408	0.969528885096526	0.2907463254191074	-0.9519523807233625	-0.09619375806365803	0.9252052640255337	0.3053436057073484	-0.22530091405291425
469														9.535083683832028	-0.9709787621032969	-2.2319117409606797	0.24386590860270885	-0.023574441443830807	0.9695223898043751	0.2907211655072223	-0.9519520655838958	-0.096272886923975	0.9252084211395276	0.3053383541927964	-0.22529506632711005
470														9.494101175671483	-0.9134683907515165	-2.2151871311081113	0.2438605179314799	-0.02364226103571257	0.9695220942749628	0.2908184350207802	-0.9519133972599232	-0.0963614132790512	0.9251792721663489	0.30545364232595273	-0.22525848872696064
471														9.499264577311022	-0.9295629675826038	-2.1837106142638953	0.24380756506781942	-0.023752286356493124	0.9695327225568721	0.2907701600487866	-0.9519201328138034	-0.0964405245161743	0.9252084009783442	0.3054241143665492	-0.22517887361496658
