// Start Time: 1748431178.2324173
// Update Rate: 100Hz 
// Filter Profile: 46.1 human
// Option Flags: AHS Disabled ICC Disabled 
// Firmware Version: 4.0.2 
PacketCounter	SampleTimeFine	Year	Month	Day	Second	UTC_Nano	UTC_Year	UTC_Month	UTC_Day	UTC_Hour	UTC_Minute	UTC_Second	UTC_Valid	Acc_X	Acc_Y	Acc_Z	Mat[1][1]	Mat[2][1]	Mat[3][1]	Mat[1][2]	Mat[2][2]	Mat[3][2]	Mat[1][3]	Mat[2][3]	Mat[3][3]
0														9.421822195348733	2.3149918585262834	1.3501217041491256	0.004127425954396746	0.2760090164893638	0.9611461840800102	-0.49648670252903393	-0.8337566639398228	0.2415590601649702	0.8680345146172688	-0.47819331671669274	0.1335935375706896
1														9.41776204823457	2.3400621901287355	1.3831668814408487	0.004372889894168064	0.27596432446669367	0.9611579315885679	-0.49652744133462495	-0.8337114581342355	0.24163134022178645	0.8680100102162782	-0.4782979157359224	0.13337813151715844
2														9.444060112946913	2.387135412349353	1.369626875465654	0.0045899303877718345	0.27593155770926897	0.9611663269170281	-0.496596545548385	-0.8336515381764588	0.24169605674366013	0.8679693563072637	-0.4784212457198783	0.13320025583831896
3														9.47945860108683	2.456382006004903	1.4113043804231797	0.004805297239252715	0.27593175476934123	0.9611652177582972	-0.49677840793511313	-0.83352135262481	0.24177131369945848	0.8678641152437963	-0.4786479096668236	0.1330716199784292
4														9.466112835785308	2.459180505907701	1.3904818389574964	0.004985123464138708	0.2759126503980794	0.9611697861951106	-0.4970335965997749	-0.8333604024541335	0.24180166143469134	0.8677169771274155	-0.47893908691167825	0.1329834524783755
5														9.416426814398921	2.3909572317797854	1.4160060349726666	0.005037886969786964	0.2759021793114283	0.9611725168491265	-0.49744817094531874	-0.8331267510070492	0.24175428430452994	0.8674790700172754	-0.47935144122829443	0.13304983605521797
6														9.3868368478417	2.3706756241596754	1.3759749569890736	0.005079783887378009	0.2758992958198566	0.961173124032172	-0.49790823607376555	-0.832867268738085	0.24170126419750912	0.8672148431879895	-0.47980380493579877	0.13314174598359863
7														9.434636926901494	2.2649381463448157	1.423027593774666	0.005059291392790821	0.2759530405291924	0.9611578033774152	-0.49829032815310076	-0.832645101845861	0.24167929832977372	0.8669954742901943	-0.48015836324570094	0.13329213692311892
8														9.464856990856559	2.2366487597135483	1.431053809732355	0.005096606949250071	0.2760302611834009	0.9611354324488451	-0.4985649637460394	-0.8324683305524999	0.24172185575997088	0.8668373558647063	-0.4804204133237443	0.13337625328118763
9														9.454202477538484	2.2638781394281953	1.412732005906022	0.005084878492778	0.27615873533077107	0.9610985885491785	-0.4986318903276903	-0.8324005533441878	0.24181719694952325	0.8667989282174662	-0.48046401706350433	0.1334688965574104
10														9.436438326711954	2.291277922267552	1.4281752480379468	0.00505113077427416	0.27626187105370553	0.9610691258592207	-0.49860884638642494	-0.8323920790160027	0.24189387155654635	0.8668123813046854	-0.48041940572100356	0.13354209158006364
11														9.459328007854324	2.3141080847454485	1.416852905454014	0.004976083237528406	0.276345341972646	0.961045519507601	-0.49855684930832106	-0.8324103525986857	0.2419381592355613	0.8668427231068928	-0.48033973066627866	0.13363171981260152
12														9.461876101314935	2.339018378223144	1.4193005109850145	0.004870558395095537	0.2764738028451195	0.9610091123403972	-0.4985499713694022	-0.8323965414242014	0.24199984271192415	0.8668472781917749	-0.480289739808572	0.13378177052994195
13														9.441044444439482	2.341984206587296	1.4348295898277577	0.004759585150813983	0.27661402643323446	0.960969316226895	-0.49855620319018007	-0.8323732574596165	0.24206708269952526	0.8668443104789832	-0.48024935257266177	0.133945887371562
14														9.434385948658232	2.3448394259959078	1.3830936615394966	0.004574091058281771	0.2767500276195758	0.960931058871319	-0.4985334627240773	-0.8323774801393259	0.24209939508649533	0.866858387647793	-0.4801636728965134	0.13416177918915084
15														9.444087490170293	2.3188574373444033	1.4057523929492959	0.004406020382447529	0.27688608741012477	0.9608926483135891	-0.49861533799438795	-0.8323213023314484	0.2421239236465998	0.8668121663319754	-0.48018261555786773	0.13439242543712537
16														9.414125789548368	2.2993725497086945	1.3674788906652793	0.0041675217054941704	0.2770555648255293	0.9608448604025734	-0.4986162271857696	-0.8323113927860692	0.24215615504368732	0.8668128343246095	-0.4801020302370323	0.13467572465896183
17														9.430923548498946	2.273347999153699	1.3566619970903302	0.003928019586113551	0.2771783187925453	0.9608104653122117	-0.4985734139909316	-0.8323375928496877	0.24215425329862428	0.8668385787005316	-0.47998574053874277	0.13492430231769387
18														9.405860650599209	2.3001072880589195	1.4077065968102689	0.0036636157231756394	0.2773676286015473	0.9607568769068411	-0.49852231053037954	-0.8323550647232473	0.24219940572390045	0.866869127275441	-0.4798460636845038	0.1352245219743905
19														9.445855663393445	2.296278892595664	1.3847745781519611	0.003377732042018522	0.27754881164231593	0.960705599068825	-0.4985618480563301	-0.8323273962030909	0.2422131069790387	0.8668475497969114	-0.47978928988225716	0.13556386954262634
20														9.438057207714566	2.3470491772964723	1.369313012598376	0.003102050740521556	0.27767772889834563	0.960669275117644	-0.49853363711303644	-0.8323489710731324	0.24219703346726745	0.8668648048848506	-0.47967725527416266	0.13584969939089014
21														9.417156690916373	2.349260484627028	1.38634446399358	0.0027958181359477585	0.2778444606360674	0.9606220063556755	-0.4985500420402519	-0.8323405768065908	0.24219211337889363	0.8668564119752554	-0.47959526675638137	0.13619229465084137
22														9.417810290765681	2.300765680167473	1.3554038200864356	0.0024422945057352985	0.2779930098920115	0.9605799923216845	-0.49856431474099727	-0.8323445355466188	0.24214912391442445	0.8668492713640517	-0.4795023051006778	0.1365645639935537
23														9.382081736000467	2.2321225845125006	1.3165754745855986	0.0021458405270075587	0.2781091547928368	0.9605470802562712	-0.49859245657563356	-0.8323410262496992	0.24210323886200594	0.8668338696741773	-0.47944104334319615	0.13687705557791596
24														9.397759048935063	2.3046153174190103	1.2884967212841747	0.0018126584416540137	0.278247448088629	0.9605077156907905	-0.4984716646433871	-0.8324193963219352	0.24208252348047868	0.8669040972431873	-0.4792246928729692	0.1371895765857737
25														9.399063485760289	2.376904909417153	1.3277015638796135	0.0014270519356195388	0.27830917242483805	0.9604904830694446	-0.4983034949094232	-0.8325504721658414	0.24197797060370863	0.867001493934023	-0.4789610796720717	0.13749434052184079
26														9.400047882307922	2.327778554227429	1.2960596681886738	0.0010911992763340539	0.2783804328129222	0.9604702722682412	-0.49822282446476224	-0.8326238036177844	0.24189175023428947	0.8670483414818888	-0.4787921639667292	0.13778692701981088
27														9.401017998067381	2.2788103988236155	1.2643658336664967	0.0007684076694304265	0.27846490006769004	0.9604460989456644	-0.49807301055549785	-0.8327301107463774	0.2418343209978865	0.8671347563705635	-0.4785581073251369	0.13805597490708704
28														9.416798551049158	2.300440556020367	1.288556952651538	0.00044003052453733815	0.2785233532965577	0.9604293560911066	-0.49782371009394316	-0.83289852746946	0.24176765004339607	0.86727813303544	-0.4782308904782765	0.13828902830996964
29														9.384900625341414	2.4273998643615347	1.2668995973440567	0.0001449759175988219	0.2785587398162346	0.9604191831976154	-0.49766716875058825	-0.8330168524829629	0.2416822555074148	0.8673680695816264	-0.47800413382246937	0.1385087719925132
30														9.387549915864899	2.400099359170458	1.3234301000547326	-0.00016420114087667415	0.27856131648426485	0.9604184327659162	-0.4976090953526676	-0.8330910611082928	0.24154600415605898	0.867401384170146	-0.4778732853592177	0.13875143919867128
31														9.35233252238983	2.3305786919357017	1.2831879825082568	-0.0004008821854300515	0.27853115513793997	0.9604271106705591	-0.4975847763718368	-0.833144823186116	0.24141063340533447	0.8674152578877448	-0.47779713186215383	0.1389268554593998
32														9.385751086460981	2.3251718396139553	1.2928237739098523	-0.0006488125753358331	0.2785181182777391	0.9604307558763776	-0.497535194497818	-0.8332097210277449	0.2412888124652412	0.8674435481795117	-0.4776915517108245	0.139113163093376
33														9.36528526890514	2.326436967954613	1.3081686107160566	-0.0008348060230876087	0.278491059709154	0.9604384586015788	-0.49746331536955335	-0.8332818180884304	0.24118802106400883	0.8674846125208426	-0.47758155461168394	0.13923471454436565
34														9.425178809086908	2.36737685379453	1.3050775886768802	-0.0010059790674064595	0.2784126409030693	0.9604610296058321	-0.4973838576847953	-0.8333688981193179	0.2410509858141751	0.8675299914819704	-0.47747531981535235	0.13931630502751574
35														9.445314845895213	2.3137957498399957	1.3462880250548637	-0.0011632361684763004	0.27839613557943477	0.9604656363327391	-0.4972683509728062	-0.8334583157806696	0.24098012983819966	0.8675960085214791	-0.47732884634231615	0.1394070961146207
36														9.403394047211428	2.4166740463301544	1.3560309880764336	-0.0013021808190089024	0.27835852457903726	0.9604763589590823	-0.49711667067488724	-0.83357035421025	0.24090554231672195	0.8676827300702892	-0.47715510725127913	0.1394621223192518
37														9.434157222609006	2.4380985672947224	1.3107149839453565	-0.001368430755622485	0.27830772753182265	0.9604909870443032	-0.4970829656891539	-0.8336107630745495	0.24083525677928264	0.8677019376600139	-0.4771141419852699	0.1394827691821366
38														9.39904987575555	2.3691869649847943	1.2686755517811872	-0.001428379999026952	0.27825683158536424	0.9605056456922328	-0.49707493683709064	-0.833636201414919	0.24076376566856472	0.8677064405079528	-0.4770993810167641	0.1395052462613497
39														9.399077466311766	2.3687500646856776	1.269286787820273	-0.001456558270597097	0.2781992578959176	0.9605222805037711	-0.49704437958755665	-0.8336713150968111	0.2407052618975627	0.8677238979989114	-0.4770715997530288	0.1394916683915588
40														9.396094199934778	2.3442461796692373	1.269011126411925	-0.0014793231168503396	0.2781491866510308	0.9605367465997778	-0.4969505936893837	-0.8337385543744715	0.24066601418009886	0.8677775746323968	-0.4769832836850119	0.13945977215734445
41														9.381763314321814	2.394531035444225	1.2836511816493583	-0.0015157123611219125	0.27806382637012583	0.9605614041176348	-0.49684160000849564	-0.8338248491609794	0.2405920726513393	0.8678399202139965	-0.4768821965497074	0.1394175150291017
42														9.370066130937818	2.4188406221509173	1.3516592988391363	-0.0014487132198140462	0.2780454621619721	0.9605668233918667	-0.49676842226111473	-0.8338604362936217	0.2406198400556637	0.8678819250763372	-0.47683067618951036	0.13933223019260393
43														9.380362463675114	2.4434685404395293	1.3182151157120192	-0.0013325606703316617	0.278020558133561	0.9605741999123042	-0.49675940725745277	-0.8338556409376965	0.24065506721780838	0.867887271241654	-0.47685358269754763	0.13922049089566174
44														9.399028563078408	2.439651039383626	1.3927857029425668	-0.0012478670308632145	0.27800451605418003	0.9605789566096868	-0.49682137820392064	-0.8338139471151766	0.24067160147339034	0.8678519234220953	-0.47693583493976494	0.13915907574743058
45														9.41231060055997	2.4883844844844663	1.3602875325111028	-0.0011065479315236493	0.2779877266551677	0.9605839887176796	-0.497042098621297	-0.8336773489661814	0.2406890733266818	0.8677257214983386	-0.47718434765802176	0.13909410699370472
46														9.403115870108277	2.416323844102937	1.3585816288923387	-0.0009588002028186882	0.2780326526315077	0.9605711450865355	-0.4973008763950723	-0.8335033592332897	0.24075711512541892	0.8675776155704247	-0.4774620343205401	0.1390650450099784
47														9.409936757004905	2.366602772290519	1.3779006390079203	-0.0007778103397835245	0.2780558192886842	0.9605646029137105	-0.49753398169373425	-0.8333442418746325	0.24082631001278332	0.8674441377236084	-0.47772621436769913	0.13899040267174168
48														9.447526500632867	2.3392305207830817	1.3503420723471742	-0.0005429262709347182	0.27810473480327513	0.9605506034098695	-0.4976546145205726	-0.8332330766248617	0.24096166638004418	0.8673751148594505	-0.477891615848476	0.13885248872198136
49														9.426779114250419	2.3430707408741993	1.3630424783836794	-0.0003692612439292198	0.27820480979713946	0.9605217058723202	-0.49767168790016936	-0.8331745429086355	0.2411287459254569	0.8673654101408074	-0.47793541912555987	0.13876231634181257
50														9.43525937964279	2.418063725696382	1.3642679527094306	-0.00010872900444691691	0.27835261982405585	0.9604789467838889	-0.49756224098462337	-0.8331616602670618	0.24139897308686456	0.8674282705355892	-0.4778718101103243	0.13858834214146232
51														9.414376392371917	2.4226565352412797	1.376471053778724	9.42244197313924e-05	0.2784381781766625	0.9604541488563729	-0.497480388922814	-0.8331571277738143	0.24158324254155894	0.8674752179509018	-0.477829866556444	0.13843902942337633
52														9.397843748067796	2.4030874925059718	1.3542583280058609	0.000386264318738172	0.2785965743183345	0.9604081421864167	-0.49741164413884476	-0.833114641147883	0.24187114540623672	0.867514557269771	-0.4778116192424818	0.13825537762383888
53														9.459844223368638	2.421670396376256	1.4020514614135395	0.0006901037945156729	0.27874831731768923	0.9603639410917667	-0.49740362881193745	-0.8330386452829934	0.24214922157585417	0.8675189645197791	-0.4778556173758268	0.138075541428952
54														9.47229936431009	2.4225395116119386	1.42154095456279	0.0010013081391017642	0.27893024089507124	0.9603108445166226	-0.49744255159731254	-0.8329280476613201	0.2424495314069664	0.867496343071466	-0.4779422435120379	0.13791775311508786
55														9.494958284816095	2.4478067340762255	1.4081637534507487	0.0013164950981414125	0.27913664565809526	0.9602504880974564	-0.4975352012023033	-0.8327809686455774	0.2427644575021581	0.867442787972348	-0.4780780180184826	0.13778395509738905
56														9.494070284992736	2.400548490428844	1.4604618356731662	0.0016442164560112604	0.2793543348243334	0.9601866756871293	-0.4976382948477653	-0.8326233615436793	0.24309353202566408	0.8673830895591952	-0.47822535841019365	0.13764840180760346
57														9.504911928890596	2.3292584324416716	1.4444843768618743	0.0019764172913988576	0.2795806564468308	0.9601201749340809	-0.49764959582962326	-0.8325133795422196	0.24344681688986114	0.8673759124769973	-0.4782845695022495	0.13748780684389794
58														9.458928147988386	2.361621660629765	1.5041815765838777	0.0023545143890790765	0.2798320404682	0.9600460850341486	-0.4975870801782346	-0.832431145017286	0.2438554622002749	0.8674108334011579	-0.47828068948329316	0.1372808368480284
59														9.404223972049412	2.3721827569824345	1.5086039567803364	0.002741242877006833	0.2800738737270594	0.9599745365596993	-0.49746621585228656	-0.8323820948621369	0.2442691389400798	0.8674790197307926	-0.4782245010540979	0.13704552863360242
60														9.43680140589933	2.4231509081714546	1.4614789481704944	0.0031042443253450624	0.28040557237717145	0.9598765955303838	-0.49732886694278444	-0.8323223464170273	0.24475193515120752	0.8675565467291313	-0.47813410946583335	0.13687005367405863
61														9.372922011828518	2.482845342759184	1.5353736525547312	0.0034754531500952313	0.28077157559204097	0.959768328069313	-0.4973217718335055	-0.8321806098905742	0.245247808925044	0.8675592063287578	-0.47816603273519437	0.13674161273182645
62														9.381769294776953	2.5122305623880674	1.5020850615928862	0.0038236458657047168	0.28120802600600525	0.9596392164986275	-0.4974383355288874	-0.8319555967965148	0.24577426086798665	0.8674909118132269	-0.4783010882997873	0.13670254881565047
63														9.394911054453697	2.467106009999852	1.4881270330466403	0.004190922827252308	0.2816992588046344	0.959493597557991	-0.4977414308199327	-0.8316105014398446	0.2463279154710173	0.8673153430045974	-0.478612057395016	0.13672817670446624
64														9.358491400250015	2.4042036735965056	1.4464802103955294	0.004494413731320146	0.28225115741286844	0.9593300184943175	-0.4980438845111447	-0.8312585994938203	0.24690368540915278	0.8671401786022034	-0.47889813625307465	0.13683744278182863
65														9.36238348863289	2.4585275731643366	1.4494779695822475	0.004784112952193942	0.2828222480430507	0.959160408000214	-0.49827992511620545	-0.830939784759497	0.2474998794545775	0.8670030152712563	-0.4791144436517405	0.1369493387893269
66														9.423533707763061	2.4096516899918563	1.3766925526489	0.004967710794108071	0.28335337551474676	0.9590027040805803	-0.4984940619536989	-0.8306579998066601	0.24801402693013275	0.8668788796864116	-0.4792892153403806	0.13712350641678617
67														9.42465421490034	2.439258117459178	1.3794424694656213	0.005178726034200387	0.2838877461781623	0.9588435369582184	-0.4985651544917317	-0.8304501174469093	0.2485666694451425	0.8668367594439561	-0.4793332348192626	0.13723586438829782
68														9.401119576332425	2.4751982755600017	1.2533404112876927	0.005265819972761543	0.28442128992332705	0.9586849331132548	-0.49858663261005776	-0.8302872785975187	0.24906706884228988	0.8668238811445945	-0.4792990348806029	0.13743650985071187
69														9.38457166427961	2.530599272981005	1.2706426285749322	0.005257817067264192	0.28494736923571146	0.9585287435050317	-0.4984930472750653	-0.8302033503645097	0.24953372289524936	0.8668777521531551	-0.47913191691765933	0.13767922505847652
70														9.327928856021003	2.518965245233327	1.1906858191009355	0.005196938605293022	0.2853945698737673	0.9583960200854863	-0.49827193826758176	-0.8302177576628971	0.24992709016082693	0.8670052291446689	-0.4788406982992969	0.13788951478644673
71														9.38322526966273	2.5410752381050723	1.1882880589968445	0.005072941773465844	0.28583977482586426	0.958263997231067	-0.4980385768372784	-0.8302482627330896	0.25029062749249126	0.8671400355442375	-0.47852214719507596	0.13814743356339543
72														9.302690041878057	2.6270218460448214	1.1921813331464692	0.004863914138005576	0.28623418175670867	0.9581473454189215	-0.49781804972981836	-0.8302969640900031	0.25056763714838504	0.8672678546461057	-0.4782017823231026	0.13845404898575459
73														9.29211130809965	2.728170495493974	1.2115846523414682	0.004635804918184827	0.28651855425643385	0.9580634777401568	-0.4977292308418069	-0.8303044305468493	0.25071929598635984	0.8673200805229776	-0.4780184836186521	0.1387595302692416
74														9.288394262913181	2.705433982758964	1.215057819826084	0.00440007105741419	0.28683511167098286	0.9579698628283587	-0.4979239051796266	-0.8301482699139504	0.250849824814659	0.8672095617700256	-0.47809985219781204	0.13916934757003918
75														9.30262749125346	2.605243833212324	1.2586075748101728	0.004133363591854899	0.2870926215536875	0.957893909550974	-0.498422253822388	-0.8298444655113295	0.25086534227514923	0.8669245481586212	-0.4784725589933533	0.13966330258991994
76														9.27793799630305	2.5103611716845737	1.240716927967114	0.0038577170829215413	0.2872897574677492	0.9578359532159096	-0.49888331323133916	-0.8295781030981774	0.2508298439965859	0.8666605781955413	-0.47881600444654304	0.1401237884429991
77														9.325156838401142	2.3829654806665252	1.2026948876053047	0.0036235367701426546	0.28742701689859457	0.9577956879930345	-0.49941961030745935	-0.8292795789895505	0.25074974119878785	0.8663526549977327	-0.4792505501589838	0.14054176372413463
78														9.399204360176812	2.324085417137398	1.2411895022489252	0.003400882269717853	0.28759105904015153	0.9577472614212748	-0.49985669174976727	-0.8290269888859849	0.2507140590625406	0.8661014500119288	-0.4795890266246727	0.1409348921610022
79														9.486130633612264	2.3140945138172686	1.2470687332954749	0.0031890508579352495	0.2877381370818958	0.9577038135160919	-0.5002199205713268	-0.8288179927065471	0.25068060561101496	0.8658925227868876	-0.4798619587282678	0.14128920534573458
80														9.517118111239704	2.3583214488317363	1.2933730120543985	0.002985247020820536	0.28785195061277674	0.9576702683223716	-0.5004063406134898	-0.8287144415527323	0.2506508899560463	0.8657855292011064	-0.4799725293080443	0.1415690239268384
81														9.496192168203708	2.3600586973487334	1.3100325879331371	0.002768842885937317	0.2879702919520593	0.9576353400236011	-0.5006637455362114	-0.8285721382935831	0.25060731343927356	0.8656374226052868	-0.4801471884710399	0.1418820989012744
82														9.452772686513017	2.4118349057710105	1.3748212164672722	0.00262641131800756	0.288038278402892	0.957615294436282	-0.5009711875274838	-0.8284044365455935	0.25054731844280587	0.8654599766776575	-0.48039571156107985	0.14212314759683775
83														9.413595488381821	2.366783516696022	1.3685730774807596	0.00256237435382628	0.28805691991531124	0.9576098606042938	-0.5014246910896761	-0.8281569881081812	0.2504581446334072	0.8651974996515499	-0.4808109960644513	0.1423168038575081
84														9.37720652868708	2.345903357326764	1.362741879008679	0.002543587168929773	0.28807896792498155	0.9576032781917527	-0.5019615832388288	-0.8278553800779658	0.25037978877763895	0.8648861769716765	-0.481316920453919	0.14249885251493583
85														9.37982352176147	2.3185025877909466	1.4184782905787845	0.0025326114982675008	0.28806196873217416	0.9576084210412648	-0.5025277839533455	-0.8275460885845976	0.2502664532518781	0.864557350459725	-0.48185866541806505	0.14266329004892164
86														9.340877144300462	2.2729105326068524	1.4114082704310336	0.002523366075402156	0.2880041442022831	0.9576258379690686	-0.503037274751375	-0.827278386109588	0.2501279114505732	0.8642610328103194	-0.48235265604972744	0.142789293602196
87														9.317070275370366	2.227776804747197	1.3363587642012489	0.002540917718282909	0.28790481173047977	0.9576556599945443	-0.5034759437446041	-0.8270567906537976	0.24997807724662757	0.8640055079729696	-0.4827917609237731	0.14285166354121742
88														9.322139741576388	2.151517206161078	1.3549111816601123	0.0025933425888622907	0.2877230176207512	0.9577101543292863	-0.5037057857190931	-0.8269681042011553	0.24980839871200886	0.8638713770043127	-0.48305198453702247	0.14278313705587342
89														9.36882420937269	2.144491581490178	1.3827133241840028	0.002670789601522894	0.28764637655868075	0.9577329632708516	-0.5037586779161531	-0.8269472185299473	0.2497708793869961	0.8638402984968194	-0.4831333768414738	0.14269575633031484
90														9.353892450504274	2.1946886447338936	1.3969937204172995	0.0027266731871997685	0.28754811174718026	0.9577623132510286	-0.5035655502418899	-0.8270726839955924	0.24974489383751086	0.8639527196918318	-0.4829770789788663	0.1425441662016691
91														9.34723660852947	2.3174817709290303	1.413380633295913	0.0027779773392909712	0.2874047572378277	0.9578051933242832	-0.5033584930327653	-0.8272183072831034	0.2496799943677115	0.8640732088970736	-0.4828129840970955	0.14236963178140155
92														9.343399739991831	2.413476816810657	1.483015602658659	0.0028776397845643453	0.287273728085468	0.9578442067169104	-0.5032517522025018	-0.827297583563166	0.249632494150218	0.8641350548926843	-0.48275512776398716	0.14219034258062152
93														9.34091961955195	2.439646676243119	1.4286997609603147	0.002977604321181715	0.2871272273716996	0.9578878270310917	-0.5033243459610779	-0.827280642129393	0.24954226479863484	0.864092435237897	-0.48287130217048424	0.14205480950964394
94														9.372673739499053	2.48283401634058	1.4711196338691663	0.003104887628405495	0.28697217548767595	0.957933886115678	-0.5037109251985614	-0.8270863371501087	0.24940628447419916	0.8638666931352449	-0.4832961425414923	0.14198300988530066
95														9.341601304260672	2.4373705859762698	1.4281274645094857	0.003272412338715447	0.2867807664674729	0.9579906488592751	-0.5041712900918398	-0.8268540143956113	0.249246362310451	0.8635974765853685	-0.48380701820270394	0.1418808217244078
96														9.421248109385946	2.353275801451223	1.4270235577674943	0.0034310742704164454	0.28660619927748626	0.9580423342760304	-0.5047113455638298	-0.8265734916302616	0.24908376220321282	0.8632813477589446	-0.4843894605272415	0.14181736544453427
97														9.493278546064502	2.3199967839471056	1.40728893811326	0.0035397305245847277	0.28646824296699935	0.9580831989337949	-0.5051040140790368	-0.8263730404283682	0.2489528730792612	0.8630512182188596	-0.4848128956871659	0.141771121552902
98														9.501015166644615	2.319399853914923	1.3734437611918944	0.003629586132074092	0.28633258708408504	0.9581234135946393	-0.5052355388835843	-0.8263212672167035	0.2488578180294822	0.8629738561239984	-0.48498125006964504	0.14166619472323094
99														9.507506890922626	2.439403642925481	1.411089484855742	0.0036750323162278997	0.2861834267353731	0.958167803883784	-0.505239796067388	-0.8263509751255473	0.24875050628861153	0.8629711713651032	-0.4850186719818689	0.1415543896235134
100														9.459290683113439	2.4929587400843904	1.4182758234555435	0.0036998635151596626	0.28606012890593346	0.9582045260069949	-0.5052194826221764	-0.8263907725192376	0.24865953726740098	0.862982957762753	-0.4850236012251139	0.14146561725618023
101														9.415084469428098	2.399124827397898	1.4073020839532422	0.0036883525384113214	0.28592061629364296	0.9582462090891962	-0.5052034780533056	-0.8264376405433694	0.24853625903668775	0.86299237645439	-0.4850260070051623	0.14139989642935635
102														9.422813385944472	2.3475227428910195	1.426164047323408	0.00365947742494116	0.28581547707090466	0.9582776848553389	-0.5051067948571095	-0.8265234447348568	0.24844742118364713	0.8630490913118181	-0.4849417577094778	0.14134269565664848
103														9.38202606807984	2.3505615290120856	1.4524316179468104	0.0036018960980442882	0.2857034320256733	0.9583113143823622	-0.5048798673119943	-0.826688343722245	0.24836002483651523	0.8631821047308165	-0.4847266562533187	0.14126826533215148
104														9.423957715990124	2.4185730180763123	1.4622122749093809	0.003524625392609615	0.2855818212449876	0.9583478493690264	-0.5045654715907393	-0.8269075706751472	0.24826911696492132	0.8633662385652204	-0.48442429019870875	0.14118018689327666
105														9.41862739883524	2.42052550153249	1.407726581876494	0.003475429352357673	0.28548007123296104	0.9583783440372811	-0.5042868439141663	-0.8270973505005058	0.24820304561010784	0.8635292122713085	-0.48416020254030334	0.14108932571327448
106														9.441913773866768	2.39168880819998	1.4480031765117893	0.003411633244394252	0.28545578866125076	0.9583858061753576	-0.5040229391788081	-0.8272608104558345	0.24819433568377858	0.8636835285798625	-0.48389517894244416	0.14105395512391256
107														9.390713462540319	2.4216956849532854	1.4548610316144497	0.0032935078893326364	0.28537948593069645	0.9584089428921848	-0.5037415382825896	-0.8274552953492004	0.2481173045300522	0.8638481437234636	-0.4836075714962492	0.14103227069372104
108														9.43726683447356	2.465944310323054	1.4306149140726003	0.0031977479228935124	0.2853146410797888	0.958428573235238	-0.5035499861037278	-0.827593160519479	0.24804631050736578	0.8639601761094999	-0.48340988430822573	0.14102374924086558
109														9.38337199394434	2.4710619791337978	1.437345143314524	0.0030436782994175404	0.28524181937748205	0.9584507501695819	-0.5035167001147097	-0.8276529278249791	0.24791442831818805	0.8639801321373101	-0.4833505307134403	0.14110491037179557
110														9.38268426946667	2.397341585283691	1.4026713889852964	0.002847138217505041	0.285149948611217	0.9584786907443434	-0.5034577430776832	-0.8277380901881368	0.24774978302073522	0.8640151588595515	-0.48325889630581675	0.1412042648158613
111														9.37260118696803	2.422280252421169	1.3846277306550412	0.002648888949232875	0.28505999715423086	0.9585060153226813	-0.5034193654211945	-0.8278114452947638	0.24758261966041906	0.8640381507238301	-0.4831863088513827	0.1413119422848606
112														9.398713965322129	2.4161817498646543	1.4276805235092478	0.0023725356591661195	0.28495133212383544	0.9585390494890634	-0.5033302880275091	-0.8279291996432474	0.24736988808712396	0.8640908472080296	-0.4830486297454358	0.1414603445222941
113														9.404456009932774	2.4627716872223497	1.4313279734443698	0.0020962697688972076	0.28483742679422996	0.9585735474914265	-0.5032359346884516	-0.8280511491415511	0.24715357258918486	0.8641465151762731	-0.48290675570196645	0.14160461011600167
114														9.39628291881949	2.3881395333592543	1.4309513478297002	0.0017965519449093525	0.28473619584058296	0.9586042307330708	-0.5031383698144412	-0.8281749063186257	0.24693745233277625	0.8642039997717991	-0.4827542059085231	0.14177384616372457
115														9.377880202310596	2.340003760969572	1.4109177707205336	0.0014924948745680955	0.28464243276733214	0.9586325979891068	-0.5029479175975426	-0.8283491264510976	0.24674099151133988	0.8643154312190342	-0.48251052856492005	0.14192401199464705
116														9.383669434973058	2.3865799641793366	1.4143839629350312	0.0012155647992850294	0.2844933229719926	0.9586772510008638	-0.5027434355306951	-0.8285413637216907	0.2465121632556815	0.86443482139084	-0.4822683462415458	0.1420200048599915
117														9.41480971993502	2.407155616234893	1.3699420993201017	0.0009567687781324996	0.28435539167600365	0.9587184653579439	-0.5025397993929565	-0.8287274856976016	0.24630165341592453	0.8645535464154848	-0.4820298389872952	0.14210700090526873
118														9.391770882479653	2.3828319631196293	1.3838805553372573	0.0006565122306052551	0.2842136668674703	0.9587607420819011	-0.5023268012931863	-0.8289255666515193	0.24606948135437984	0.8646776010133759	-0.4817727643995708	0.1422239423885755
119														9.400180221053624	2.402676837995811	1.4407587717616435	0.00036910085064989495	0.28409863121197165	0.9587949893006569	-0.5021061929237822	-0.8291190197338529	0.2458678957146721	0.8648058942861965	-0.481507651921607	0.14234165359722684
120														9.393042144387058	2.4516661192443197	1.4235036410994713	0.0001120712642906363	0.28400323056482374	0.9588233166067537	-0.5018963416379513	-0.8292969501296406	0.24569621640578304	0.8649277713719641	-0.4812574503677008	0.14244724207617127
121														9.385585964747296	2.4498880772222766	1.458973300908426	-0.00012714236464028694	0.2839137192699675	0.958849823405685	-0.5018220426342836	-0.8293953024025189	0.2455159259172197	0.8649708789093276	-0.48114076148558493	0.14257961381592066
122														9.3905205518738	2.42417057823353	1.4263034205954275	-0.00033088251141449865	0.2837949516906862	0.9588849336138541	-0.501816354313892	-0.8294578692717613	0.2453161014818725	0.8649741250811371	-0.4811029707848738	0.14268740113300432
123														9.387832499499323	2.3984181216796747	1.4271491024763159	-0.0005102624729239058	0.28372112068629823	0.9589067031305595	-0.5017519563883539	-0.8295380809186135	0.24517656202484472	0.8650113952386219	-0.48100820989082305	0.14278090952560057
124														9.382190569475108	2.348959564957374	1.4270646319026397	-0.0006576805992613011	0.2836811369966464	0.9589184428138401	-0.5016699151261264	-0.8296148691519655	0.2450846081240373	0.8650588787554147	-0.48089934642735555	0.1428599135242905
125														9.385411310476496	2.423337286346818	1.3762646826760254	-0.0007585333820546714	0.28361504293679934	0.9589379187658943	-0.501542882467134	-0.829716689238371	0.24499990335890784	0.8651324532542205	-0.4807626472795832	0.1428744739519976
126														9.411258811642618	2.4183934275379695	1.418291746346121	-0.0008603908524097426	0.28356887475288983	0.9589514862593207	-0.5013921701456867	-0.8298266735375843	0.24493587651086482	0.8652197128152936	-0.4806000261724158	0.1428931887771192
127														9.408776647886604	2.4447107929690937	1.365546286269957	-0.000962981528935869	0.28354801599109586	0.9589575565655074	-0.5011865942535499	-0.8299607073545783	0.24490247444241067	0.8653387027095821	-0.48038083524949393	0.14290970127285346
128														9.417186250557629	2.517388650162134	1.3686724092488634	-0.001057973112591648	0.28355318458483303	0.9589559281868447	-0.5009972718741902	-0.8300779212081297	0.2448925852234179	0.8654482158208612	-0.4801752140985515	0.14293757203023422
129														9.40227963539175	2.567499513083486	1.3842962142601267	-0.0012179174721771435	0.2834991477807231	0.9589717148511914	-0.5008603491725421	-0.8301903227394454	0.24479162292965578	0.8655272539347274	-0.4800127719523504	0.14300458544686778
130														9.41422749971196	2.4922867361081957	1.3702950124847293	-0.0013384499881320955	0.28350989052586534	0.9589683782720058	-0.5008325678422089	-0.8302200476880421	0.24474764841657604	0.8655431517493557	-0.4799550128823289	0.1431021944937078
131														9.423687836451895	2.4438536594169116	1.302983155379652	-0.0015014604681857224	0.28351180672967485	0.9589675703908543	-0.500729412642319	-0.8302998120988465	0.24468812260405826	0.8656025652291824	-0.4798158787217196	0.14320936280552116
132														9.431616942717849	2.465499153156945	1.3595946759558393	-0.0016378470165002157	0.2835321457696217	0.9589613338255223	-0.5006248645368219	-0.830371850612146	0.24465758667666304	0.8656627879634422	-0.47967917614404953	0.1433032641258622
133														9.369739423944303	2.471470500948764	1.4004896210465332	-0.0017849563531764923	0.2835978002552004	0.9589416570476167	-0.5005487271402828	-0.8304180770256573	0.24465647162348358	0.865706523995898	-0.479560324713608	0.14343677795990423
134														9.369407494691453	2.4717632262222726	1.4021926012297599	-0.0018652149763657144	0.283667098236242	0.9589210073573957	-0.5004808225357692	-0.8304493494052319	0.24468924035671763	0.8657456134725792	-0.47946517647338877	0.14351890921523303
135														9.41729488550003	2.4178569806936787	1.3966257259554775	-0.0018713204796507732	0.2837778203108659	0.9588882348111673	-0.5005066471209452	-0.8304076513641391	0.24477791718952951	0.8657306707905249	-0.47947187743965586	0.1435866442155379
136														9.387796253535065	2.3481391876456317	1.4085538763664485	-0.0018675062261935271	0.2838731094762138	0.9588600367815945	-0.5004850292604325	-0.8303947547991688	0.2448658544758996	0.8657431766445978	-0.4794378050574798	0.14362500887723867
137														9.37642397204698	2.3034735258805306	1.35365541113691	-0.0018431935990586013	0.28404248095917406	0.9588099246711593	-0.5003567709906932	-0.8304190603113897	0.24504547740228944	0.8658173620118298	-0.47929537164686475	0.14365320169342
138														9.375816736225286	2.3057016193603226	1.354068119294489	-0.0017519725384678164	0.2842165672207261	0.9587585063557409	-0.5000711253874132	-0.8305197034640117	0.24528736557722763	0.8659825634191436	-0.47901770851954617	0.14358354633694126
139														9.34733164566191	2.3612512406443544	1.3478551017694929	-0.00165077392218127	0.28446001470664994	0.9586864841951988	-0.49963477640731657	-0.8306842754523939	0.24561906424490515	0.8662345901370305	-0.4785876456295383	0.1434973877842619
140														9.407431988351135	2.5301158278399227	1.3264955903976396	-0.0015373692727913557	0.284640884482834	0.9586329867976323	-0.4991440901876262	-0.830892777986202	0.24591130254858024	0.8665176361312482	-0.4781179335385805	0.14335420434124557
141														9.381790546202652	2.609744643375152	1.3203337428861297	-0.001447960330750897	0.2848015760813526	0.9585853982157553	-0.49875263085533217	-0.8310547620639751	0.24615807048657706	0.8667431664719172	-0.47774056213845545	0.1432488696704699
142														9.404808428576946	2.656316585323119	1.3964725177658508	-0.0013398156755923263	0.28495763925572304	0.95853917432923	-0.4986293650845356	-0.8310672888974193	0.24636541478074298	0.8668142599019408	-0.47762569565979157	0.14320172371920598
143														9.39504882356371	2.5130402344114975	1.3589249938639392	-0.0012192264973219236	0.285118591994427	0.9584914720464986	-0.49869165916305147	-0.830974489403087	0.24655228054609823	0.8667786006633708	-0.47769109941508703	0.1431994098160127
144														9.40381801118664	2.415925578401287	1.343820478804216	-0.0011203703693928868	0.2852704899585596	0.9584463951254859	-0.49880678437928955	-0.8308579254656538	0.24671217956984423	0.8667124878686291	-0.47780315533670714	0.14322572437540054
145														9.397708919452725	2.369045656090752	1.3431657186293062	-0.0010649132112455773	0.2853894592542898	0.9584110404760566	-0.49883412440355634	-0.8308043488584688	0.2468372950921191	0.8666968225916087	-0.4778252718980032	0.14324673554817768
146														9.420490908242027	2.393191590151863	1.33153658075112	-0.0009603880282016419	0.285576926097249	0.9583553082942053	-0.498810178851495	-0.8307543975771724	0.24705371152915048	0.8667107263262492	-0.4778001153066369	0.14324652416023786
147														9.422693316493293	2.4194134647959604	1.3328011323130224	-0.0008537969247309762	0.2857018934871205	0.9583181617232794	-0.4988286108333264	-0.8306968563393344	0.24720993079170833	0.8667002296324291	-0.47782545027009765	0.1432255250619574
148														9.37094269098627	2.451504431026386	1.3393754772103483	-0.0007329134181193186	0.28585513180965416	0.9582725637604402	-0.4988665374221628	-0.8306192005165511	0.24739426342109755	0.8666785105668328	-0.47786879721460246	0.14321233176764425
149														9.390954018355437	2.451401770080558	1.32684365993451	-0.0005784666652010606	0.2859877975023411	0.9582330849308417	-0.498989570496619	-0.8304950907418627	0.24756274515618296	0.8666077970523444	-0.4780051086896724	0.14318534196857452
150														9.362136010937734	2.455001884044281	1.3740809311180189	-0.0004431103102774392	0.2861347702668575	0.9581892803082205	-0.4991464550164961	-0.8303512525321317	0.24772891204456762	0.8665175244031237	-0.47816701126557526	0.14319109343681025
151														9.392222959656461	2.4286214694240416	1.3815370320397364	-0.0002573519823215742	0.28628887560664185	0.9581433157277895	-0.4993628410968367	-0.8301654288010618	0.24791553754302126	0.8663929170426391	-0.47839736676473726	0.14317567101610829
152														9.396166335290351	2.3560297199640616	1.4004799493318711	-7.459768897433161e-05	0.2864913314653941	0.9580828311948664	-0.4995389808578431	-0.829989603975755	0.2481492774433912	0.8662914065363299	-0.4785812097098624	0.14317550305115878
153														9.385408251355441	2.3848308652365606	1.3807440841303382	0.00021652287704360118	0.28665115517309203	0.9580350037215632	-0.4997491845589904	-0.8297903313066646	0.24839234811604083	0.8661701366651173	-0.47883099451467026	0.14307401246076784
154														9.361578390828978	2.364762880184473	1.392653310107388	0.00046175331489012317	0.2867640117184165	0.958001142153305	-0.4998885209785805	-0.8296488427067854	0.2485845216201918	0.8660896335701775	-0.4790085587736948	0.14296694458448883
155														9.38714644861665	2.413596003487662	1.3804599614567274	0.0007733064792721511	0.28688853392092684	0.9579636585496286	-0.5000349873530471	-0.8294907436213539	0.24881743843495083	0.866004857619128	-0.47920775802484006	0.14281285386434622
156														9.388918937696015	2.367746240211819	1.344136382296321	0.0011149329535761754	0.2869893620027117	0.9579331203282333	-0.500138274548739	-0.829358240900484	0.24905142959209225	0.8659448384602331	-0.47937669358003965	0.14260968549277975
157														9.411503049908088	2.341917815401677	1.3831988492599903	0.0014596699008439518	0.2871069285909912	0.9578974271386413	-0.5002039082201848	-0.8292416677734207	0.24930765457484325	0.8659064150155225	-0.4795079436082408	0.14240158865533276
158														9.403587629210897	2.3952797980231537	1.3625233433441801	0.0017837275764530092	0.287226212290827	0.957861117954476	-0.5001447661771231	-0.8291966249055067	0.24957598063705594	0.8659399697332169	-0.47951440042858157	0.1421756258999906
159														9.421381409999658	2.444555858039915	1.3831253019357894	0.002095056040034571	0.28735977610368285	0.9578204267073402	-0.5001039511859683	-0.8291394609243963	0.24984753820317138	0.8659628449006185	-0.479533224516971	0.14197266580572615
160														9.385144769983864	2.4996686371613124	1.4092056918426867	0.0024524405530843008	0.28748085548538754	0.9577832444059166	-0.500170865596126	-0.829019139346099	0.250112718202565	0.8659232591541562	-0.4796686609809352	0.1417564281738256
161														9.382353912039163	2.5506617659249726	1.443019524212344	0.002815907134837037	0.28760089148921414	0.9577462074483084	-0.5003777548078424	-0.8288205110565536	0.25035707089159054	0.8658026178988324	-0.479939879220891	0.14157520677352337
162														9.41000121976659	2.5003942704513515	1.4480306227195108	0.0031577355296619203	0.28766601951317006	0.9577255817423764	-0.5007215942137332	-0.8285632025440592	0.25052126552049425	0.8656026304225182	-0.4803449600103876	0.1414242044285095
163														9.35486050142459	2.362944108261583	1.3806982885178065	0.0035199934275822464	0.28774673729719974	0.9577000703879509	-0.5011306040179281	-0.8282623318196803	0.2506982796216445	0.8653645054905456	-0.4808152710381004	0.1412832183016145
164														9.354488211818877	2.3649290330297443	1.3798219712290092	0.0038557566846542657	0.28783611873723236	0.9576719176684018	-0.5013875578414729	-0.8280472206884243	0.2508950321388192	0.8652142220179647	-0.481132174210436	0.14112470002585042
165														9.372303587865964	2.413687099381798	1.4009071163312214	0.00422627728391467	0.28795449882493684	0.9576347660704465	-0.501557335879028	-0.8278677268160802	0.25114789611363997	0.8651140834631299	-0.4813701626636774	0.14092689271708714
166														9.371750106375591	2.4164289208475354	1.3998828416126081	0.004561156787543541	0.2881230076635888	0.9575825438590906	-0.5017309507036324	-0.8276779657419241	0.25142640698888385	0.8650117045189556	-0.4815955953704293	0.1407850615832983
167														9.34070452624047	2.51978335755077	1.4282745402101404	0.004913907080667246	0.2882416688030647	0.9575450871279257	-0.5019388005347349	-0.8274794236409537	0.2516649438610523	0.864889180204582	-0.4818656906405139	0.1406135205042049
168														9.360651153956779	2.5205460377052926	1.414585918973287	0.005216619914933218	0.28841859636392597	0.9574902089045744	-0.5022145256393835	-0.8272348475173243	0.25191879106132115	0.8647273310781102	-0.4821796556517615	0.1405326387786004
169														9.362718342677459	2.4962490383394877	1.467847033240245	0.005535316377456356	0.28854414394827316	0.9574505925977381	-0.5025664222566238	-0.8269586757918916	0.25212365964482236	0.8645208797321084	-0.48257810303170573	0.14043512018559345
170														9.44707680103431	2.4643567553161647	1.46891731695032	0.0057921784678743315	0.28865667132134126	0.9574151538231886	-0.5029085835296665	-0.826700153516521	0.2522891452043573	0.8643201995098698	-0.48295360261358844	0.14037952287201733
171														9.405226569098337	2.3974012385009695	1.4589036514398201	0.006073445145906908	0.28879590117239506	0.9573714225576635	-0.5032399388045902	-0.8264367557456691	0.2524912924132752	0.8641253828328459	-0.483321028115473	0.14031431333042993
172														9.453464862849007	2.345469932539263	1.45152828598087	0.0063358117434511585	0.28894408511437264	0.9573250091619718	-0.5034429240574979	-0.826245355080101	0.2527129506475561	0.8640052544435062	-0.48355964356630915	0.14023192007540974
173														9.419446296840022	2.351709731113991	1.4436996975601024	0.006560904196895145	0.28908934975689854	0.9572796364664052	-0.5034452394305814	-0.826172420869269	0.2529466779574229	0.8640022253621827	-0.4835974347038508	0.14012021880175263
174														9.424048591131472	2.402778313411756	1.4451735760751117	0.006716576822599629	0.2892760973028274	0.9572221409500681	-0.5033259200361149	-0.8261667922315435	0.25320238868075645	0.8640705444670507	-0.4834953680678726	0.14005114509109828
175														9.39276048481064	2.5056564773484133	1.4746803518133262	0.006834535659483609	0.2894047661214556	0.9571824123271933	-0.5032138020324484	-0.826178007700139	0.25338857321646746	0.8641349191916545	-0.4833991941851111	0.13998592963158146
176														9.304712036497142	2.5169212979514035	1.473079372754432	0.006896033365634602	0.28954558805438685	0.9571393823064951	-0.5031865914569682	-0.8261468279575428	0.2535442226389868	0.8641502756475508	-0.48336815275101574	0.13999832143398194
177														9.273154444296456	2.474081185064927	1.4308636102689365	0.00696348576957212	0.2896468123342565	0.9571082665877155	-0.5032058405482779	-0.8260992425036475	0.2536610407078737	0.8641385258765164	-0.4833888348312407	0.1399994373433603
178														9.249720433500665	2.4016339937806666	1.496799778984118	0.006926326129381322	0.28975725416753073	0.9570751065949017	-0.5032695823768448	-0.8260398196017774	0.2537280904561003	0.8641017031927349	-0.4834241927019746	0.1401045911091372
179														9.241654188845912	2.401936543859237	1.532181801678179	0.006855920019313566	0.2898529710751393	0.9570466297519697	-0.5033587707888344	-0.8259749853132936	0.2537622342009518	0.8640503134833313	-0.4834775887211521	0.14023721679261203
180														9.241287264798867	2.4021368454608645	1.5340797493570515	0.006771435104469259	0.28990250556577213	0.9570322277401708	-0.5035313194436892	-0.8258778198539507	0.2537361562974099	0.863950437239269	-0.4836138583001666	0.1403826130762031
181														9.382546897821761	2.3869447054039274	1.5325873892829167	0.006643335919739535	0.2899296206927237	0.9570249114484071	-0.5036521617972807	-0.825821990973053	0.2536780225841984	0.8638809906490499	-0.48369293386432327	0.14053746733501382
182														9.521307493273971	2.346990445755402	1.5305398897515776	0.006415280891771791	0.28991682756458376	0.9570303429181165	-0.5036993253804171	-0.8258328118874301	0.25354912033255794	0.8638552157522653	-0.4836821269232393	0.1407329610028119
183														9.631627199840375	2.337477311371612	1.4342054344002306	0.006146627057962151	0.2898868601782834	0.9570411836863593	-0.5036612173375481	-0.8259019186745873	0.25339968208286184	0.863879388066338	-0.48358208096000893	0.14092825780700574
184														9.706329542099738	2.400715689653262	1.454974984058977	0.005664148432775018	0.28981099113284237	0.957067138105333	-0.5033576746798529	-0.8261632629397793	0.25315077386725454	0.8640595863500528	-0.4831809727082577	0.14119907524229436
185														9.670469310221332	2.50103828759209	1.43387726983934	0.005008766397026687	0.2897065946491182	0.9571023985321482	-0.5028172835566954	-0.8265895718209246	0.25283286794553744	0.8643782109793404	-0.48251400888856205	0.141529288878461
186														9.596195197782569	2.606654042880971	1.3516656735185062	0.004146608116330386	0.2895564794961393	0.9571519476148659	-0.5022019790054083	-0.8270992072479832	0.2523887351939634	0.8647404107153663	-0.48173015947889225	0.1419861807510152
187														9.483654832224563	2.6878389566480925	1.3502003082580039	0.0030722247003537317	0.28937143945774396	0.9572119574376117	-0.5016681688713125	-0.8276025105922403	0.2517997871379667	0.8650546860035468	-0.48097635543504025	0.142625859281306
188														9.36059540201425	2.6201860671449424	1.3992063176331795	0.001948515937689188	0.289158102800694	0.9572793713803425	-0.5012959975995613	-0.8280293350428201	0.2511369011101427	0.8652736712025282	-0.4803696617119448	0.1433403712512653
189														9.232382483554803	2.554348623043	1.3947304636500735	0.000742321246458788	0.288938697626538	0.9573473131382613	-0.5011015445728877	-0.828370020339485	0.2504003822469691	0.865388173587919	-0.47991409483014974	0.14417271100150914
190														9.121630669114612	2.4113769565179566	1.4298622895983442	-0.0005509739169813899	0.2887416776330624	0.9574068832139179	-0.5008095983982184	-0.8287704434499679	0.2496583630002408	0.8655573017310635	-0.47934100143988256	0.1450612345137478
191														9.003161030349402	2.319258680068933	1.4459416422505968	-0.0018235347610366381	0.2885535108061447	0.9574620337759732	-0.5004892248415092	-0.8291800984444118	0.2489395512192874	0.86574084490598	-0.4787454811746666	0.1459299616813366
192														8.96912861885249	2.1938909422003072	1.463441587113682	-0.003046992659523906	0.2884387394108545	0.9574935036034502	-0.499983579559628	-0.8296647665927056	0.2483400798208229	0.8660295237498974	-0.47797433893646296	0.14674261586797932
193														8.976351458466802	2.138480398196474	1.490137478723885	-0.0041056385725978806	0.28834434501231443	0.957517980213077	-0.4993237062604824	-0.8302042273420971	0.24786443324851387	0.8664057825858543	-0.47709378491312465	0.1473856855297096
194														9.02196767212206	2.0562637389447165	1.48917140563972	-0.005066995131350949	0.28831666569845316	0.957521710375731	-0.49841933367994795	-0.8308454118375568	0.2475359962561351	0.8669212728814397	-0.47599306918169193	0.14791249006293344
195														9.124187128922383	1.993857745723062	1.4827645017097457	-0.005808762402281398	0.2883403713289834	0.9575103594955082	-0.4972820496264905	-0.8315677316238252	0.24739779878018714	0.8675694908182457	-0.4747156390765627	0.14821687021894708
196														9.206821844651227	2.0579634403910987	1.4702184560908103	-0.0064098621810390055	0.2883353997352953	0.9575080213378407	-0.4958706173575529	-0.8324245444875016	0.24734936542512942	0.8683727566594076	-0.47321461832266165	0.14831277927905684
197														9.313033489970904	2.145162412726998	1.4436222662815903	-0.006822678529565751	0.2883331218780575	0.9575058547527195	-0.4943872209426763	-0.833289806754542	0.24740528233559636	0.8692150060981807	-0.4716906918596465	0.14823347930446895
198														9.39406892482854	2.236710815624147	1.3739503997514466	-0.007163006231944935	0.2882912728451368	0.9575159702809408	-0.4928422423821335	-0.8341848402957754	0.24747156673941678	0.870089199717748	-0.47013167753517965	0.1480573885778293
199														9.470081150006074	2.352241112159698	1.3372001354311978	-0.007383008838593386	0.28816930443630107	0.9575510133466453	-0.4914469653179291	-0.8349994924921049	0.24749894508406495	0.870876209033343	-0.46875825274721855	0.1477847387962889
200														9.55419974486723	2.393778352616226	1.2307570302301898	-0.007591210194536291	0.28793969463871205	0.9576184552206309	-0.4901846123133735	-0.8357660476196798	0.24741495406981098	0.8715855777713225	-0.46753165229484117	0.14748808332704605
201														9.49837482267144	2.4469284175017894	1.2679196501552012	-0.007812517421380671	0.2875966668231013	0.9577197511818282	-0.48910886192704967	-0.836461452849351	0.24719376829034248	0.8721877583158154	-0.4664980119243761	0.1472009480765588
202														9.45759348174748	2.375702491347777	1.2561724960485685	-0.007988722807249715	0.2872059647143806	0.957835536060545	-0.4881644625791554	-0.8370910030032773	0.2469293627047467	0.872715095425027	-0.46560861946859394	0.14689103340175924
203														9.478113853328775	2.4688837067925404	1.22170920935345	-0.008203033302133456	0.2866365679043252	0.9580042735732827	-0.4871861202968814	-0.8377883547266802	0.24649615995880053	0.8732596374702751	-0.4647043690610097	0.14651776322648435
204														9.446419043562617	2.4680329049718934	1.2107711386474962	-0.008488710130772348	0.28599796935576915	0.9581926232886017	-0.4862484600518985	-0.8384898525815426	0.24596179015233288	0.8737793639686583	-0.4638317891673225	0.14618376948337164
205														9.445493528333381	2.4378798158968387	1.2074484578920877	-0.008752334430975395	0.28523703849100596	0.9584170431053949	-0.48539933052023415	-0.8391709850955154	0.2453152007200745	0.8742487555453062	-0.4630679104048372	0.14579857262943557
206														9.387250683302382	2.412404590113569	1.2966036344502732	-0.009035053722322273	0.2844490170814065	0.9586485928042956	-0.48454187696332524	-0.8398642829733922	0.2446367831182532	0.8747214055189756	-0.4622950820277144	0.14541567955312196
207														9.371676608890738	2.4320942152644305	1.3062492411716522	-0.00929574704352304	0.28358579063866757	0.9589018137613176	-0.48367021455483555	-0.8405794422015009	0.24390433555124158	0.8752009555749937	-0.46152497299285455	0.1449758140675979
208														9.386603097682498	2.4235505881853134	1.3232150677245738	-0.009449483965383143	0.28277092100978857	0.959140924725905	-0.48297265735752887	-0.8411745064954281	0.24323417084608018	0.8755844445270798	-0.46094040379798457	0.14451928815475112
209														9.384683126276842	2.3433009345266367	1.372360914149974	-0.009472005981818021	0.28194317011999054	0.959384349426949	-0.482404759195105	-0.8416858883224247	0.24259124820323413	0.8758972139518386	-0.4605137503067422	0.14398318085744038
210														9.381772558588073	2.3623757916360084	1.4011681975489363	-0.009381295764853359	0.2811445538579329	0.9596195762518582	-0.4818265067789159	-0.8421793630008753	0.24202714290068172	0.8762164165632822	-0.4600996200514228	0.14336363197665158
211														9.352186993467166	2.3362700771496248	1.4417738891416776	-0.009170429226338206	0.28043402181149696	0.9598294966495007	-0.48143096577960404	-0.8425381119595841	0.24156521911090045	0.8764360378352334	-0.4598763848103189	0.14273605808438544
212														9.396307598595795	2.4008875955908366	1.4445909875415557	-0.008802856061658926	0.2797487408665915	0.9600328909515103	-0.48111633295641465	-0.842826994313651	0.24118402065391759	0.8766125620179819	-0.4597643957939475	0.14201097307073257
213														9.455040588137093	2.4154538644589745	1.4335590821651876	-0.00833046675310628	0.27915083701686366	0.9602111296566295	-0.4809943082413424	-0.8429788984197588	0.24089635169184945	0.8766841385374259	-0.45984930902611476	0.141292371432774
214														9.459637379002285	2.4373180633192857	1.427124637976989	-0.007780193505100064	0.2785830811740825	0.9603806201046425	-0.4808947802188954	-0.8431010878101186	0.24066733490778267	0.8767437932185453	-0.4599695887957693	0.1405286392014362
215														9.473085910832667	2.5323493775672135	1.421365617331823	-0.007202895110974328	0.27806559554053983	0.9605350815450237	-0.4808964034694931	-0.8431539746325736	0.24047873958294058	0.8767478357156787	-0.46018572298364296	0.13979389446572782
216														9.492047038138253	2.5043393894466246	1.4018108838313503	-0.006593055207197607	0.27762099289846687	0.9606680570962609	-0.48098082116048724	-0.8431407855151476	0.24035612219513755	0.8767063255724912	-0.46047822978178876	0.13908924688203567
217														9.51263918940833	2.4279650310180916	1.3483713530791228	-0.005985751748874335	0.27725751638810436	0.9607769982583376	-0.4809843246535259	-0.8431500594037522	0.24031657613456747	0.8767087602012387	-0.4606802002840472	0.13840340621768582
218														9.53410346584175	2.4255401828016865	1.329418160344929	-0.005432521679066049	0.27694045067039064	0.9608717263457637	-0.4807960446987556	-0.8432555860777994	0.24032307411195475	0.8768156311963419	-0.46067776517981507	0.13773287755177577
219														9.520176419157238	2.477122271263196	1.3365589748477567	-0.004840311792403518	0.2766900206464585	0.9609470348861143	-0.48051081119695177	-0.8433902450995063	0.24042099491068264	0.8769754453259225	-0.4605817266736247	0.13703481801988426
220														9.478452569225757	2.433923232185521	1.4100933908775153	-0.004266923972278125	0.27652506538377153	0.9609972328650666	-0.4801642359658771	-0.8435381489375465	0.24059446748901459	0.8771682277984764	-0.4604099037830506	0.1363767598946456
221														9.478683496699603	2.436583959285152	1.403932965549044	-0.003573992079350108	0.2764689069007252	0.9610162173958017	-0.4797695545764194	-0.8436682199063037	0.24092552629738642	0.8773872583313258	-0.46020525663799916	0.135656627853535
222														9.504211521129797	2.437085209733914	1.4389230522808598	-0.002862320569870125	0.2765120256521856	0.9610061949803859	-0.4792815387913282	-0.8438196266783635	0.24136620352941437	0.8776565465458404	-0.45990166046896497	0.13494239142358844
223														9.499114462394038	2.466980539416106	1.4663200984220277	-0.002112833852322915	0.27662878267807206	0.9609745327151811	-0.4787781233213522	-0.8439552324340915	0.2418906246136932	0.8779333941490075	-0.45958250863274436	0.1342269466122093
224														9.440536674015496	2.381735950798667	1.4308900403809914	-0.0013400261120193324	0.2768444090423909	0.9609138241861174	-0.4782897275132199	-0.8440545113227492	0.242509625522462	0.878201082261545	-0.459270241903048	0.1335428920495837
225														9.416248573476777	2.3667242486464612	1.4375360051278283	-0.0005268206373866824	0.27714529944324445	0.9608278750413781	-0.4777263309904763	-0.8441654899220987	0.24323276568538343	0.8785085515453983	-0.4588846354162418	0.1328443308557387
226														9.373047483807504	2.3060184198032054	1.423106386303504	0.00030657070280087906	0.27754645445232995	0.9607121689847299	-0.47698094708195116	-0.844342466539574	0.24407985438923951	0.8789135805841256	-0.45831622796799176	0.1321255200405383
227														9.401094375303463	2.385132331264662	1.404116416041704	0.0011446363992347885	0.27799103294365457	0.9605829872584841	-0.476137405165044	-0.8445576061167135	0.24498085915659756	0.8793701502838336	-0.4576499050074477	0.13139521770773022
228														9.494757790708189	2.383171588394373	1.3665488755519073	0.0019411451356868836	0.27847312534917146	0.9604420598942065	-0.47518115711536235	-0.8448256942082613	0.24591139527893885	0.879885844799237	-0.456861319071547	0.13068525264213499
229														9.511812465644136	2.439803917336516	1.3810659594279489	0.0027105677110331183	0.2790096164685826	0.9602844821930312	-0.4741531098135323	-0.8451187915668225	0.24688672826782254	0.8804382325165347	-0.4559910767314288	0.13000252560805103
230														9.502891514938568	2.4999127820533893	1.3543602793629226	0.0034517295695321026	0.2795799663664981	0.9601162054509269	-0.47307942403238173	-0.8454284140602644	0.24788435863671587	0.8810130215383702	-0.45506685124941126	0.12934533920392116
231														9.493773636594957	2.559898003830007	1.3282268577758236	0.004146550773508506	0.2801753937534303	0.959939870435536	-0.4722071666252377	-0.84563167954589	0.2488522741229473	0.8814778487882995	-0.4543223649387159	0.12879437414749334
232														9.489372416199902	2.5942373233460576	1.269306811766112	0.004783974249833067	0.2807626848767778	0.95976529858667	-0.4714663646017313	-0.845775350241834	0.24976693931049038	0.8818710680363679	-0.4536919348016735	0.12832399485797552
233														9.505183199666075	2.5764726498207073	1.2528241166956062	0.005374425818444051	0.2813426394850455	0.9595923273738229	-0.471018751471415	-0.8457751649453853	0.2506106664208766	0.8821068253388769	-0.45333286839715714	0.12797210290283728
234														9.544330829111045	2.5801041887204166	1.2242940438763346	0.00588627348768167	0.2819280676613925	0.9594174880880283	-0.4705878952512245	-0.8457745403082193	0.2514208818086583	0.8823334883293569	-0.4529701884574018	0.12769347571984713
235														9.493168873357536	2.519770697248157	1.248713017720036	0.0063332177586187255	0.28247216188017776	0.9592545898329392	-0.4702875965925952	-0.8457256511857079	0.25214618660148413	0.8824904910785056	-0.4527224322797013	0.1274869894019346
236														9.429888257707246	2.582877680576228	1.2325608902483938	0.006621799664122907	0.2830575681631354	0.9590800617648035	-0.46997426115992685	-0.8456932673690267	0.25283807342621495	0.8826552813054417	-0.4524171864908219	0.12742976006937995
237														9.399973579146558	2.641775674932901	1.2249865334801575	0.0068519718809826324	0.283614574929014	0.9589138769301323	-0.46975007335895536	-0.8456299714772252	0.2534656188098961	0.8827728581354314	-0.4521866033257312	0.12743373459229523
238														9.36734189508272	2.675934269946472	1.2180823055668633	0.007066082742576862	0.2841768398248483	0.9587458444143776	-0.4696794654088413	-0.8454883006995424	0.254068363149499	0.8828087393359564	-0.45209850374377836	0.12749773591988495
239														9.367791142127341	2.6321440495307074	1.186314428940932	0.00722373544221383	0.2847192777807144	0.9585837211773887	-0.4698180348327887	-0.8452519955244839	0.2545978754972919	0.8827337264385664	-0.4521990678030046	0.1276603747682739
240														9.3994622359262	2.584514498871338	1.2510349114489197	0.0073545318782290425	0.2852143028207496	0.9584355546030869	-0.4701561381437748	-0.8449292978156313	0.2550444813331917	0.882552614084047	-0.4524900917802055	0.12788119570193796
241														9.428453064765268	2.4871248067004457	1.2281726399882782	0.007507548521780816	0.2856537805484699	0.958303477179103	-0.4706278400187822	-0.8445493521371041	0.25543262909043796	0.8822998769774644	-0.45292196840423216	0.12809612649251773
242														9.431954588481085	2.4171394661436456	1.2519752223748735	0.007643776381908551	0.28615052778760086	0.9581541880770035	-0.4711103061007914	-0.8441503312316355	0.25586187243733605	0.8820411850748484	-0.4533520637742796	0.12835596637227087
243														9.443275829243223	2.420216977967212	1.2759101335052523	0.007733845330862965	0.2866680066404085	0.9579987691042265	-0.47149081091560197	-0.843803972453669	0.2563030848303546	0.8818370613999768	-0.45366982491700125	0.128635481501921
244														9.416022997044287	2.5010989032957585	1.2715788215826045	0.007784149679181174	0.2871943102817713	0.9578407149184827	-0.4718291747783067	-0.8434819568620582	0.2567399818418924	0.8816556225884313	-0.4539356965363386	0.12894086461737014
245														9.422106331264532	2.5783501338014303	1.275418765311839	0.007816250105775802	0.28774027766065435	0.9576765836366958	-0.47227865208985875	-0.8430994983189082	0.2571694202555805	0.8814146476060345	-0.4543003065662346	0.1293037139426208
246														9.438328983022025	2.6790114141935844	1.2462992934147143	0.007857470893111174	0.28831078638088237	0.9575046478255868	-0.4729283655864709	-0.8426052939386449	0.25759479740530256	0.8810658438362441	-0.45485515176043323	0.1297296024125566
247														9.4364525033864	2.75653504264553	1.285719870918559	0.007834018779717733	0.28886480019294375	0.9573378480762421	-0.4739314958877841	-0.8419408746673082	0.2579234397452385	0.8805268680485149	-0.4557331354794592	0.13030634624121196
248														9.411474997548	2.7864621885391796	1.2515439006210811	0.007761648319230929	0.2893723878865416	0.9571851325340407	-0.47526304224713756	-0.8411238232702088	0.25813902184927706	0.8798095234136555	-0.4569183023869222	0.13099949410012623
249														9.414968562397883	2.7633736283389623	1.2264406884089174	0.007606312670735305	0.28986952368705915	0.9570359466838185	-0.4769059401564704	-0.8401565040014644	0.25825911993095396	0.8789214232518334	-0.4583805275330479	0.13185000465489816
250														9.439190625339641	2.6879661821906056	1.2439271334087787	0.007326213380185964	0.29035026775795747	0.9568923913431389	-0.4787154673787035	-0.839120391737842	0.25827982782656544	0.8779395354407373	-0.459971401483411	0.13284758909174565
251														9.399181331310581	2.593538488961753	1.300667170634065	0.006976266161837885	0.29079344914376326	0.9567604201917599	-0.4805521535874222	-0.8380858680346851	0.258228010647643	0.8769384011394015	-0.46157474772307705	0.13389470815326499
252														9.413494091118686	2.469390947910861	1.2641318061570153	0.006534186108278106	0.2912776520547091	0.9566162416692486	-0.48223178535634426	-0.8371322162435493	0.25819015806028767	0.8760192975065876	-0.4629978206651295	0.13499336448657578
253														9.429788032423966	2.4666176331855243	1.3502764970563819	0.006073903156284199	0.291761486194758	0.9564718202194323	-0.48369905512231853	-0.8362905388785142	0.2581731176092129	0.8752133064426205	-0.4642126342051779	0.13604520744982307
254														9.415386107713665	2.4183740589823177	1.3938765408116596	0.005556549398224475	0.2922294115150152	0.9563321053924589	-0.4848819406040306	-0.8356101386823276	0.2581573160059014	0.8745619637480553	-0.4651426310035337	0.13705365514372891
255														9.454590516069954	2.4381657552162457	1.466717271513481	0.005055289983296962	0.29277015180508753	0.9561694840639974	-0.4858796325577956	-0.8350049745876491	0.25823956915891294	0.874011113607079	-0.46588875348725195	0.13802986149890994
256														9.398676890032004	2.444624223454722	1.4818118436377736	0.004555089348034669	0.29333150644187195	0.9559999364485193	-0.4868166580822659	-0.8344254329193075	0.25834809523400826	0.8734922968032662	-0.4665734928454123	0.1389977812750488
257														9.411932681870422	2.468617446905024	1.5132327165539636	0.004035510366369455	0.29396490477910436	0.9558076947871339	-0.4876857687860731	-0.8338646299534651	0.25851957341003684	0.8730099115013641	-0.46717706886231336	0.13999743122499625
258														9.4172965038755	2.5429947475137555	1.525039699939083	0.0035219084451720284	0.2945749504600977	0.9556218889928879	-0.4886201980972181	-0.8332734569396845	0.2586612610562772	0.8724894831299342	-0.4678471379854954	0.1410005578231575
259														9.369013792714044	2.5498647112074893	1.5069707385618947	0.0030402538492832476	0.29523894481004265	0.9554186110412465	-0.48967485516203746	-0.8325974763398454	0.2588435408013081	0.8718998182581356	-0.46863142005202063	0.14203977985570465
260														9.380076038595563	2.476941629003733	1.5036114113487218	0.0025154162183556594	0.29591345066492913	0.9552114438158822	-0.49070748759874994	-0.8319355513802835	0.259016215639303	0.8713207413437204	-0.46938094131010244	0.14311428174389546
261														9.400677321987793	2.4511275507742964	1.5556908049022766	0.001968743530477046	0.2966242465834256	0.9549922410091747	-0.4915936556401404	-0.8313448600710313	0.25923233086912556	0.8708224858048128	-0.4699784888399594	0.1441818929145885
262														9.401465355976878	2.4049308723488663	1.5316565662387334	0.0013914576509843624	0.29734118913993157	0.9547702766039887	-0.4921416008258048	-0.8309389301501418	0.2594940058990808	0.8705140484691902	-0.4702432472686763	0.1451777524829161
263														9.445876892148728	2.329884260549319	1.535121404371647	0.0007714622172465546	0.29808561314843074	0.9545388269106561	-0.49218309700809104	-0.8308051105860219	0.25984354377908264	0.8704913577202082	-0.4700083355197779	0.14607176550023793
264														9.484555599797622	2.2805599207591234	1.571211810480706	0.00019481193126669183	0.29885690240893653	0.9542979167591464	-0.4914441893834793	-0.8310781098984754	0.2603685541089642	0.8709090485059426	-0.4690348890329088	0.14670958421439462
265														9.483348351359837	2.0912063932885405	1.5606023026282156	-0.0004686583643506159	0.29973315690064656	0.9540229635672878	-0.48960043012459825	-0.8319262158063582	0.26113251478113897	0.8719467868976561	-0.46696767137403183	0.14713937172072045
266														9.470826439305148	2.0034969223865975	1.5637967097795045	-0.0012239953457414132	0.30073175523197476	0.9537079811087293	-0.4864707561367834	-0.8334311666203946	0.2621806513255195	0.8736960027716157	-0.463630134806683	0.14731732023098004
267														9.373096301866005	2.1225528304085586	1.6317999195133632	-0.0020376969001881795	0.30184472347304786	0.9533549237838045	-0.48188963814880076	-0.8356576206835429	0.2635502184372825	0.8762295500815768	-0.45887482378640115	0.14715866151483725
268														9.224532637718577	2.4221606022280753	1.681275869975612	-0.0028897172217054456	0.30309722243499493	0.9529552577569268	-0.476233886982649	-0.8383709215625528	0.26520837612668724	0.8793138998240487	-0.4530632093102994	0.1467678232640785
269														9.125463790339792	2.7688895524526074	1.7546998922484593	-0.00370179329753767	0.3044841311196332	0.952510215495196	-0.47018226128959534	-0.841190405307058	0.2670717940703406	0.8825615773955863	-0.44686476244572	0.1462769503009454
270														9.136281046863118	2.9602399291862835	1.7486350310636483	-0.0044006447123656756	0.30604932829913645	0.952005484739328	-0.4643505173457425	-0.8437764209139127	0.2691095474903276	0.8856405768520641	-0.4408799838474809	0.14582732417413458
271														9.12839830939989	3.0567832520753635	1.7760243695118798	-0.0049535990424763865	0.30781741102960763	0.9514325532183328	-0.45918831483122763	-0.8459023845832349	0.27128443980231165	0.8883251394500684	-0.4355428764466551	0.1455364194886969
272														9.160852069956121	3.05144805383345	1.7479219419581307	-0.005403506625179022	0.3097318887842766	0.9508085817798847	-0.4548630218436943	-0.8475238700037349	0.27350122693164436	0.890545020465206	-0.4310097990115961	0.14546518374033363
273														9.174715626675805	3.1203848884352023	1.6797055308727817	-0.00577362183162472	0.31182776809501334	0.9501211019316582	-0.45156298556610264	-0.8485588551655658	0.27575122735308466	0.8922205642987464	-0.42744743813127173	0.14570913587500084
274														9.19823123920464	3.1634694166983244	1.6363717725041602	-0.006084546334529317	0.31401422001626855	0.9493987823477957	-0.44933748957689157	-0.8490271584056341	0.27793651208574777	0.8933413674271665	-0.4249093478816731	0.14626430639814875
275														9.349558146883581	3.1184183573053157	1.4905115715120303	-0.006285015440442909	0.31626315237951336	0.9486506822998053	-0.44805171616315714	-0.8490041368027065	0.28007433894439704	0.8939855469884082	-0.4232842946990404	0.14703825229161593
276														9.510238883500373	3.070550227003873	1.3145372299549154	-0.006584350465753508	0.3184212589122047	0.9479264466200482	-0.4474354239387756	-0.8486979272414354	0.2819811513218915	0.8942920036172036	-0.4222792087811784	0.14806107556501708
277														9.527603037755348	2.960671815589994	1.1958713985236438	-0.007037002470286102	0.3204590691606187	0.9472362248082277	-0.44716824109347	-0.8482794963073164	0.28365905644272715	0.8944221848509829	-0.4215778470666074	0.14926846321001214
278														9.377878093672058	2.8651723661520787	1.1766308643858605	-0.007650096838598908	0.3224003989463263	0.9465724794106414	-0.4469034282013533	-0.8479077979552256	0.2851836110799451	0.8945494966072236	-0.4208448038481278	0.15056842030715795
279														9.369492832097905	2.779501271103924	1.1045281946267258	-0.00837175913608279	0.3241761302054784	0.9459596980072505	-0.44639961931554084	-0.8477104936883025	0.2865559260697205	0.8947945538076928	-0.41987707188620765	0.15180892918519906
280														9.36867081883748	2.6945814736605143	1.1408258477660915	-0.009230162525086627	0.3257989640991945	0.9453940126167781	-0.4455002984537527	-0.8477609848477029	0.28780339929832444	0.8952342085607421	-0.41851684262636946	0.15296850741468632
281														9.42540707172501	2.675657603210848	1.116406604306317	-0.010119622767477077	0.3272041838779857	0.9448994736413949	-0.44416530542813676	-0.8480813799497896	0.28892067152834633	0.8958877020525362	-0.4167677951032228	0.15391500991074297
282														9.39686910040784	2.7622738679194603	1.1698397539442849	-0.0111540090739502	0.3284759723370927	0.9444464641676519	-0.4424833593298054	-0.8486188419869933	0.289921606198753	0.8967073462383303	-0.4146680559457842	0.15481065396268906
283														9.338835519940508	2.775032046049568	1.1821700729891125	-0.012224069705482066	0.3295512701016747	0.9440585429379938	-0.44081186375269316	-0.8492105992607706	0.2907340002098812	0.8975162800165309	-0.41259825311982984	0.15565091913558438
284														9.239039346690967	2.7900780446566413	1.217689502284885	-0.013227908937257171	0.3304513639425128	0.9437303208510792	-0.4393163587222267	-0.8497606481277331	0.29138973532466594	0.8982350245810902	-0.4107416912879286	0.15641324641391635
285														9.178261753623696	2.7511391119037847	1.2301011342397181	-0.014132762769540841	0.331232067372024	0.9434434707818776	-0.43814994545961566	-0.8501791943054826	0.2919245842059508	0.89879079340536	-0.4092440043721305	0.1571446931182467
286														9.132633195078421	2.658562133373394	1.177355735422517	-0.014961331005004186	0.33186051773871345	0.9432098151210851	-0.43726019915565145	-0.8505056580702071	0.29230744743321857	0.8992105853519067	-0.40805480312913467	0.15783409275034477
287														9.089359628555878	2.643147119132558	1.263329526011711	-0.0156183672901139	0.3323470010436938	0.9430278561635675	-0.4365728988298551	-0.8507586211964738	0.2925984833644426	0.8995333071156889	-0.4071304942609162	0.1583811542841317
288														9.128487106872297	2.617192720665669	1.2457849470847044	-0.016151250484714774	0.33271908349256324	0.9428876648825403	-0.43598999019539136	-0.8509814420014911	0.2928195926137567	0.8998065711902773	-0.4063601811803571	0.15880660437735206
289														9.108837641273366	2.6230054905658684	1.3160747805996043	-0.016467066372771122	0.33297695147879763	0.9427911674962602	-0.43553281843759745	-0.8511518966033129	0.2930044589633172	0.9000222218305934	-0.4057915705044523	0.15903836492699658
290														9.115432072573988	2.5983318603906835	1.2866501621952076	-0.016773897476813238	0.33318505893453015	0.9427122322672128	-0.43512639512789447	-0.8513132855903556	0.29313940376612185	0.9002131173374674	-0.4052818849642155	0.1592574553777989
291														9.124945517178706	2.575159316631076	1.3105170952848924	-0.016924005216753246	0.33326603572304037	0.9426809255951203	-0.4345503404447346	-0.8515682111233753	0.29325344571462375	0.9004885227845987	-0.40467929430301186	0.1592328141295875
292														9.12717103645939	2.5784007974853305	1.3650572778273902	-0.017013032272684414	0.33334225589663635	0.9426523734477255	-0.4338408211459436	-0.8518754476755528	0.2934115941045789	0.9008288953182519	-0.40396925883205287	0.15911046250444955
293														9.148153047837335	2.5778437007101638	1.3520029641155422	-0.017026910217897373	0.3333353459801238	0.9426545663437607	-0.43293802972981876	-0.8522838567790649	0.2935590058020118	0.9012628621784518	-0.4031126078332382	0.15882530863748268
294														9.101802022956377	2.6584645413851966	1.403471083656504	-0.01694077131727234	0.3332840231422238	0.9426742651548895	-0.43199568990325704	-0.8527087894393333	0.29371320078933616	0.901716548684888	-0.40225549136219585	0.15842280611317783
295														9.119288750169103	2.732865809533829	1.418354582438951	-0.016798923969640056	0.33319422160922196	0.942708548194874	-0.4310835748800941	-0.8531234676122779	0.29384911175261597	0.9021556116447211	-0.4014498221389913	0.157966112449828
296														9.110057646279564	2.8597358016242556	1.4757982504432612	-0.0166071354934893	0.3330438304599184	0.9427650874121748	-0.43038004722541695	-0.8534565453392242	0.29391315072293706	0.902494996108537	-0.40086622732555205	0.15750888796772738
297														9.136164831516082	2.8845606192189783	1.5137908033852954	-0.016346123589406236	0.33286820769377345	0.9428316713763573	-0.4300559854712581	-0.853619056663659	0.29391555838538164	0.9026542270459633	-0.40066602352505587	0.15710532769029362
298														9.129336116399699	2.787312677250262	1.515100561785836	-0.016054022603771423	0.3327086776561387	0.9428929972009238	-0.43004714341500133	-0.8536322888744174	0.2938900641934338	0.9026636819983592	-0.4007703222586809	0.15678464847630402
299														9.160451231349008	2.7823918806201298	1.4675815289839738	-0.015767871805728972	0.33244795118627285	0.9429897846587565	-0.4302292019798843	-0.8535930604196063	0.2937375035082216	0.9025819674591722	-0.4010701272290672	0.15648816268967386
300														9.19078299254106	2.730300512045674	1.4764732566002126	-0.015445399146476801	0.3321508766005599	0.9430998010914248	-0.43038906009521033	-0.853569864739647	0.2935706779613751	0.9025113276826872	-0.401365520668903	0.15613783085022326
301														9.199984772613348	2.6801325348081333	1.497013296080223	-0.015151190180918761	0.3318363778934013	0.9432152775176459	-0.43046657979371844	-0.8535925174756804	0.2933911003937044	0.902479343318616	-0.40157743016274994	0.15577741321219157
302														9.267308622269578	2.674384522629889	1.5124113222948892	-0.014862064659617202	0.33148551770857887	0.9433432411288739	-0.43027339029284034	-0.8537475706844804	0.2932232854946091	0.9025762730317911	-0.4015375911416308	0.15531784913595142
303														9.284892874852305	2.699566946309517	1.5830102791570135	-0.014624959641153568	0.33113663745336064	0.9434694684469528	-0.42980822393036267	-0.854030056965977	0.2930828422827182	0.9028017507721843	-0.40122461182580893	0.15481540513756092
304														9.324709252617449	2.769336605024904	1.5844606194253938	-0.014404271435747573	0.33075991482618544	0.9436049998323344	-0.4290831650034879	-0.8544385630654507	0.29295456893046906	0.9031501284254986	-0.40066522271195687	0.1542310760974686
305														9.311188673386955	2.8211711875390506	1.6436495415102017	-0.01422842558699694	0.33035829997387595	0.9437483486309716	-0.42827970650448705	-0.8548950976525694	0.2927983350465543	0.9035341968634866	-0.40002220644356035	0.15364956703577098
306														9.345764201086215	2.941480220305045	1.6755391968983493	-0.014033996242278024	0.32993399378068866	0.9438996804202217	-0.4275422265981993	-0.8553262238900806	0.292616976953474	0.9038864372391734	-0.39945038549719847	0.15306435934342727
307														9.381341668377411	2.983731566477254	1.623355194949362	-0.013851170816212788	0.3294768329693145	0.9440620538945151	-0.4271023690682303	-0.8556371405585256	0.29235021811713297	0.904097180287233	-0.3991617469564693	0.15257191210486376
308														9.363454343920234	3.0077893452470637	1.630444025457611	-0.013702419626893891	0.3290749895407961	0.9442043713916459	-0.42688676985668067	-0.8558363618438427	0.2920818506296211	0.9042012659898777	-0.39906612610521064	0.15220478828763007
309														9.35281722320493	3.0047391259764087	1.6068365015947959	-0.01360711233640488	0.32864692160093756	0.9443548313087047	-0.4269777444550976	-0.855915520243056	0.29171669123842886	0.9041597492887539	-0.3992490740493792	0.15197145994169925
310														9.31182218261958	3.0054740655958767	1.6297295992615404	-0.013575232117343627	0.3282411439141158	0.9444964078888352	-0.4272722981152926	-0.8559062901836088	0.2913122134195693	0.9040210707368699	-0.3996025198445136	0.15186747445611365
311														9.301162170516202	3.001172877680779	1.6086051910093362	-0.013590708075490177	0.3278137133440501	0.9446446220656698	-0.4277987226275898	-0.8558072232934414	0.2908302760665965	0.9037718437593693	-0.4001651732751804	0.1518693139690684
312														9.307756549676986	2.945813397170461	1.5787713307446773	-0.013655519041096631	0.3274555059017822	0.9447679177736331	-0.4284027807887325	-0.855658541372578	0.29037823263570145	0.9034846895283836	-0.4007759376893281	0.15196731081729487
313														9.317104997132066	2.892650531457821	1.603798840311405	-0.013725214154119203	0.3270568307699968	0.9449049941359761	-0.4290246228787872	-0.8555143597908937	0.2898845514257209	0.9031885137999364	-0.40140878121718104	0.15205755128108345
314														9.262801994208811	2.846380783873829	1.6647493891162797	-0.013836554103673682	0.32675997034595006	0.945006069583709	-0.4294909017398968	-0.855413172155653	0.2894924355233715	0.9029651793359401	-0.4018659312284594	0.15217640495391083
315														9.191424159660622	2.7743133799736523	1.6511826287478033	-0.014012936605251713	0.32649633967353575	0.9450945866882747	-0.4297899086781728	-0.8553847904186428	0.2891323135155647	0.9028201770043165	-0.4021405233251656	0.1523112848532796
316														9.161653955258481	2.775815498023703	1.6981071351359414	-0.0142350213940452	0.32630248657837285	0.9451582150194124	-0.4298035351579121	-0.855468244640876	0.28886502657265367	0.902810215566745	-0.4021203422656323	0.152423571026591
317														9.17597530014179	2.7980481393508936	1.7196435802724745	-0.014406703958004974	0.3261447301024783	0.9452100623181325	-0.4296595291191208	-0.8556039258594904	0.28867734772746384	0.9028760357425607	-0.40195962120617207	0.1524576236256781
318														9.154064908390815	2.82129004333409	1.6771236475693898	-0.01459697670564869	0.3260912196963132	0.9452256051906476	-0.42939818174883143	-0.8557624234150486	0.28859638975843255	0.9029973033081842	-0.4016655214326646	0.1525145209820145
319														9.222202406891796	2.840866604122948	1.6959140471375937	-0.014752995436920213	0.32610964528651126	0.945216826118084	-0.4291888486898759	-0.8558710594749042	0.2885856228462605	0.9030942815043717	-0.4014190189869074	0.1525892850422068
320														9.221025765465738	2.863106358653083	1.6419101170146382	-0.014932687254060606	0.32615605958755556	0.9451979896538562	-0.42902307313648524	-0.8559549299664868	0.2885833685134896	0.9031700933754939	-0.4012024210549899	0.1527101822791006
321														9.260978031449781	2.834687131176251	1.6210569235478078	-0.01502526088644407	0.32626059025995946	0.9451604460505728	-0.42903688769937254	-0.8559294314405252	0.2886384544497421	0.9031619957286351	-0.401171828070121	0.15283839123187282
322														9.22525601472656	2.8134218412879584	1.6148713459414135	-0.015127223021253244	0.32640470315344183	0.9451090608405884	-0.42903151552466345	-0.8559016319079369	0.28872886101659695	0.9031628456763908	-0.40111390683525844	0.15298531933842496
323														9.251463717314278	2.885519754634476	1.6019469976377052	-0.0152310288467295	0.3266354465896208	0.9450276719712863	-0.42906055834049467	-0.8558323075824303	0.2888911535071219	0.9031473041740273	-0.40107399109058595	0.15318159365229062
324														9.27362603649086	2.9092692246548446	1.5915515232745991	-0.0153599573206194	0.3268595800792369	0.9449480867336224	-0.4290944467566695	-0.855766229136217	0.2890365320034258	0.9031290203917137	-0.4010323876950646	0.15339816343717722
325														9.229512620523838	2.9371732019796295	1.5627757495780752	-0.015531691735080344	0.32706344367773443	0.9448747379211214	-0.4292187873809177	-0.8556719742410569	0.28913094794170113	0.9030669959150878	-0.4010672964828641	0.15367180802224395
326														9.251333800999298	2.836415462051918	1.5254105058514134	-0.015768691308003513	0.32724967097332835	0.944806330007521	-0.42931224584685124	-0.8556056869693863	0.28918835383116087	0.9030184626796759	-0.40105680554441697	0.15398407315739526
327														9.273673905973926	2.859190885973695	1.5160114640071471	-0.016031746300941507	0.32742016806271107	0.9447428309631823	-0.42930451423871147	-0.85559268698674	0.28923828935511664	0.903017506566072	-0.4009453672516946	0.1542796010968318
328														9.239775420415226	2.8619652855535875	1.5101559081673965	-0.016349534937900867	0.3275765965168091	0.9446831564719352	-0.4291996297694601	-0.8556345365775748	0.2892701464400329	0.9030616648452495	-0.4007282286414863	0.15458498069600385
329														9.257729144020505	2.8576844727406345	1.4472559633225444	-0.0167111216004997	0.32766068754050415	0.9446476656697659	-0.42898722146022594	-0.8557521082603088	0.2892374336628514	0.9031559678365021	-0.40040829542920486	0.15486282547077013
330														9.208323978793244	2.8110921784492797	1.4220661960616714	-0.01711780355847159	0.32774748537065035	0.9446102723528622	-0.42867828806842967	-0.8559175830477073	0.28920583736932276	0.9032950271866074	-0.3999833457320268	0.1551496599962756
331														9.239016929462153	2.7843147123334986	1.4363383341573661	-0.01762774296499664	0.32785000585981167	0.9445653160770202	-0.42831354457795096	-0.8561166678044065	0.2891569792319576	0.9034582282590775	-0.3994729337079054	0.1555140026678235
332														9.230530101831762	2.832598696216263	1.4164832200067454	-0.01811109439090336	0.32791292115785486	0.9445343320375851	-0.4277800248650352	-0.8563984429550058	0.2891123609095816	0.9037014100832389	-0.398816778786907	0.15578491060305416
333														9.224716356547614	2.88299885842638	1.4507245041650452	-0.018586604326510936	0.3279559662657789	0.9445101494056529	-0.4273209802933651	-0.8566518529120993	0.2890404516730903	0.9039089102009821	-0.39823672243145275	0.15606471403340005
334														9.235753560589204	2.90421940960255	1.4198113381606257	-0.01904808668951702	0.3279674372301746	0.9444969722080319	-0.426960083160333	-0.8568693994375332	0.2889289180668529	0.9040698301465377	-0.39775896272017836	0.15635072687575718
335														9.269195578684332	2.8789658829127487	1.4884245891431556	-0.01948694341069579	0.3279695301254545	0.9444872928450636	-0.4267308700871051	-0.8570285787850029	0.28879539411226784	0.9041686919768956	-0.3974141447596531	0.15665559036862664
336														9.253249242430424	2.8291319462878994	1.4726794548513356	-0.019860248100156963	0.32794664230543097	0.9444874643667821	-0.4265378431097549	-0.8571705217395041	0.2886592542360353	0.9042516458047937	-0.3971268014896749	0.15690527268993237
337														9.28387451661727	2.8230352624135535	1.430876685780246	-0.02029024645336036	0.327871797245994	0.9445043093970217	-0.4263184503785937	-0.857347365676083	0.28845809649769993	0.9043455560601034	-0.39680672768863634	0.15717358587046354
338														9.2605979160441	2.7996902383779156	1.4467045944270263	-0.020611845935218642	0.3278633356318867	0.9445002831950214	-0.42608758786906725	-0.8574942713487357	0.2883625184867495	0.9044470793092666	-0.39649616360367707	0.15737303764146976
339														9.250621799425389	2.8231033068783153	1.4265737385350246	-0.0209254682500149	0.32783203986757287	0.9445042500776706	-0.42576950381752904	-0.8576851336310797	0.28826470676656096	0.9045896607840993	-0.3961090319400738	0.15752834798221188
340														9.25450212860818	2.8710185992843775	1.4261113766542477	-0.021155882219790034	0.32780661603635475	0.9445079412743423	-0.42548343372292563	-0.8578488719706663	0.2881998620506344	0.9047188935104934	-0.3957753596946756	0.15762483428603202
341														9.263919650890955	2.867937965099464	1.3946415453673957	-0.021382997253653058	0.32775598958159613	0.9445203961386109	-0.42530830251534535	-0.8579712044600734	0.2880941862114651	0.9047958970065931	-0.3955520491802811	0.15774333947686897
342														9.196137388487465	2.825428527115603	1.4339035766661246	-0.02158353744075292	0.32771372197774473	0.9445305010104421	-0.4251154513996631	-0.8580951029033065	0.28800980426823053	0.9048817623826906	-0.3953182399040768	0.15783689462967299
343														9.227190236796151	2.79843304704504	1.4458854687665654	-0.02171256774377872	0.3276837744350384	0.9445379337930155	-0.4248908556528527	-0.858219498707099	0.28797057631209916	0.9049841574218627	-0.39507295023950034	0.15786398830796955
344														9.252662658617227	2.8229885950944285	1.4880732974654431	-0.02178201275868258	0.3276945424159854	0.944532599115011	-0.4246193594506724	-0.8583439272032709	0.28800017745301176	0.9051099068620786	-0.39479360367671046	0.15784190506983636
345														9.263974195939268	2.8452561833632166	1.4540050527652768	-0.02182863366446297	0.32768239129378196	0.9445357384389074	-0.42435912693837663	-0.8584672948407528	0.28801603266641096	0.905230822573139	-0.3945353648594624	0.15779418157451008
346														9.233062120378525	2.85052073819775	1.4988138272098572	-0.02182202130877242	0.32770373488710225	0.944528486350223	-0.42409989796012904	-0.858572846438281	0.28808322392856617	0.9053524595074605	-0.39428787643029567	0.15771491547688277
347														9.263642434741682	2.846608314781336	1.4534721858476196	-0.02174583223420118	0.3277048542693904	0.9445298551494915	-0.4238812382862977	-0.8586575865533275	0.28815246811937884	0.9054566884226526	-0.39410236936954884	0.1575801632439527
348														9.284664142617757	2.845566954538413	1.4408633564830726	-0.021597878824216654	0.32778099758184787	0.944506828590743	-0.42368776267265906	-0.85869889349829	0.28831387421740423	0.9055507779201182	-0.39394901691597267	0.1574228721603303
349														9.241762992480403	2.851806536674553	1.4634018192342562	-0.02145086411756214	0.3278322831000459	0.9444923793160115	-0.42351787205674024	-0.8587376044912036	0.28844815596782536	0.9056337408009597	-0.3938219404630977	0.15726349459661604
350														9.249314942476296	2.804745506461843	1.4863027017088795	-0.02129176338264277	0.32788292882559905	0.9444783987984083	-0.4234105893662628	-0.8587476493178432	0.2885757224778156	0.9056876578736027	-0.3937578694779653	0.15711335589185943
351														9.243076300524372	2.8791658198603582	1.460387219265183	-0.021091226447827627	0.3279766612378013	0.9444503533009192	-0.423362408746436	-0.8587133014408473	0.28874857019382144	0.9057148729193654	-0.3937547150344553	0.15696430600869998
352														9.24105622180916	2.9806123662886206	1.487745147780883	-0.020899921806083188	0.3280629760888464	0.9444246274786722	-0.4233109566652785	-0.8586838381905537	0.28891157816443724	0.9057433561642206	-0.3937470631637372	0.1568190773289579
353														9.306865472769621	2.9777405526025618	1.5062277483952333	-0.020675488542171827	0.328113602820773	0.9444119799205826	-0.42343828299601144	-0.8585831215500745	0.2890242963536456	0.9056889889288335	-0.39392446869076597	0.15668748609817407
354														9.331764793976017	2.879667390906707	1.5202427440887916	-0.020453622272553262	0.3281937172423823	0.9443889735159761	-0.42365001245790507	-0.8584369232769726	0.2891482590284473	0.9055950067664622	-0.39417627112421716	0.15659741697186141
355														9.334916762455455	2.805803656320222	1.4907167110454465	-0.0202922308828552	0.32830509405557845	0.944353742293085	-0.4237956067655129	-0.8583179062306466	0.289288187678117	0.9055305124909085	-0.3943426645203338	0.15655144166361384
356														9.292340546053932	2.7901627469827686	1.5696747049080924	-0.02009517953112583	0.32838121489931976	0.9443314891820869	-0.42382972697436677	-0.8582534247497778	0.28942947575896694	0.905518937566987	-0.3944196199563651	0.15642447730783993
357														9.24892891207429	2.818333905378649	1.5369298809446739	-0.01992392047730518	0.3285135174970038	0.9442891009720278	-0.42378086185364766	-0.8582112736057512	0.2896259501194163	0.9055455916293746	-0.3944011646505887	0.1563166747435013
358														9.264092483284406	2.8691821504945807	1.555208863750863	-0.019739396272365817	0.32863436837629273	0.9442509243610606	-0.42365941369785703	-0.8582024259052892	0.2898297730659575	0.9056064583581493	-0.3943197282563877	0.1561694415941159
359														9.28675593999995	2.8933336398748466	1.541571661601258	-0.01957317710451889	0.3287644142696731	0.9442091138344061	-0.42359686781481537	-0.8581675056791074	0.290024526159388	0.9056393235253831	-0.39428732176728487	0.15606064070760628
360														9.268708950745623	2.946354559345417	1.5506992182455412	-0.019398800874974975	0.3289295147932112	0.9441552101336494	-0.4236866751221411	-0.8580543367728224	0.2902281110941829	0.9056010644033929	-0.39439590444533623	0.15600827769123954
361														9.264170501930137	2.899603189562242	1.553703288342379	-0.019273528590546707	0.32908649048575456	0.94410307322635	-0.42393359405277253	-0.8578817129343816	0.29037781328171447	0.9054881771338423	-0.39464040390276883	0.15604522638738744
362														9.272955663208387	2.898852542134319	1.521545107657413	-0.01912152247861537	0.32924715139370525	0.9440501473318195	-0.4242126676997687	-0.8576902113751994	0.2905359080633768	0.9053606905212668	-0.39492254254511205	0.15607115508177255
363														9.287750789071612	2.8253913420700734	1.514631479954215	-0.019041867507353982	0.32944105760631115	0.9439841083646845	-0.4244567100125727	-0.8575133274252642	0.2907015559183596	0.905247981829916	-0.39514488842864665	0.15616212262125934
364														9.302492693964716	2.752143420164528	1.5078540056930183	-0.018984116634415515	0.3296487582763123	0.9439127605253026	-0.4245250108762734	-0.8574117587515087	0.2909013425461384	0.9052171664612376	-0.3951920699122532	0.15622134752445943
365														9.270927455291512	2.758990056222191	1.5536645738670054	-0.01893212239724834	0.3298508265381003	0.9438432110121192	-0.4244111368044651	-0.8573921652896616	0.2911251652747446	0.9052716507755433	-0.3950659528889295	0.15622461768263324
366														9.298946777228462	2.856408217419768	1.5379076743731008	-0.01892950824210693	0.330071531242735	0.9437661034285921	-0.42420876651134803	-0.8574119928930868	0.29136162557554823	0.9053665534647458	-0.3948385223178984	0.15624962451534352
367														9.235999515769553	2.8899562633169964	1.5731616836261118	-0.01897886982550151	0.3303327093208962	0.943673727329983	-0.4240679622275828	-0.8573993600376884	0.29160367079155197	0.9054314805175995	-0.3946474864479423	0.15635598974145254
368														9.215480477250635	2.919061542047418	1.5855289713237126	-0.01901598265765747	0.3306199206446629	0.9435723928117442	-0.424068876250655	-0.8573151691961937	0.2918497710494365	0.9054302737367855	-0.3945898740959006	0.15650830860344433
369														9.190805771381637	2.921072599544218	1.5448321312029398	-0.019023210154316628	0.3308583812108521	0.9434886586800922	-0.42418102725709916	-0.8571934782560827	0.2920441695195286	0.9053775861984531	-0.3946543708332312	0.1566504196984152
370														9.24452980566529	2.896958160562511	1.6010536603015066	-0.01905734341552312	0.331145208748625	0.9433873374095986	-0.42454890383389604	-0.8569488394553595	0.2922275052241819	0.9052044221695891	-0.3949449800655042	0.15691850370711025
371														9.16159044701933	2.854416213115343	1.5661803867052113	-0.01901674340581877	0.33148758906771897	0.9432679056155302	-0.4251524577421489	-0.8565736911611637	0.2924498235361922	0.904921958594247	-0.3954712251284671	0.1572220052961471
372														9.205470287420711	2.730674117688859	1.573269935831616	-0.018943674404898914	0.3317762998594964	0.9431678663162685	-0.4257530917244776	-0.8562115226805618	0.29263652081734814	0.904641057042565	-0.39601302412998385	0.15747457773347123
373														9.243218175819564	2.680023593129384	1.554867990110148	-0.018843520424168703	0.33211019335836944	0.9430523533746634	-0.42622118639630424	-0.8558892097876063	0.2928978675853997	0.9044227009562241	-0.39642966593913476	0.15768036643296846
374														9.26333398656145	2.6807615832213796	1.545214162531373	-0.01872694671664271	0.3324318619188541	0.9429413336193491	-0.4264589546976908	-0.8556691111053435	0.29319470025623695	0.9043130328734765	-0.39663513394725347	0.15779261419286844
375														9.22317717461668	2.736946703724213	1.5679563490568635	-0.01864688136267012	0.332771275340838	0.9428231923979592	-0.4265318832477571	-0.8555205942889008	0.2935218310802247	0.9042802919386049	-0.3966708850616572	0.15789034978691174
376														9.23733705006224	2.7893103700551145	1.5881553576423153	-0.01852446148538328	0.3331110082434656	0.9427056277087236	-0.42643543950033247	-0.8554403256914515	0.2938956704666842	0.9043282923058611	-0.3965588296431253	0.15789691056901617
377														9.251067655327354	2.8636050238767266	1.552569055530942	-0.01848271935111795	0.3334303830414226	0.9425935331574467	-0.4263229083629432	-0.8553843237881429	0.29422174702503484	0.9043822017766325	-0.39641119848252554	0.1579588390287115
378														9.2634587704483	2.891385237590128	1.5737088380070772	-0.018362563124556752	0.3337176836783935	0.9424942036298286	-0.4262638343695989	-0.8553040354157027	0.2945405753205184	0.904412494265766	-0.3963426732033059	0.15795735378270193
379														9.248827874856781	2.8698957246363785	1.554296691727315	-0.018295551879539518	0.33396694857948883	0.9424072103066318	-0.42627016685922847	-0.8552141437118538	0.2947923222219433	0.9044108677073869	-0.39632669056184644	0.15800676163084232
380														9.269164346603796	2.870306988837302	1.5437583230544105	-0.018234294119298555	0.3342054722290112	0.9423238365074684	-0.4263284388488682	-0.8551055608771604	0.2950229516251973	0.9043846376109324	-0.39635991483642774	0.15807354353022507
381														9.251133408974356	2.7994904132719625	1.5270436474870341	-0.018191427327306497	0.33441759718032027	0.942249405766826	-0.42638300265184226	-0.8550093246712565	0.2952229492685172	0.9043597774234515	-0.396388604050802	0.15814381921928566
382														9.252467380293002	2.80394562979723	1.5829503904585178	-0.01820113719419819	0.3346275172731463	0.9421746883080907	-0.42638749281181065	-0.8549428956606807	0.29540878648575786	0.9043574650427207	-0.3963547272872371	0.15824192105306295
383														9.218108746518006	2.8298219551175423	1.519186950556795	-0.018189031962744517	0.33483748465082624	0.9421003226774558	-0.426427379171709	-0.8548578935826163	0.2955971448986612	0.9043389018553865	-0.39636074559951096	0.15833290857807786
384														9.223017947719734	2.8827034159890172	1.5728338936916213	-0.01816324266704611	0.33501238026984653	0.9420386412890662	-0.4264830048450809	-0.8547750719344898	0.29575635745947854	0.9043131886653699	-0.3963915759262801	0.15840257365507499
385														9.210085324024094	2.9061606745413315	1.4973383100489153	-0.018152785600438925	0.3351988210040087	0.941972519117446	-0.426639221277552	-0.8546465938315569	0.2959023057020708	0.9042397089503582	-0.39651097090703585	0.15852318034827356
386														9.188464635844118	2.887533124236321	1.5664873432929596	-0.018131989861613074	0.3353258407713174	0.941927710312563	-0.42692842084102295	-0.854476955645955	0.29597509312138276	0.9041036192947403	-0.3967690925223762	0.15865349916444121
387														9.238783317257854	2.8356574457566346	1.5686668966228254	-0.018108908253527234	0.33544394790110066	0.9418860999390476	-0.4272482539588982	-0.8542962316280274	0.29603526498582083	0.9039529838055399	-0.39705831617367743	0.15878821312171082
388														9.2595362269918	2.834446170771717	1.558843449398257	-0.0180838375178638	0.33557729395928776	0.9418390810534406	-0.42751124715607386	-0.8541352901015217	0.2961199752773322	0.9038291367153893	-0.3972918146427778	0.1589091112622648
389														9.20891535916077	2.7642378931279215	1.5326127979574322	-0.01805940358425545	0.3356864053985234	0.9418006663688446	-0.42767199847261833	-0.854026925200946	0.29620039290023736	0.9037535724214972	-0.39743257071160687	0.15898689277090067
390														9.223627331422476	2.8141402687970825	1.5528967370721307	-0.0180366613023219	0.33580066784433527	0.9417603677817217	-0.42763745703147427	-0.8540030241757478	0.29631915233803424	0.9037703713846339	-0.39738740062308914	0.1590043069646388
391														9.244426406271096	2.813395338769225	1.5420327375037823	-0.018053484595910385	0.3359151388451764	0.9417192209934827	-0.42753327293008775	-0.8540151277177142	0.2964345832843805	0.9038193249934597	-0.3972646235494964	0.15903284769016923
392														9.25913917819163	2.8635210281271517	1.5617832724481364	-0.01801175785812903	0.33600819698904916	0.9416868206229867	-0.42740489340976107	-0.8540364719420109	0.2965581927417184	0.9038808736046202	-0.3971400208352361	0.15899424575354082
393														9.250011579835327	2.93547612618409	1.4827650917528992	-0.01797403358591554	0.3361128774050507	0.9416501833266694	-0.4272495085160185	-0.8540665333564297	0.2966954904836801	0.9039550827278274	-0.39698676330959476	0.15895508223236765
394														9.246935087328927	3.036124627097694	1.5116488883288872	-0.017934062445729704	0.3361562174863344	0.9416354745067078	-0.42720092083816263	-0.8540686816682818	0.29675926308782496	0.9039788397076661	-0.39694544264758	0.15892316672561668
395														9.238705743371467	3.06330713485185	1.544426817794452	-0.017937089860732558	0.3362206952944517	0.9416123962985216	-0.427306226607504	-0.8540025316429691	0.29679801995609145	0.9039290068969935	-0.3970331472347308	0.1589875167649965
396														9.22320969033483	3.014657757148438	1.5267772453764403	-0.01794945053548347	0.3362380000564126	0.9416059815780369	-0.42760384561952025	-0.8538680106778225	0.2967564178792024	0.9037880107839846	-0.3973077241373017	0.15910312348903166
397														9.219558560163046	2.9656713620214816	1.5307675718185234	-0.017963630696540167	0.33624043730758424	0.9416048408389812	-0.4279533474280779	-0.8537154889915695	0.29669141592063053	0.9036222885682388	-0.3976332885650926	0.15923105045062225
398														9.202457659986695	2.8922656804467333	1.5143190707006409	-0.01796178048745628	0.33625756116736905	0.9415987611501486	-0.42824158313599003	-0.8535829481309771	0.2966568676656779	0.903485761323831	-0.39790325861671905	0.15933133987792542
399														9.233580955570236	2.8660395202530164	1.5264147154030379	-0.01794408572110001	0.3362776793122704	0.9415919138267854	-0.4283776170516271	-0.8535142315185567	0.2966581767025102	0.903421621944485	-0.3980336405275841	0.15936936346598934
400														9.200349674237982	2.8681695855155156	1.5172599471308101	-0.017920831884786437	0.3362660193982375	0.9415965207999774	-0.428333199331316	-0.8535342461061408	0.29666472839658886	0.9034431438309537	-0.398000571509749	0.15932994364762942
401														9.192275841123296	2.8951644052929995	1.5493536869455085	-0.017860942647461353	0.336297110351071	0.9415865548621988	-0.4282360877986713	-0.8535589126271201	0.29673394780796103	0.9034903651033771	-0.397921394554664	0.1592599256594031
402														9.215412543729588	2.8963793564721376	1.592169421389626	-0.017808345863043806	0.33635909855826623	0.9415654091111745	-0.42810883176525955	-0.8535881106849934	0.2968335652546877	0.903551709080453	-0.3978063525313476	0.1591992930370556
403														9.218523184169332	2.9463151620434105	1.5896040848725752	-0.017669036005493743	0.3364124920403467	0.9415489580291828	-0.4279658508499237	-0.853614876901666	0.296962745876405	0.9036221752883985	-0.3977037554906379	0.1590556103873908
404														9.211606647057854	3.0206428606721025	1.5642371807305346	-0.017525709180441273	0.33648734463802005	0.9415248888989476	-0.42788345735562866	-0.8536076238575453	0.2971022911619299	0.9036639842547203	-0.39765599629670934	0.15893744735006587
405														9.219439638714778	2.9737238970680298	1.5874319725369839	-0.017355266578179707	0.3365911228283879	0.9414909509682641	-0.42791429737817754	-0.8535376185133485	0.29725895761423754	0.9036526704554919	-0.3977184303193499	0.15884552673264524
406														9.218931338072819	2.975476124547865	1.5871005618792318	-0.01713977514780185	0.33670279369649775	0.9414549680281354	-0.4280131167936057	-0.8534288883887571	0.2974288222687148	0.9036099822160593	-0.39785721205038527	0.15874079141477404
407														9.21461006539834	2.9505977472833997	1.533425203329161	-0.0169378981932915	0.33681413883027955	0.9414187928275118	-0.42813845227680947	-0.8533104080994136	0.29758832825100706	0.9035544108059076	-0.3980170640980461	0.1586563689234063
408														9.191077927255561	2.929998353575934	1.5457938388465255	-0.01670270031038823	0.33690999427053553	0.9413886952598104	-0.4282283623977768	-0.8532077192122614	0.2977533501318304	0.9035161810617774	-0.3981560543772225	0.15852528795842813
409														9.20983891878797	2.927536182605398	1.4789954240008105	-0.016483756505364766	0.3370168444920984	0.9413543075272247	-0.4283055360125731	-0.8531093677419712	0.2979241086113652	0.9034836210980554	-0.3982763527997649	0.1584086273157585
410														9.22105359452485	2.9295581049243125	1.4998754157864154	-0.016293298656753996	0.3371297789492211	0.9413171838251606	-0.42831184100241043	-0.8530442534870645	0.298101439865397	0.9034840868969458	-0.39832024018162365	0.15829558106796904
411														9.214688315454948	2.9602505175374665	1.5859445607775242	-0.016094317863885987	0.3372585971633336	0.9412744613405359	-0.42835512412393406	-0.8529565668127805	0.29829009834006126	0.9034671330874549	-0.3983989630638798	0.15819420236013743
412														9.223783150813736	2.9598982442419377	1.5525486695719277	-0.015916442661641272	0.3373527660781908	0.9412437399910779	-0.4284401129165805	-0.8528643663550916	0.2984316374745742	0.9034299842804788	-0.3985166041975183	0.15811002397650864
413														9.221678341652991	2.9370073028814008	1.5534322920551074	-0.015750051621279737	0.3374296187622666	0.9412189905945795	-0.4285336802859392	-0.8527754320678165	0.298551414872109	0.9033885214759573	-0.39864183779867	0.1580312134421027
414														9.239284916236956	2.887697873719709	1.5437224639091482	-0.015595577098358238	0.3375060831218521	0.9411941467256983	-0.42859552260730666	-0.8527022503451425	0.2986716428744119	0.9033618632507903	-0.3987336405572974	0.15795197976595643
415														9.237296564042746	2.8645773275201227	1.5444493048341823	-0.015465322510396118	0.3375416745165999	0.9411835324548443	-0.4285512608836861	-0.8526922435315439	0.2987637103400356	0.903385100936833	-0.3987249124216741	0.1578410707632082
416														9.255058549713453	2.8150895537788694	1.5342848747150055	-0.015355089202684635	0.337578156124408	0.9411722529607544	-0.4283705612814287	-0.852744953949007	0.29887239039753966	0.9034726799759975	-0.3985812740485314	0.15770251905038862
417														9.248548131142764	2.8669013425976675	1.564711790282864	-0.0153574474314358	0.33759403529074355	0.9411665188182711	-0.42805248778071	-0.8528804991515985	0.29894133516739607	0.9036233820088632	-0.39827769395615475	0.15760603409714896
418														9.24998119165378	2.8920415821788383	1.5634965013387492	-0.015376930105486408	0.3376221623483827	0.9411561111270187	-0.4277865511990212	-0.8529914575147239	0.2990054180448137	0.9037489787732974	-0.39801614150447323	0.15754661046215163
419														9.218413608214291	2.918801552448386	1.5524464230857598	-0.01537634045202707	0.33759146910051724	0.9411671308247317	-0.42749183537165575	-0.8531308666354798	0.29902918767967784	0.9038884327420483	-0.397743289552884	0.1574356273871138
420														9.22386964490953	2.969701661556152	1.6048024084803507	-0.015441708145988553	0.3375208152549503	0.9411914007890038	-0.4274138116835769	-0.8531967773378184	0.2989526596678419	0.903924215424971	-0.39766186441497553	0.1574358737974153
421														9.22228555193627	2.944603579919395	1.6068552305890127	-0.015521598645273416	0.3374518063660184	0.9412148311388887	-0.4275191797369366	-0.8531834944183971	0.29883988323025173	0.9038730170397568	-0.39774891983803656	0.15750989122948195
422														9.194003189594978	2.8699949571828713	1.5686922644163352	-0.015609926412893882	0.33732724648603324	0.9412580193419527	-0.42771043867225317	-0.8531511838778345	0.29865839700004926	0.9037810082360515	-0.397923844756759	0.15759601177005073
423														9.213935172899278	2.842100298258309	1.559499769092895	-0.015699387051493208	0.33720560991879284	0.9413001146741151	-0.42786732203274774	-0.8531331743784083	0.2984850775357876	0.9037051974968011	-0.3980655265334027	0.15767292920140896
424														9.218820675934579	2.7652287425493074	1.531167253837087	-0.015854689023956203	0.33705879010574497	0.9413500947301197	-0.42797870147601574	-0.8531523321035565	0.2982705639334301	0.9036497440484654	-0.3981488041407564	0.15778044822609855
425														9.197859391624402	2.7653066563439594	1.5439482913328717	-0.01598661804103302	0.3368648448122071	0.9414172849344	-0.42787478281522434	-0.853277948052687	0.2980602516234262	0.9036966295579696	-0.3980437409338867	0.15777700095046215
426														9.231407076753072	2.761563883885359	1.554229058497935	-0.016163050548700653	0.3366629553169972	0.941486489714104	-0.42762346589289524	-0.8534770809496902	0.29785070708551925	0.9038124402854322	-0.39778753978829134	0.1577597729919465
427														9.217330585944522	2.858982602127022	1.5618922200431535	-0.01634702391681947	0.33644642325626195	0.9415607144986093	-0.42731393548820606	-0.8537073167925162	0.297635041271192	0.9039555162432744	-0.3974765672753441	0.157723819128135
428														9.209966356044985	2.883589988278474	1.5939236982459628	-0.016479778403710788	0.33621919930825744	0.9416395631664375	-0.4270186018554097	-0.853927358175168	0.29742760569494875	0.9040926559668628	-0.3971960686820718	0.15764438604115044
429														9.200613059785281	2.9056266344571138	1.571491215842984	-0.016640593878364585	0.33596420038826774	0.9417277455256629	-0.4268306359554345	-0.8541127184480108	0.2971650591762576	0.904178466258324	-0.39701324945500394	0.1576127561840226
430														9.189616409882388	2.9030379484527056	1.5503968272572635	-0.01679420569551293	0.33570569249096727	0.9418172023722104	-0.4266664892102998	-0.8542875764122123	0.2968980359866088	0.9042530960079784	-0.39685567252706455	0.1575814505044214
431														9.185217195577387	2.827528338534722	1.5539661778568348	-0.016902714726647505	0.33542772792101183	0.9419142941778818	-0.42657161093398144	-0.8544317938770788	0.29661923463791934	0.9042958359851367	-0.39678022752368186	0.15752616311647316
432														9.223514770147162	2.747879970489516	1.5341280259346102	-0.01705116623556352	0.33515094974165716	0.9420101372157696	-0.42636550257070926	-0.8546298133082927	0.29634496861303355	0.9043902453850519	-0.3965875982578106	0.15746923814024044
433														9.247360502828334	2.767719324462282	1.5211466113935168	-0.017176198839189194	0.334865445585394	0.9421093946810698	-0.4260623396438393	-0.8548697031798352	0.2960889618382247	0.9045307407328144	-0.39631165001563545	0.15735696721540526
434														9.266773032720371	2.862935026154303	1.537621468721145	-0.01732691518309948	0.33460218257695173	0.9422001684488165	-0.42570187468862963	-0.8551309905681896	0.2958528398654531	0.9046975692997213	-0.395970160977576	0.15725755854193024
435														9.274707107456939	2.9363604198230857	1.5884897257469204	-0.01744798346354437	0.3343906067458913	0.9422730442887404	-0.42544975089172	-0.8553243375213586	0.29565653571301653	0.9048138357359647	-0.39573122161861773	0.15719008523761024
436														9.263617310493498	2.934237494071444	1.5671128255660935	-0.017588377184428683	0.33415351508079255	0.9423545390919326	-0.42524936095021587	-0.8555055662362296	0.29542039054584696	0.9049053154885605	-0.39553970028048796	0.15714552332971649
437														9.229198751447546	2.9315582942060803	1.5028932580122762	-0.017701240980560917	0.3339079103932619	0.9424394799903881	-0.425051438058724	-0.855684471280572	0.2951869926224703	0.9049961000313529	-0.39536008016249313	0.15707471452130084
438														9.251572127324543	2.9052553391229634	1.5468429749959984	-0.017835142098075074	0.333630804772042	0.9425350889030608	-0.42483590909546487	-0.8558836569144932	0.2949196774881315	0.9050946680040552	-0.3951628169929874	0.15700315288807215
439														9.250525188734871	2.878625587833005	1.547980515988963	-0.01798590667793948	0.3333860472924052	0.9426188257358951	-0.4245626265227621	-0.8561000535111207	0.2946850429498399	0.9052199088183298	-0.3949005467823532	0.15694099155393543
440														9.188676172447277	2.9289328832884536	1.526106258556734	-0.01814982772935836	0.33312844100499883	0.9427067548007566	-0.4242965694200115	-0.8563189068114834	0.2944322519962711	0.9053413748038937	-0.3946433473793336	0.1568872953346786
441														9.210744007116148	2.9245597817422913	1.514487933158417	-0.01827604629695556	0.3328803029133489	0.9427919654218891	-0.4240825748329602	-0.8565067960201561	0.29419394639307833	0.9054390956076496	-0.39444494204337793	0.1568222938283902
442														9.254131135746166	2.9180837683490237	1.491365453133943	-0.01841584873526575	0.3326458793170098	0.9428719825558368	-0.4239246697035208	-0.8566676792094478	0.29395299252543855	0.9055102047642102	-0.3942932999320596	0.15679305691441286
443														9.262847044471195	2.867393351561604	1.515598327318736	-0.018577619610163743	0.3324171457625502	0.9429494754506728	-0.42378039324294114	-0.8568237126375726	0.29370615207180123	0.9055744311499069	-0.3941471383443565	0.15678961375829875
444														9.253805533387913	2.8673519497607485	1.5492970519812004	-0.018779263318186745	0.33217195886606826	0.9430318812279386	-0.4236013095994941	-0.8570052821428644	0.2934346211421246	0.9056540563453681	-0.3939590538651291	0.1568024046463336
445														9.264060580404875	2.862734530789579	1.516987409151149	-0.018986243046822282	0.33196777891937734	0.9430996322416333	-0.42339250549291574	-0.8571875809912507	0.2932034059945431	0.9057473758545479	-0.39373448509586373	0.15682744140901106
446														9.233515791095444	2.8652511373009344	1.562422564009921	-0.01916122866038167	0.331771040152003	0.9431653217928885	-0.42322597471014234	-0.8573447265950971	0.29298428986931774	0.9058215175446401	-0.3935581236565147	0.15684190019599026
447														9.267047460495684	2.8612943644103868	1.5729225164087957	-0.01930808292921321	0.3315727027508714	0.9432320715094886	-0.42304927772399786	-0.8575028711939816	0.29277659488299546	0.9059009363891852	-0.3933806918044659	0.15682832896080184
448														9.271150095758511	2.9081809987119365	1.5711323797446521	-0.019421769598816863	0.33141394352241316	0.9432855309526231	-0.42296211738598577	-0.8576052936859646	0.29260247349975205	0.9059392044293111	-0.39329118764692944	0.1568317557041739
449														9.275313404716396	2.95492118461476	1.5693651512368814	-0.019537666270739995	0.3311956177242807	0.9433598159752861	-0.42295938903571934	-0.8576897707751825	0.292358704905714	0.90593798619068	-0.39329088459796196	0.1568395526292024
450														9.25851118460092	2.901418366789148	1.4966859983795575	-0.019682819060893364	0.33100935730808173	0.9434221706152058	-0.4229440928242087	-0.8577736315294342	0.2921347144690502	0.9059419854377669	-0.393264799374794	0.1568818555275902
451														9.268779338560586	2.875280422007196	1.5204221668610864	-0.019852794972134158	0.330832568859058	0.9434806187272274	-0.42288894281385736	-0.8578751269401503	0.2919164411663035	0.9059640216794337	-0.39319216416345143	0.15693665430003595
452														9.220768720809906	2.8267046568501217	1.4925277282256164	-0.01999529705543679	0.33067151694079555	0.9435340672067641	-0.4227780392534356	-0.8579921894635807	0.2917329812422864	0.906012647605256	-0.39307219528168735	0.15695646426875753
453														9.205430040764618	2.8786296124748345	1.556865951176705	-0.020140553219054613	0.33052434471266345	0.9435825431133703	-0.42255963864916124	-0.8581518740443249	0.2915796852644297	0.9061113120917988	-0.3928473222849789	0.15694990115575502
454														9.197860033441547	2.925612415254687	1.5335703271235983	-0.02029788863693932	0.33035798475469597	0.9436374291144337	-0.42237308170270377	-0.8583051880381997	0.29139866856193963	0.9061947779422715	-0.3926522712216576	0.15695610320924253
455														9.194543010303713	2.8753379879222134	1.5366075267243906	-0.020416376295071925	0.33018029716390673	0.9436970610019578	-0.4222694109335756	-0.8584207981957781	0.29120830656891455	0.9062404295598324	-0.39254898368188157	0.15695088162075682
456														9.226088098734719	2.8474611847333793	1.5481547474464317	-0.020496924481615997	0.33002999336982203	0.9437478898324018	-0.42217969113281767	-0.8585167861679568	0.291055383497441	0.9062804116176154	-0.3924654524211768	0.1569289143977215
457														9.216696944587614	2.848476679940614	1.5818372884932155	-0.020591201186790253	0.3298913602243837	0.9437943064476446	-0.42217903923829225	-0.8585723975872093	0.29089224281369735	0.9062785781764442	-0.3924603528391836	0.15695225448468675
458														9.213194956502164	2.7986294536225227	1.5849519560875147	-0.020639358635790472	0.32977684620917735	0.9438332737191627	-0.422145010944066	-0.8586288458999318	0.29077498985226646	0.906293333645425	-0.3924330983656703	0.1569351990376363
459														9.26394815439729	2.7666964863388106	1.530197969298204	-0.020626775730120617	0.3296931341587855	0.9438627937425735	-0.42213594216948563	-0.8586568808513695	0.2907053616555384	0.9062978442276356	-0.39244209541683184	0.1568866447253756
460														9.297127002157533	2.764024250056806	1.540214077976952	-0.020666462023719467	0.3295910834311933	0.943897565983764	-0.42204942589189937	-0.8587310561587602	0.2906118636476805	0.906337232740518	-0.3923655067804917	0.15685066030191774
461														9.279652188701645	2.8144587448847838	1.5493985829266097	-0.020656903174651853	0.3295299494196206	0.9439191198332277	-0.4218778695743161	-0.8588228553401781	0.2905896872030733	0.9064173186312525	-0.3922159042935994	0.15676201358902186
462														9.291326317904483	2.836254969016286	1.5148986773813442	-0.02067115467178232	0.32946532781460086	0.9439413653043037	-0.42163386409011777	-0.8589501929083614	0.2905674633456487	0.9065305223857448	-0.39199128035034964	0.15666923154315343
463														9.2892897081005	2.935717404249425	1.5426423613812519	-0.02067160813728841	0.32937078862995917	0.9439743472225807	-0.42144434192326674	-0.8590612812769818	0.2905139956553128	0.9066186360746634	-0.39182725608108127	0.15656963343537522
464														9.307112433084873	2.8842441015278855	1.5332513855934478	-0.020696268596965217	0.32924122239471193	0.9440190050746847	-0.42129022741073135	-0.8591710191455005	0.2904129889462518	0.9066896981627045	-0.3916955161046872	0.15648774363861911
465														9.276304211892139	2.9311915718816173	1.4663829489093347	-0.020746291919914395	0.32908318638984446	0.9440730097863621	-0.4212204910928332	-0.8592563919398983	0.29026152138018646	0.9067209544590256	-0.39164104655402876	0.15644296532276214
466														9.2534178451848	2.886065719200912	1.5354622791897399	-0.020840426560614855	0.3289386450197902	0.9441213081131665	-0.4212252281370633	-0.8593112691270862	0.29009214041761955	0.9067165950845122	-0.3916420694508461	0.1564656691885094
467														9.236307440608817	2.8116317585282737	1.5187374883918943	-0.0209276115804799	0.3288429599042455	0.9441527115858701	-0.42128297908537926	-0.8593272848375672	0.28996080608703423	0.9066877558489936	-0.391687279925082	0.15651960943730342
468														9.246270307415022	2.7862950789170444	1.5423027763476174	-0.02098869493083122	0.32870694727426664	0.9441987171664303	-0.42128520430542915	-0.8593761848366704	0.28981261112812406	0.9066853099716754	-0.391694160984308	0.1565165580134119
469														9.233032723552737	2.760489069613347	1.5225743344142217	-0.021045922027779662	0.32855997297481726	0.9442485972056239	-0.4212603630901693	-0.8594396013849441	0.28966062566463513	0.9066955253309349	-0.3916783319639683	0.15649699235060122
470														9.248807683680608	2.808021576071748	1.5419834634125533	-0.021117313702763485	0.32842765746391406	0.9442930333719219	-0.4212032352416096	-0.8595143139106343	0.2895219832840569	0.906720405463548	-0.3916253541275109	0.15648542526549014
471														9.216050133689883	2.8090156817191847	1.5325663360719801	-0.02116322127917275	0.32831145744321655	0.9443324123297894	-0.42117940227642237	-0.8595663042567645	0.289402280026337	0.9067304059990289	-0.3916086764844184	0.1564692153075417
472														9.237630369252441	2.805875093342541	1.521335530552174	-0.021173712203668926	0.3282144671609485	0.9443658917272324	-0.4211591739820477	-0.8596061476383945	0.28931336144920383	0.9067395569193368	-0.39160252104465965	0.15643158705706295
473														9.229986820035156	2.831825308432442	1.553585720407758	-0.02121928008798213	0.3281174283021017	0.9443985892603626	-0.4211822361074585	-0.859631937617374	0.2892031393600706	0.9067277795127207	-0.39162722718500365	0.15643800301498567
474														9.27484890759743	2.8506762415990745	1.5297103757303412	-0.021234016407905565	0.32801420674486464	0.9444341145472911	-0.4211882672720421	-0.8596628848119019	0.28910234864015405	0.906724632983776	-0.39164576424418984	0.15640983118084628
475														9.263398608789775	2.8278119179205397	1.5645673382253706	-0.021285415930905494	0.32789680634749124	0.9444737240684704	-0.4212676959225649	-0.8596712958398549	0.28896157440240916	0.906686527660328	-0.3917256022985241	0.1564307932061868
476														9.28495687243691	2.8245432057116404	1.553696080910733	-0.021290865984979257	0.3278144278552993	0.9445021968823115	-0.421348784019922	-0.8596621774708595	0.2888704602949115	0.9066487198637316	-0.39181454990334863	0.15642716277390428
