// Start Time: 1748431178.2324173
// Update Rate: 100Hz 
// Filter Profile: 46.1 human
// Option Flags: AHS Disabled ICC Disabled 
// Firmware Version: 4.0.2 
PacketCounter	SampleTimeFine	Year	Month	Day	Second	UTC_Nano	UTC_Year	UTC_Month	UTC_Day	UTC_Hour	UTC_Minute	UTC_Second	UTC_Valid	Acc_X	Acc_Y	Acc_Z	Mat[1][1]	Mat[2][1]	Mat[3][1]	Mat[1][2]	Mat[2][2]	Mat[3][2]	Mat[1][3]	Mat[2][3]	Mat[3][3]
0														9.358435675088986	-2.8380718322173424	-0.802010415880305	0.3065770691239327	0.04815818313280368	0.9506267880113239	0.9473429409413976	-0.11246794166779356	-0.299820470190935	0.09247622903148112	0.9924876581068185	-0.08010240676633823
1														9.336813835839568	-2.845994781440453	-0.8077949089639563	0.3065377383287102	0.04801169232882485	0.9506468810131564	0.9473376846989743	-0.11261108677847723	-0.299783345574363	0.09266027266043919	0.9924785239662837	-0.08000283330108088
2														9.291450300412265	-2.875182764393881	-0.799855581018131	0.30657563679042615	0.04788951070778902	0.9506408226510754	0.9473035194796974	-0.11281019220329463	-0.29981644804185525	0.09288391092069426	0.9924618155371139	-0.07995075855082462
3														9.328660166520196	-3.0362239639328537	-0.8081697117030249	0.30656172684680283	0.04791870804959775	0.9506438371185941	0.9473034292562259	-0.11286722489666626	-0.29979526758026126	0.09293072985886458	0.9924539218336452	-0.0799943278296403
4														9.405538920042023	-2.9830699675776833	-0.7694157151352073	0.3065106258282144	0.04793583385554678	0.9506594511637543	0.9473344399940737	-0.11271340790610454	-0.29975514420824806	0.09278305370870171	0.9924705756397851	-0.07995912351772425
5														9.342798633879687	-2.9015991211076413	-0.7536887350935227	0.30646146072595215	0.04790710781404828	0.9506767495371964	0.9473594914086273	-0.11260214397511939	-0.2997177859423662	0.09268962794025709	0.992484592421011	-0.07989347081706408
6														9.314019609913375	-2.865078201067731	-0.7907934400729675	0.30639974726993013	0.04789362742863129	0.9506973205624655	0.9473861850557399	-0.11252034932233615	-0.29966412423563765	0.09262079268962886	0.9924945196020518	-0.07984996757317994
7														9.290836723442954	-2.839265101582346	-0.7480568598096576	0.3064325212822483	0.047900556115107185	0.9506864081412272	0.947383222412743	-0.11244354030702011	-0.299702319200354	0.09254263769448001	0.9925028901555335	-0.07983654076587496
8														9.269269549612789	-2.8012758546093552	-0.7266661288497234	0.30649894238065095	0.04795952879842885	0.9506620229697695	0.9473638121002963	-0.11244570963022352	-0.29976285611888176	0.09252138046060682	0.9924997964650611	-0.07989961310591881
9														9.336139399708884	-2.8104359899501983	-0.7553959178398141	0.306534023987451	0.04800197081030527	0.9506485696283287	0.9473393578732654	-0.1126026454552349	-0.2997812290000023	0.0926554540344493	0.9924799519561134	-0.07999069822711125
10														9.356126867519018	-2.8149340465777324	-0.7275552135008498	0.3065909325613406	0.04788839400614947	0.9506359459807314	0.9472997813420949	-0.112798234917514	-0.2998327574977647	0.09287154752876442	0.9924632284971601	-0.07994758120548326
11														9.268825716719096	-2.8483072229503117	-0.7544423571490488	0.30654225889813147	0.047698267552945095	0.9506612008397519	0.9472801407256239	-0.11311147165025356	-0.29977680024971387	0.09323185344330492	0.9924367336276718	-0.07985706762688297
12														9.259795348624346	-2.862497480780231	-0.7921183348040165	0.30646469819065647	0.04762960678096584	0.9506896493182198	0.9472830585251505	-0.11331879086787214	-0.2996892701907749	0.09345691945568085	0.9924163804543602	-0.07984692863047615
13														9.290932371199723	-2.88489372153982	-0.7746057635997268	0.3063505344778731	0.04759153112347847	0.9507283503664152	0.9473077228458912	-0.11342687505356452	-0.2995703961544198	0.09358113197463697	0.9924058596062937	-0.07983220877214614
14														9.324268757896414	-2.847808959372246	-0.7497941339345985	0.30628752618103955	0.04760631650267255	0.9507479108233403	0.947318776803029	-0.11352477681850787	-0.2994983475158435	0.09367543126301564	0.9923939558851391	-0.07986958056940502
15														9.337188351044343	-2.8530328235644955	-0.7815327078178022	0.3061703687573559	0.04763321194277975	0.9507842985740766	0.9473385927625058	-0.1137140267319828	-0.2993638434867399	0.09385784973959299	0.9923709977848065	-0.07994064546804616
16														9.313986635650705	-2.872581484560822	-0.7677720193906329	0.30604804918394135	0.04759105044637357	0.9508257903044675	0.9473595124842981	-0.11388649073543441	-0.2992320526505831	0.09404544484565608	0.9923532431273547	-0.07994057266747681
17														9.325246087066663	-2.890247921693377	-0.7778349849339211	0.3059126037950731	0.04748898176338523	0.9508744793348887	0.947387665009299	-0.11400685472249664	-0.29909705659620234	0.09420239395868296	0.9923443120647997	-0.07986660932512835
18														9.313202860528397	-2.8822960982955155	-0.7455974818096937	0.30576911620729064	0.047455312785923076	0.9509223106343669	0.9474224389723176	-0.11410520389727977	-0.29894936791253834	0.09431844838396336	0.9923346188317483	-0.07985007553215737
19														9.306461817041123	-2.836489697739904	-0.7765603678012196	0.30566643295149265	0.04750824019225752	0.9509526796221492	0.9474417670098716	-0.11425794842500636	-0.29882974976886323	0.09445702669427769	0.9923145107956166	-0.0799361105667091
20														9.350156357637086	-2.8651182360771377	-0.7915674359753451	0.3055821022018059	0.047585276189234915	0.9509759304545617	0.947461477598307	-0.11435340281910136	-0.29873072779833926	0.09453214945804506	0.9922998240217957	-0.080029569317567
21														9.361174224426625	-2.883379015371584	-0.8024147889307849	0.30553584621086916	0.04760064951243875	0.9509900235261158	0.9474818824245077	-0.11429653812370302	-0.2986877698370799	0.0944771356335471	0.9923056381674605	-0.08002244249927312
22														9.359904053195491	-2.8488404449960596	-0.7526060515002061	0.3054884177222955	0.047572473167797946	0.9510066700261501	0.9475063874629956	-0.11418670726261451	-0.2986520410131918	0.09438470402746163	0.9923196338283449	-0.0799579387204756
23														9.330892496561436	-2.8586824780471725	-0.8180669452176015	0.3053893721945673	0.04756889679186033	0.9510386592608173	0.9475476052801095	-0.11407914460265683	-0.29856236282334	0.09429139450945428	0.99233217665494	-0.07991235259164259
24														9.29867941638748	-2.8466814683855453	-0.8143064967253996	0.3052441606878208	0.047687037011902855	0.951079359920619	0.9476002230666125	-0.11404207021431206	-0.2984094895698545	0.09423279476962942	0.9923307677998603	-0.0799989229155342
25														9.330216073245248	-2.821736465056664	-0.7697467802031891	0.30509100175554704	0.04785914483659165	0.9511198572752582	0.9476528821025731	-0.1140474074615799	-0.2982401782020317	0.09419923402280911	0.9923218687032969	-0.08014869432943694
26														9.339603867709323	-2.8518918893517657	-0.7607527839891877	0.30494291785223604	0.048047642236198285	0.9511578422781923	0.9477118342638413	-0.1139744100157159	-0.29808071567586336	0.09408557832117448	0.9923211465735837	-0.08029100830639987
27														9.294755046637148	-2.833386287107458	-0.7265410933453179	0.3048433248128393	0.04821190699367023	0.9511814544770556	0.9477542214295132	-0.11390787543616346	-0.2979713604965356	0.09398129111472486	0.9923208190588629	-0.08041709384674484
28														9.296547460896068	-2.8662184672421502	-0.7765611372295577	0.3047377929247094	0.048321477825537695	0.951209709971536	0.9477861543932482	-0.11395400997300748	-0.2978521263169534	0.09400150585940398	0.9923101926271989	-0.08052452113695957
29														9.276786201315511	-2.86078023160151	-0.8052111462379528	0.3046344440576071	0.04846835080446921	0.9512353412610401	0.9478227221087908	-0.11395551015878239	-0.2977351661438959	0.09396777611497603	0.9923028573347688	-0.0806541776801375
30														9.320446259229662	-2.889452257219074	-0.8206655728607932	0.30454878331898333	0.04868278738577764	0.9512518198622689	0.9478736941469508	-0.11376711477800358	-0.2976449286302422	0.09373099019609443	0.9923139774322642	-0.08079276990807976
31														9.375383435943249	-2.844155535615317	-0.7897780154232806	0.30447944158480256	0.048789933831100474	0.951268527813763	0.947910809350536	-0.11363724541847309	-0.2975763330140923	0.0935808055565831	0.9923235958146208	-0.0808487106942494
32														9.350254811502339	-2.877123297195389	-0.7550542494502158	0.30440428330664693	0.04884882409770086	0.9512895588036479	0.94795368257559	-0.11345010969938019	-0.2975111565984992	0.09339083464636522	0.9923421108637238	-0.080841122027003
33														9.363252902481035	-2.836315957278599	-0.7582337780022593	0.3043512964134144	0.04897882143473886	0.9512998283518916	0.9479911358279615	-0.11326861344586892	-0.2974609681952614	0.09318312488367164	0.9923564360948716	-0.0809049379086331
34														9.408512306581843	-2.8531544166742746	-0.7935260154876036	0.3043597243892705	0.04904002529663576	0.9512939787934083	0.9480103343349283	-0.11305494954131898	-0.29748106557962345	0.09296001379015445	0.9923777780175835	-0.08089982406049567
35														9.364887070163931	-2.869860129519879	-0.8075393997200492	0.3043563098005252	0.04911300492342757	0.9512913062947641	0.948010572875285	-0.1130866224405099	-0.2974682664447961	0.09296876035142865	0.9923705601096748	-0.08097827502688407
36														9.330463227863746	-2.871747412526284	-0.7837713098317836	0.30441552727059507	0.04925147190305651	0.9512651992330786	0.9479961340161294	-0.11308636220025683	-0.2975143770892188	0.09292209988500633	0.9923637272692385	-0.08111544953500627
37														9.37189571823037	-2.9144880807633706	-0.7788297838095709	0.30449660004196993	0.049462914022613935	0.9512282800144625	0.9479745164720402	-0.11311253311593367	-0.29757330352654093	0.09287699759619	0.9923502279883292	-0.08133196375982205
38														9.342460538939756	-2.8792383046995167	-0.8179594478696388	0.30459746893105666	0.049594766561422365	0.9511891194975436	0.9479623471317032	-0.11294636572868316	-0.29767517009188893	0.09267022359607469	0.9923625736586406	-0.08141714844093323
39														9.296981455616352	-2.8630626846044778	-0.7829802208129825	0.30472145769863135	0.049668894850332934	0.9511455378134135	0.9479437805877455	-0.11275251466861488	-0.29780775557549866	0.09245226910700133	0.9923809103969353	-0.0814414305910465
40														9.307378386016905	-2.8834394493939928	-0.7935768455676903	0.30485443894734343	0.04974490538611215	0.9510989514462878	0.9479254916084112	-0.11252524000553554	-0.2979518966555665	0.09220104887176289	0.9924028994061957	-0.08145828280244694
41														9.312510433012791	-2.8001573615248776	-0.828059644010787	0.3049811473489573	0.04987498871329066	0.951051515567145	0.9479042560724636	-0.1123670031742546	-0.2980791470689404	0.09200011457288226	0.9924142996241474	-0.08154653162514239
42														9.296262511352962	-2.8195811180435055	-0.7550682362562169	0.3050215293949631	0.049949224098938705	0.9510346689881881	0.9479155284916543	-0.11213178004561627	-0.29813187476046604	0.09174975449529171	0.9924371712686484	-0.08155025220278703
43														9.341598356980532	-2.790538254625019	-0.7616487030006223	0.3050635936242667	0.04996431120547046	0.9510203843508356	0.9479203796501383	-0.11194118313179835	-0.2981880704572045	0.09155958545660758	0.9924579281384255	-0.08151136844758577
44														9.32876895719079	-2.8309482380415925	-0.757625730535317	0.30510698044599915	0.049927850383014505	0.9510083807408092	0.947915849637341	-0.11183132752718544	-0.29824368591778333	0.09146186357954184	0.9924721476896159	-0.0814479193774684
45														9.330514564446535	-2.8185566363879344	-0.7777370053453235	0.30514362489436286	0.04991685460956208	0.9509972007383707	0.9479121884248893	-0.11174285574159296	-0.29828847987518914	0.09137752033112934	0.9924826657511968	-0.08141441494927457
46														9.373870895933774	-2.848729097947481	-0.7912468637153293	0.3051660679807422	0.04987922436858744	0.9509919736409772	0.9479231887473278	-0.11153490411896325	-0.29833134833314384	0.09118826233825794	0.9925079486530886	-0.08131834154830789
47														9.37552346529967	-2.8367273421418706	-0.8111460780979456	0.3052525365130132	0.04985482052324092	0.9509655019100154	0.9479055599999111	-0.11142376796872522	-0.2984288746969824	0.09108204144411308	0.9925216575985875	-0.08127004936706847
48														9.35021747177185	-2.8245965769819694	-0.7477711407568182	0.3053794870778025	0.04991784565742596	0.9509214360592675	0.9478809132503776	-0.11127773708302519	-0.2985616176358088	0.0909128328000402	0.9925348728959613	-0.0812981114028451
49														9.364073415960371	-2.819972086168245	-0.800048318444797	0.30554419898206353	0.04992349499050397	0.9508682280507337	0.9478318550105518	-0.11125032976113611	-0.29872753263684076	0.09087088145091043	0.9925376611373351	-0.08131097175881608
50														9.372624457033393	-2.853218482995662	-0.789835316701344	0.3056866318843102	0.04997841287311533	0.9508195629739171	0.947794603022286	-0.11118555174372949	-0.29886981039454236	0.09078035893877862	0.9925421559460972	-0.0813572068154976
51														9.337756548679382	-2.856758527481341	-0.7651574715368357	0.3058864687803513	0.04996818930543556	0.9507558299977041	0.9477361647085067	-0.11113421597576115	-0.2990741515796092	0.09071730992868643	0.9925484200264434	-0.08135111297526065
52														9.335584700645462	-2.870741798994157	-0.7440972970466241	0.30601641034421995	0.04998992915773348	0.9507128712617936	0.9477012719130525	-0.11107546812803046	-0.2992065166311092	0.09064356466082635	0.9925539014899617	-0.08136643547947103
53														9.32627586811097	-2.8400718814740378	-0.754165189980167	0.30614063620767173	0.05001735530198054	0.9506714337934834	0.947673757463606	-0.11095708524341152	-0.2993375597032502	0.09051165823899449	0.9925657607447891	-0.08136860770558696
54														9.331308330295283	-2.8032797962492433	-0.8163387192335697	0.3062108875520213	0.05002078676461674	0.9506486276411769	0.9476643492579773	-0.1108186219049759	-0.29941862698325444	0.09037241553736808	0.9925810566047146	-0.08133678490947707
55														9.336742993478724	-2.8605490776193414	-0.7633621096020405	0.30622459672811897	0.04998084907116773	0.9506463122974946	0.9476841750025917	-0.11054048535707625	-0.29945868754584287	0.09011770529900104	0.992614082019365	-0.08121627526853992
56														9.315052550106783	-2.8689681999206114	-0.7683508561650412	0.30618336186521233	0.049894825097433426	0.9506641127892721	0.9477335305083607	-0.11011196864132528	-0.2994603638415119	0.08973797449839965	0.9926660368877487	-0.08100145148388557
57														9.349744184947232	-2.8667962053086553	-0.7903601348210372	0.30610159718873475	0.04975467649692045	0.9506977881352163	0.9477895810619831	-0.1097320938434343	-0.29942240666170383	0.08942439392501655	0.9927151352464728	-0.08074613318123017
58														9.364126597107969	-2.907060278534536	-0.8681340088555487	0.30600326124855626	0.049606494196131334	0.9507371875754191	0.9478440567768454	-0.10942409952766574	-0.2993626738178502	0.08918322789662209	0.9927565472844434	-0.08050335201599049
59														9.306712423564013	-2.9289361946612247	-0.8263735538572985	0.3058736929871533	0.049335514476160136	0.950792980069675	0.9479033095830359	-0.10913305973998341	-0.2992812906837259	0.08899775064532983	0.9928020861597553	-0.08014622946159036
60														9.250821835413474	-2.985113421120784	-0.8327400896421583	0.3057460637063099	0.049007146509183974	0.9508510104738414	0.9479607053932757	-0.10883733775551938	-0.2992071772878698	0.08882480260817227	0.9928508113011336	-0.07973343677718187
61														9.242480631066579	-2.952501606844369	-0.8390388781330383	0.30560167118422943	0.0487570295399829	0.9509102852739806	0.9480285900576606	-0.10850730446287063	-0.2991119477912671	0.08859690176687834	0.992899248135801	-0.07938307154973898
62														9.23407277770022	-2.9198475518803026	-0.8462337955521664	0.3054756347067276	0.04863571312027648	0.9509569937751153	0.9480961681222172	-0.10815551486402922	-0.29902515044133954	0.08830794184268453	0.9929435794715527	-0.07915020779334775
63														9.28022164134856	-2.8428728159767402	-0.8229305223535682	0.3053967515578443	0.04855119308477718	0.950986648585542	0.9481491696242447	-0.10781132561364623	-0.2989813877322194	0.08801122814034446	0.9929851457698011	-0.07895900203115039
64														9.290046635819328	-2.7804844267349487	-0.754339798708244	0.3053641275207641	0.04841826200891014	0.9510039019517842	0.9481797900084241	-0.10753949208754801	-0.2989821791698172	0.087794279102132	0.9930211123362828	-0.07874792067952147
65														9.384750038365487	-2.7908349965874297	-0.6930157947074618	0.3053779448433923	0.04824877986656856	0.9510080788534939	0.9481897774285859	-0.10732395579401369	-0.29902794935031246	0.08763821531246763	0.993052679244214	-0.07852336889572153
66														9.43014680093601	-2.8082558404205122	-0.7255180384171713	0.30529652590152473	0.04804551463825579	0.9510445098919427	0.9482186014656121	-0.10722348732565207	-0.2989725867037396	0.08761001716161793	0.9930733871617301	-0.07829260887255024
67														9.421462911536626	-2.7761763190292856	-0.7333660302576906	0.3052498761443154	0.04780206824086325	0.9510717509135556	0.9482205084244422	-0.10729144807762805	-0.2989421558975889	0.08775181204495319	0.9930777952614296	-0.07807760268813146
68														9.356441992235377	-2.8006688138492164	-0.7519316250325375	0.3051631082541719	0.047527562943080526	0.9511133518783892	0.9482131558319962	-0.10759613106485724	-0.2988559580918559	0.08813222150711747	0.9930580060301442	-0.0779006302391374
69														9.26974006519637	-2.833014483741755	-0.7782911271237759	0.30502395473298993	0.0473527529484431	0.9511667066436095	0.9482125710561005	-0.10803895839545877	-0.29869801398737755	0.08861888698367959	0.9930182779068206	-0.07785494597484341
70														9.252082372358732	-2.8149140289156596	-0.8262906846500125	0.30491669879951866	0.04719635971440478	0.9512088679269726	0.9482081137654843	-0.10841613254507587	-0.2985754765436565	0.08903471111036798	0.9929846151042208	-0.07780986045364857
71														9.263319530620908	-2.832786477063201	-0.8365374004404863	0.3048421533860596	0.047140065112808716	0.9512355522057147	0.9481976704826016	-0.10877507533674635	-0.29847807403032744	0.08940044300963279	0.9929480335076182	-0.07785732812674795
72														9.260045608076187	-2.8566835193289464	-0.794751493418383	0.3047399939432575	0.04709284280389697	0.9512706240855495	0.9482073430076707	-0.10900844420940237	-0.2983621855352639	0.08964580725163368	0.992924681558321	-0.0778730119778982
73														9.292694672800643	-2.9135038920088183	-0.8266201206219935	0.30474933062265464	0.04706932094353827	0.9512687971919179	0.9481695333289875	-0.10938661778315917	-0.2983439356123257	0.09001322987058302	0.9928842061770726	-0.07796519462164098
74														9.325136823542664	-2.9708108758899483	-0.8591156336243438	0.3047771343343414	0.04706947964663366	0.9512598816689071	0.9481189928158287	-0.10984683720426491	-0.2983354618849719	0.09045039440956892	0.9928333880576419	-0.0781062718937382
75														9.341489942305746	-2.9997556980693862	-0.7904337401963566	0.30479172534620025	0.0471188407456396	0.9512527629433064	0.9480975401532152	-0.11004738320430055	-0.2983297300057591	0.0906259262899406	0.9928088377410194	-0.0782147888024852
76														9.363361864159318	-2.944693775457054	-0.7560406733008245	0.304843732633049	0.04724426855895292	0.9512298764035332	0.948093519849371	-0.10995196922225481	-0.29837768362225064	0.09049296267656254	0.992813448515117	-0.07831015357883286
77														9.385067363379054	-2.890289245305733	-0.7212835901843399	0.30495865294052504	0.04737712866308619	0.9511864316086212	0.9480934562913432	-0.10959791714946163	-0.2985081149550795	0.09010559435593163	0.9928462641497633	-0.07834077884233218
78														9.381256951003737	-2.775509388945077	-0.7665625313392015	0.305114288637502	0.04757655043520237	0.9511265650363876	0.9480862404226966	-0.10920051650398044	-0.29867662767016173	0.08965350852246473	0.9928805159957317	-0.07842531074635165
79														9.439118881091261	-2.7070288626232175	-0.7777112515009299	0.30520957885416067	0.0477516943020882	0.9510872140171718	0.9480812367111879	-0.10897906720243705	-0.2987733781779611	0.08938166239139983	0.9928964390121291	-0.07853394059375346
80														9.444573817945079	-2.7173575987906617	-0.6978004556480326	0.3052317623907926	0.047804873654018976	0.951077423390301	0.9480937365995578	-0.10877924749563464	-0.2988065292709848	0.08917307804768865	0.9929157916808489	-0.07852638271494533
81														9.359436686301072	-2.691508893643976	-0.7182004347738208	0.30515019021889156	0.04783600833153878	0.9511020332836426	0.948123221421074	-0.10874603334982724	-0.29872505290451185	0.08913875931097187	0.992917930413981	-0.07853830308147361
82														9.334371906157992	-2.7237373757701167	-0.6834590891998221	0.30502139755836943	0.047902107801823635	0.9511400186616485	0.948159603062035	-0.1088119959842763	-0.29858552652659137	0.08919256781135476	0.9929075171424879	-0.07860883060545151
83														9.365667273750267	-2.7452858780768215	-0.6664319450167836	0.3048714335425532	0.047871659992244686	0.9511896305045043	0.9481778340719589	-0.10912282139874707	-0.2984141498397587	0.08951091544787959	0.9928748732944972	-0.07865927787691981
84														9.24820171638134	-2.753965436081024	-0.711102909903057	0.3046149164886384	0.047752957685810116	0.9512777763013687	0.9482326494059982	-0.10936933455625941	-0.29814961220702924	0.08980309155647603	0.9928534653668575	-0.07859644429566115
85														9.27999081150219	-2.7278934957035084	-0.6650244246560229	0.30437201589954377	0.047678282032036834	0.9513592682891792	0.9482844507521143	-0.10961410386614912	-0.2978948618143366	0.0900792784107951	0.9928300608140828	-0.07857603925431622
86														9.280644790363727	-2.7720570580765718	-0.6927341890889854	0.30408833504980726	0.0476530297207956	0.951451245858171	0.9483516607030749	-0.10984359573909938	-0.2975962232905953	0.09032946434224409	0.9928059091451535	-0.07859398601743628
87														9.266942824362687	-2.821826694267481	-0.6687818018569535	0.3038066682097813	0.047718105717856285	0.9515379607445895	0.9484183103756427	-0.11009883065649542	-0.29728934732392265	0.09057713229885006	0.9927745110924093	-0.07870548411479836
88														9.311226787512963	-2.848877271257603	-0.6834848601484524	0.30358803517191857	0.047766301817989854	0.9516053201359725	0.9484774578887685	-0.11021390029456427	-0.2970579203770191	0.09069077559108984	0.9927594253355103	-0.07876488196013517
89														9.369960553673025	-2.823746930373444	-0.7213907197349458	0.3033938954465836	0.04763103729947721	0.9516740137733739	0.948520218192225	-0.11036655721285393	-0.2968646471534731	0.09089301340764222	0.9927489649124588	-0.07866354161185804
90														9.386850593238751	-2.8034306479647673	-0.7931335531504233	0.30321101324671307	0.04744244747308468	0.9517417168663282	0.9485512031597656	-0.11059175162801418	-0.2966817814696576	0.09117947373210539	0.9927329342021509	-0.07853422769929738
91														9.410887489604123	-2.874410306072727	-0.8615043600277744	0.303081842391427	0.04720258376750597	0.9517947850762214	0.9485585761150265	-0.11087432408466799	-0.29655271358967894	0.09153154915793982	0.992712848886545	-0.07837841006494095
92														9.507715939355517	-2.8707264664906016	-0.821178911910238	0.3029695572597233	0.04694738887098049	0.951843154123643	0.948571740648203	-0.1110311046464017	-0.29645192973674306	0.09176655282555979	0.992707427432271	-0.07817201099701235
93														9.522733590128396	-2.9583502736848244	-0.7560255596833357	0.3029194637309208	0.046612932166111676	0.9518755344307622	0.9485694210754168	-0.1111206022614104	-0.29642581728606304	0.09195570615040871	0.9927131742391351	-0.07787619532591958
94														9.4630883083292	-2.9461484384703254	-0.8364060606672808	0.30294852306869585	0.04622405494374088	0.9518852499724186	0.9485250290825202	-0.11138027785749821	-0.29647040814960024	0.09231717919488175	0.9927022566958054	-0.07758716373573388
95														9.419701943551557	-2.963580609517308	-0.846903376394264	0.30300021572628255	0.04580094870291712	0.9518892490031283	0.9484851469492619	-0.11150386026886686	-0.29655153879516266	0.09255698399615303	0.9927079944490496	-0.07722721327668178
96														9.298165173482662	-2.860117347961028	-0.7630686568935171	0.30311687537816256	0.04551515060350003	0.9518658156098059	0.9484235531715264	-0.11168516018840804	-0.296680280408367	0.09280583845037538	0.9927007585668659	-0.07702129764092833
97														9.216191724192125	-2.905398595833121	-0.7093301591045879	0.30326775632916236	0.045342397869488016	0.9518260003417229	0.9483476587725899	-0.11193947597937609	-0.2968270065509725	0.09308805547235449	0.9926800192775659	-0.07694799058759177
98														9.224898496669717	-2.938369497137561	-0.6980507655220998	0.3034184622815417	0.045220261547060214	0.9517837804314173	0.9482872472188257	-0.11204418479994205	-0.29698046638568387	0.0932123034199166	0.9926737775312351	-0.07687807160056434
99														9.284452074721969	-2.904411756728437	-0.7560619474622624	0.3036121596496451	0.045089430412675935	0.9517282173908365	0.948217656227134	-0.11210054139766326	-0.29718133359528454	0.09328951137185493	0.992673366159993	-0.07678968149816295
100														9.285812894304225	-2.89382047790876	-0.7753794901700002	0.30382236173361804	0.04485695280348989	0.9516721212139148	0.9481355362538886	-0.11220289267418262	-0.2974046330642765	0.09343969928867307	0.9926723349931392	-0.07662021884666609
101														9.218263637606222	-2.886912342938511	-0.7452141162432141	0.3039809575135185	0.04457409461463985	0.951634765841628	0.9480739196574175	-0.11224228360180918	-0.2975861432212065	0.09354902636898949	0.992680623292878	-0.07637905343926399
102														9.261499541573933	-2.9183330753857764	-0.7565233895558571	0.3041410245960614	0.04428756406236628	0.9515969991688082	0.9480187121420327	-0.11220714083658262	-0.29777521551304775	0.09358823957218482	0.9926974207756873	-0.076112234227345
103														9.281117607853604	-2.92405420985085	-0.7258096514851388	0.3043034533436416	0.04401027364193372	0.951557935228905	0.9479606130054838	-0.11219726651884016	-0.2979638393764723	0.09364872916063494	0.9927108688836157	-0.07586202163754655
104														9.337185826197787	-2.9150950551542394	-0.7406058207992693	0.3043920243364189	0.04379544522804629	0.951539518095625	0.9479284458440542	-0.11217690556156926	-0.298073822094975	0.09368648291003917	0.9927226706567691	-0.07566070369775166
105														9.306327307248427	-2.892752681832183	-0.7557089949183955	0.3044633842564309	0.04353342678039046	0.9515287112850972	0.947886999744924	-0.11229688306653843	-0.29816043628910144	0.0938737629036357	0.9927206307951382	-0.07545505835936656
106														9.299108615870113	-2.8494796605105663	-0.7848110030396259	0.3046095263967091	0.04334084074486372	0.9514907293042334	0.9478336919526835	-0.11231581490194736	-0.29832272813558486	0.09393789878275544	0.9927269157459371	-0.07529237627968005
107														9.287987445577034	-2.831552583463696	-0.7728215765064573	0.3047404374199737	0.04322967761902752	0.9514538668658814	0.9477852225416838	-0.11235928044194349	-0.29846032237163406	0.09400232833655836	0.9927268441376631	-0.07521286589262663
108														9.29669117828528	-2.864290675781083	-0.7618580847631622	0.30480113727453584	0.04324984258513537	0.9514335067846365	0.9477714652625748	-0.11230976806190088	-0.2985226383909839	0.09394421935479413	0.9927315685089516	-0.07522311171159621
109														9.320070488651115	-2.7977490769528837	-0.7471953451013519	0.3049740835530801	0.04325461070237191	0.9513778676288123	0.947727499379617	-0.1122021855113754	-0.2987026221614563	0.09382641035773309	0.9927435259015582	-0.0752123427365822
110														9.308704528339423	-2.826956753077546	-0.7643902948755167	0.30514055627216974	0.04322639723657212	0.9513257693870469	0.9476758579314968	-0.11218653103926832	-0.29887229805918214	0.09380676527688242	0.9927465239603316	-0.0751972735740235
111														9.306291109696728	-2.887832464396483	-0.7712631665910631	0.3053095340381268	0.04321384148442409	0.9512721231748469	0.9476261119585788	-0.11214704335163994	-0.2990448003255571	0.0937594814388863	0.992751532142683	-0.0751901261381219
112														9.284014817780182	-2.897918844543019	-0.778139969543539	0.3054631929854592	0.04328787411561813	0.9512194266759268	0.9475979848073508	-0.11195627738439218	-0.2992053661672488	0.09354302176098717	0.9927698383355429	-0.07521802424315624
113														9.291190441828292	-2.849176633106104	-0.8618598425974119	0.3055803214903089	0.04344441097817675	0.9511746686453755	0.9475890151419416	-0.1117091573287815	-0.2993261140482397	0.09325087399164556	0.9927908376509393	-0.07530356682217276
114														9.337773742896351	-2.8556316396291064	-0.7471299705504107	0.30564635355721914	0.0435991482563966	0.9511463719262633	0.9476012408259573	-0.11140578853325914	-0.2994004653743709	0.09290960629710254	0.9928181427394449	-0.0753653800170736
115														9.30490411218903	-2.845659681795937	-0.7437133897114813	0.3057331474606215	0.04368008923122674	0.951114762974781	0.9476025931645808	-0.11112432083754126	-0.2995007691912612	0.0926097617510363	0.9928461286237396	-0.07536575419425612
116														9.29765375455866	-2.8021207653773916	-0.7750439022460743	0.3058186066323817	0.043827975120029894	0.9510804847300288	0.9476046923265747	-0.11085932608386265	-0.2995923178268918	0.09230561693681538	0.9928692353059942	-0.07543443951408443
117														9.359033940908093	-2.8023112263777183	-0.7125227919547517	0.3058827478249281	0.043989055621636575	0.9510524210413371	0.9476203109095308	-0.11052393033848074	-0.29966682694996394	0.09193199081275477	0.9928995033778857	-0.07549228607713729
118														9.318993925752412	-2.7950376296571826	-0.7684732728482674	0.3059668735574641	0.04411326016470857	0.9510196068237038	0.947632274186416	-0.1101466020318588	-0.2997679085244404	0.09152783841953616	0.9929359225743002	-0.07550436050832587
119														9.329564008001844	-2.8151500141061088	-0.7788693695918995	0.30604953297762605	0.0442121027243878	0.9509884191391954	0.947633927661569	-0.10987663474381726	-0.2998617419446551	0.0912338890373866	0.9929614368695608	-0.0755245813033868
120														9.32556159703552	-2.840760778454792	-0.7372945949304641	0.30608529502940685	0.044383430191547946	0.9509689286675951	0.9476526651249138	-0.10960342176874247	-0.2999025111902728	0.09091874640804015	0.9929839883205648	-0.07560807159672403
121														9.336151125693148	-2.860541527802007	-0.7486241805278253	0.3061645381578853	0.044641231414889126	0.9509313519031394	0.9476661523998711	-0.1092635005644082	-0.2999839179690089	0.0905104368025823	0.9930098931542299	-0.0757575932011561
122														9.27252517231982	-2.827064078204517	-0.7639386092483634	0.3061962352672558	0.044941542678602064	0.9509070003159225	0.9476978770672955	-0.10889935152056696	-0.30001610796845646	0.090069968970239	0.9930363482673061	-0.07593557604728365
123														9.326718859363732	-2.8296517532368353	-0.7621275907997528	0.3062466081788874	0.04528860649214267	0.9508743119366128	0.9477234121629978	-0.10855096898798808	-0.30006169560590895	0.08962895189084463	0.9930587239704249	-0.07616443874394363
124														9.324746172444328	-2.795555134145107	-0.7151288032268783	0.3062803547973323	0.045620299356380734	0.9508475863942941	0.9477565729050474	-0.10816896388489192	-0.30009490793305504	0.08916177869748954	0.9930852247107009	-0.07636696720963021
125														9.313449749411689	-2.8237525503353686	-0.7346172959249324	0.3063756037146844	0.045939960835332916	0.950801508963312	0.9477483467904191	-0.108026287007364	-0.300172271323369	0.08892165430585691	0.9930860190909199	-0.07663614083224027
126														9.336741669976233	-2.8034947052310613	-0.7508491888623305	0.30645575153730903	0.046261038292079615	0.9507601110089987	0.9477494574653844	-0.107832157503995	-0.3002385579536788	0.08863316661258414	0.993092212306679	-0.07688965881088006
127														9.354489328918525	-2.8205315504005677	-0.7040235036141894	0.30653697398062374	0.04656313101061377	0.9507191795758048	0.9477577086109226	-0.10754689307433557	-0.3003148207442174	0.08826329560681717	0.9931090275596866	-0.07709766551639399
128														9.347086298461619	-2.7769752596617594	-0.7372394521898298	0.30662543605086623	0.04683989826116086	0.9506770565746818	0.9477568578299693	-0.10732892621784945	-0.30039547272418604	0.08796465428159211	0.9931195927620238	-0.07730261359949261
129														9.335769764768912	-2.805118192113055	-0.7568467537503003	0.3067089544956192	0.04713094133638679	0.9506357302357984	0.9477365028463227	-0.10735270172959474	-0.3004511917166884	0.08789276651025241	0.9931032533428246	-0.07759374842776648
130														9.340790964781549	-2.861892405309986	-0.7067026121109866	0.3067734673214312	0.04735683373023725	0.9506036871623385	0.9477245765846972	-0.10732840252261586	-0.30049748908984086	0.08779616554806086	0.9930951335652538	-0.07780674137931409
131														9.298822212157933	-2.866460292773462	-0.7435084034474542	0.30680426643002146	0.04761708043569174	0.9505807465708093	0.9477228208971176	-0.10732035585274172	-0.3005059000593014	0.08770745037422045	0.9930835588561628	-0.07805413684380802
132														9.28788344228235	-2.8469693962233324	-0.7358284734527206	0.3067898423442066	0.048019693149410736	0.9505651485849111	0.9477373850340727	-0.10733427652135005	-0.300454991791478	0.08760046599873555	0.9930626677876253	-0.07843912418767551
133														9.320414382025858	-2.8571738644844302	-0.7425783559555155	0.30677156524582094	0.04835231479236096	0.9505541859414697	0.947746677000957	-0.10739954363223433	-0.3004023539542121	0.08756393658506362	0.9930394713614402	-0.07877287177651163
134														9.329147178345954	-2.9351519554884558	-0.7623719795010101	0.3067261292431328	0.04858327161907844	0.9505570721205081	0.9477653686129102	-0.10742335986336088	-0.30033485947139477	0.08752078437468747	0.9930256227683425	-0.07899509369565774
135														9.342253491314455	-2.8475410336352636	-0.7399228676722929	0.3067130643842251	0.048812582311320796	0.9505495399736612	0.9477736086845796	-0.10744913726702532	-0.300299633002742	0.08747732744573194	0.993011588406033	-0.07921933144302415
136														9.331517224594188	-2.8275709279278205	-0.7316200364041483	0.3066500915426298	0.049047354289445566	0.9505577722548498	0.9477814600685766	-0.10765985668501274	-0.3001993657702163	0.0876129288813835	0.9929771962617111	-0.07950007796887693
137														9.322389221042492	-2.841853209125664	-0.7723692688939844	0.3066091291077732	0.04920505952117099	0.9505628354113633	0.9477597515705005	-0.10810143290107951	-0.30010920263756713	0.0879903133918487	0.9929214179995571	-0.07977946118489915
138														9.342214667172595	-2.892008672314228	-0.7745650119517307	0.3066029374604401	0.04935508683641415	0.9505570546495352	0.9477411370150937	-0.10838061168327237	-0.30006729282028904	0.08821210772885335	0.9928835371857718	-0.08000566002167242
139														9.333179405237797	-2.8599474574754704	-0.7869668096571363	0.306619449912935	0.04949888101742056	0.9505442513176927	0.9477097447431297	-0.10872020105560631	-0.3000435928350097	0.08849154001373072	0.992839251168311	-0.0802463001361838
140														9.387386959779281	-2.908552876020585	-0.8134300392699314	0.3065588027899064	0.049620569989547114	0.9505574677345567	0.9477050746384365	-0.1090253531028118	-0.2999476018996717	0.08875129259101522	0.9927997136455675	-0.08044834770649023
141														9.441998177611666	-2.9099634414938342	-0.8112420618646831	0.30650768375056536	0.04960185971743264	0.9505749288269897	0.9476876343668394	-0.10939418654050079	-0.2998684038362939	0.08911334058404463	0.9927600754783178	-0.0805372278281157
142														9.416923716081744	-2.9422599994044227	-0.776423819077483	0.30635741129339467	0.04952458375209845	0.9506273992210577	0.9477057424146216	-0.10969543847969018	-0.2997010786952569	0.08943691821592398	0.9927306917693897	-0.08054074297588923
143														9.395545498229097	-2.949403645301226	-0.7829711553149586	0.3062468885569178	0.04941366978312878	0.9506687816941142	0.9477057737785829	-0.11004598229906579	-0.2995724422015008	0.08981430618751457	0.9926974216841696	-0.080530859834338
144														9.341739975725945	-2.89903932533071	-0.7580643236975689	0.3061731111091434	0.04932426136292656	0.9506971880019152	0.9476926940561696	-0.1104184223086235	-0.29947675977850574	0.09020301362097893	0.9926605105754309	-0.0805513940153571
145														9.363868098269684	-2.889648452815503	-0.7508591742461734	0.3061250084730403	0.04920538882677167	0.9507188379840738	0.9476730666294606	-0.11076292025080109	-0.2994116468720428	0.09057172832896121	0.9926280296303954	-0.0805379216244369
146														9.34218346697706	-2.897883563830354	-0.7570173202205223	0.30615750709930856	0.049012209114660976	0.950718351671218	0.9476274445011014	-0.1110891157462961	-0.29943519297340154	0.09093848071663058	0.9926011342530325	-0.08045608121543238
147														9.289495173091675	-2.883527165933387	-0.78036568484847	0.3062437079353981	0.04879505849533955	0.9507017585007482	0.9475452907052044	-0.11161918653629549	-0.2994980455017447	0.09150253227298172	0.9925523661063995	-0.080418201448552
148														9.302180972215224	-2.844042821856783	-0.7829296424582717	0.3063515881898165	0.048551745484488484	0.9506794582949538	0.9474556795389971	-0.11214398252578728	-0.2995854844490189	0.09206758236683821	0.9925051411421835	-0.0803561141635164
149														9.254776544667525	-2.886718440148194	-0.7540583743007161	0.30644529646812446	0.048298804181741095	0.9506621407141327	0.9473715322699265	-0.11265122865278199	-0.299661276323035	0.09261997687915402	0.9924600375821853	-0.08027835128646144
150														9.29625803704552	-2.9298038985461092	-0.7463125879910862	0.3065065120605829	0.0481039107339154	0.9506522875565807	0.9473103005738417	-0.11303809998079839	-0.2997091629887706	0.09304274550524705	0.9924255144467192	-0.08021624389119253
151														9.296272027017352	-2.8839003946087036	-0.7171079265817274	0.3066316793897319	0.047919685449513916	0.9506212268517111	0.9472446031138799	-0.11325937190989815	-0.29983324789990096	0.09329884815077222	0.9924091990812031	-0.08012057484032506
152														9.334404042141648	-2.811162248119474	-0.754017296672819	0.30669948344240855	0.0477734841137078	0.9506067120906507	0.9472031692656748	-0.11342624656382613	-0.29990105488894775	0.09349643302940086	0.9923971890357608	-0.08003896678930417
153														9.385385689970745	-2.79205857208373	-0.6793439875182404	0.306703560342235	0.04752897323861688	0.950617653305618	0.9471647311810514	-0.113742653447305	-0.2999026188506752	0.09387171075528633	0.9923727150066397	-0.07990304393592737
154														9.354999295151183	-2.721787625692617	-0.6666966048667446	0.30666328115255936	0.04726826466339362	0.9506436467722579	0.947140733915758	-0.11404765267981382	-0.29986257364956925	0.09424469295543997	0.992350162026457	-0.07974392626275015
155														9.335401567314008	-2.7168581418396722	-0.6927883256712202	0.3065509867077259	0.04700469554110531	0.9506929321003746	0.947125286487789	-0.11449858740278551	-0.2997394955260154	0.0947638340504603	0.9923107537862595	-0.0796189906756054
156														9.34499145696772	-2.746914695196704	-0.6806059227818553	0.3063639862049481	0.04666968179882175	0.95076971384106	0.9471262772965701	-0.11499787399705905	-0.2995451615875262	0.09535681837684762	0.9922688293889681	-0.07943328906756689
157														9.325790208976395	-2.740783769073318	-0.7063537302897789	0.30618681099243716	0.0463001726642438	0.9508448510590695	0.9471070631476379	-0.115658974707961	-0.29935131953168415	0.09611372279824959	0.9922093002893924	-0.07926447318374599
158														9.30267473175187	-2.8066533455332	-0.7190592108450216	0.306033227498382	0.04600557787867149	0.9509085920691707	0.9470848251428521	-0.11629213165319369	-0.29917632610166367	0.0968194074091362	0.992148994314667	-0.07916044106331105
159														9.292400539443342	-2.7857928626901893	-0.7078864665473013	0.3059172313601398	0.04582282773625723	0.9509547392043431	0.9470354556397053	-0.11711056408271645	-0.29901331331819325	0.09766521037832604	0.9920611796852458	-0.07922198207111486
160														9.327071222426728	-2.87582537606928	-0.7893992736883501	0.3058525574190613	0.045720473861548094	0.9509804684587881	0.9469769109400672	-0.11787642489166858	-0.29889777282737967	0.09843242995389695	0.9919751946115565	-0.07934903911665764
161														9.325418827062544	-2.933936236574066	-0.7973976858079216	0.3057898566299392	0.04551798801282292	0.9510103450275957	0.9469140033035234	-0.11864193635488454	-0.29879417880149456	0.0992291989786131	0.9918932420907147	-0.0793811209598024
162														9.336394210861913	-2.952563808414883	-0.8083124910719038	0.3058562926894526	0.04536258122786424	0.9509964061165587	0.9468140335426576	-0.11938075035579745	-0.2988167035678748	0.09997556756002102	0.9918117123067429	-0.07946328222656984
163														9.34899465673996	-2.9594142844869813	-0.8397919715619676	0.30595474151056445	0.04518249843068256	0.9509733108677481	0.9467294233720442	-0.11985527214959849	-0.29889481872321516	0.10047435030315782	0.9917627012413344	-0.07944588949499706
164														9.307287215191542	-2.8711776939804317	-0.8173422609495683	0.30608251547000676	0.04500070934040623	0.9509408130280312	0.9466469842668056	-0.12021455961901187	-0.29901161655388747	0.10086119621596334	0.9917274806187772	-0.07939536059126895
165														9.326856868127042	-2.876594974146364	-0.7891277766141223	0.30624845210028584	0.04488847441939414	0.9508926913434966	0.946545238032956	-0.12066542581539402	-0.29915208067122695	0.1013113909849902	0.9916778105196713	-0.07944257158222798
166														9.324399075332218	-2.9372864935572767	-0.7969888735800779	0.3064195430876967	0.04482426138943091	0.950840601365349	0.9464563646867348	-0.12098760023666566	-0.29930310779031766	0.1016238818285195	0.9916414604986341	-0.07949717266820477
167														9.412954982340805	-2.8927455785130554	-0.7890266400495394	0.3066254647719887	0.04467450914331794	0.9507812643222238	0.9463604923387607	-0.12124281857876254	-0.29950291732037654	0.10189525452002629	0.9916170466343757	-0.07945432606484182
168														9.314449792519536	-2.908928575293191	-0.806381260380991	0.3067965158572693	0.04457468246634011	0.9507307692195863	0.9462740401703212	-0.12152772104286608	-0.29966056450234774	0.10218286919821096	0.9915866632327974	-0.0794641462627583
169														9.246895100750923	-2.90139421261131	-0.7786096728370773	0.30690822248237193	0.04456400335254995	0.9506952153965569	0.9462151167326702	-0.12175418313227682	-0.29975468596232535	0.10239285052820407	0.9915593620631026	-0.0795344935592284
170														9.33567401236849	-2.856034727113256	-0.7714338484588273	0.3070378350995563	0.044625181085115095	0.9506504936255488	0.9461626566150672	-0.12188560650751454	-0.29986684737298813	0.10248899962677582	0.9915404641967049	-0.07964617263928453
171														9.335197441440297	-2.9036292791631033	-0.8002622902797385	0.3071841561589697	0.044527804165355234	0.9506077891860101	0.9460806166277138	-0.12220140937195159	-0.29999713730106486	0.1028073978185764	0.9915059708361422	-0.07966522924119707
172														9.304116805802305	-2.8815263315977826	-0.8170199482369196	0.3073368802562272	0.04433338586471952	0.9505675109807511	0.9459836523739911	-0.12260924110236882	-0.30013647468687704	0.10324229499354753	0.991464333646991	-0.07962099993339836
173														9.263833184838507	-2.920696812853311	-0.9011795365992787	0.30749864466964316	0.044261942197936444	0.9505185237538503	0.9458859256492929	-0.12303364784330928	-0.30027077306482675	0.10365519371894832	0.9914149494390504	-0.07969942812751041
174														9.311904322682139	-3.0089504453977685	-0.8643449158237517	0.3076600275468136	0.0442209437398004	0.9504682086133424	0.9457995443840024	-0.12335864305801172	-0.30040949889426033	0.10396407693481635	0.9913763933631103	-0.07977667196269916
175														9.287741600118625	-3.03140376810955	-0.8506009641995363	0.30782790916495273	0.044113283228208344	0.9504188532336477	0.945731206962849	-0.12347002916868252	-0.3005788350394585	0.10408872424872367	0.991367323518338	-0.07972682951403878
176														9.313140436675772	-2.998828570018321	-0.8835764482125896	0.3079053551002144	0.04395118526934971	0.9504012761008013	0.945709472264926	-0.1233924391178855	-0.3006790648464496	0.10405713031314756	0.9913841834939469	-0.07955824500976877
177														9.355356394141408	-2.9932032418102805	-1.0166735894620014	0.3079185386050876	0.043672688219631994	0.9504098431134742	0.945717700742932	-0.12318611955980618	-0.30073777689093184	0.10394327339857012	0.9914221483563239	-0.07923332419962037
178														9.392367542731657	-2.932198984020835	-1.029295637525248	0.30780888243963145	0.04339379517723685	0.9504581371272391	0.9457843882243953	-0.12279230451335713	-0.300689110117586	0.10366090334485795	0.9914832467028454	-0.078837736048881
179														9.478040359783927	-3.0039070509335866	-1.0323343688139814	0.3076093098627074	0.04305586339387202	0.950538113445851	0.9458794234419927	-0.1223797570993673	-0.3005583327098816	0.10338582492214748	0.9915489840041736	-0.07837080786529496
180														9.644210750149934	-3.0435193489536014	-1.0647512202207554	0.30735519766795516	0.042622887900402306	0.9506398223793919	0.9460110017491252	-0.12175023576686211	-0.30039984131209146	0.10293671374251501	0.9916451832776394	-0.0777422886603443
181														9.76544218208194	-3.0189530476001876	-1.031222003850852	0.3070123085838409	0.041868753430324646	0.9507841236917092	0.9461590996464644	-0.12112803703980354	-0.30018487103629304	0.10259824820245411	0.991753500689095	-0.07680230033477489
182														9.789016178609106	-2.9620010795768534	-0.9845299702928639	0.3066987462558227	0.040858938770914455	0.9509292435126928	0.94628485123767	-0.12055009608274139	-0.30002109034623503	0.10237606831290386	0.9918660299944533	-0.07563675812615953
183														9.743107192302823	-2.9094928756864604	-0.8883067543105754	0.3064701159488753	0.03974392438945784	0.9510502029358956	0.9463529175178613	-0.1202376285792193	-0.29993177254015274	0.10243155537096543	0.9919492593614712	-0.07446101877166386
184														9.705606728049874	-2.936164752972913	-0.8107928041592838	0.30632274506047547	0.038656672207055987	0.9511424906671404	0.9463758414315089	-0.12012256612249844	-0.2999055449019737	0.10266032638472722	0.9920061646996063	-0.07338001488524687
185														9.636926153177459	-2.9406825138062636	-0.7513601931132458	0.3063710508867446	0.037458021264825725	0.9511748923418214	0.9462996203272493	-0.12033224625811284	-0.3000619587334929	0.1032172841488056	0.992026737116193	-0.07231282804277522
186														9.537154842929358	-2.969946398010787	-0.7382869994248658	0.30652729939942636	0.036268664811888396	0.9511706464539675	0.9461796079464625	-0.12063431048990028	-0.3003190181105848	0.10385164528871887	0.9920342469317227	-0.0712943804618352
187														9.421863762937175	-3.006314061527329	-0.6739356199273769	0.3067848982264854	0.03505908469228608	0.9511329490669034	0.9460025422615703	-0.12116246011516729	-0.300664012301916	0.10470060293432476	0.9920133662604451	-0.07033679624356848
188														9.253992279041482	-3.0281291668976014	-0.6347865498242549	0.30706857152537365	0.033810011987082944	0.951086628794034	0.9458271111658236	-0.12157642876739666	-0.301048580385093	0.10545125966568697	0.9920060761192948	-0.06931072627898532
189														9.099231589790294	-3.1031732925311397	-0.6548371747356277	0.30736411122954993	0.03242997163759059	0.9510392210985068	0.9456464123506976	-0.1219555896753946	-0.30146259627884453	0.10620812556637899	0.9920056104108043	-0.06815205776177574
190														9.059747605731225	-3.0983152702203305	-0.6994878538976015	0.3076198727888404	0.03105358134903924	0.9510024652706097	0.945502621750504	-0.12210283528985813	-0.30185375577769785	0.1067464572166304	0.9920315381577227	-0.06692250123928198
191														9.063733288737952	-3.1589384225689985	-0.6353647756824504	0.307799399278197	0.029685820963447573	0.9509880555704723	0.9454137080458949	-0.12196453968866056	-0.30218797411122317	0.10701612235029423	0.9920904208247652	-0.06560599412285098
192														9.172307543195272	-3.1198209896027023	-0.584163750944641	0.3078020745165234	0.028307863386670018	0.9510292044904854	0.9454345470188857	-0.12132528437784865	-0.30238004675214225	0.10682415563213288	0.9922090708319065	-0.06410740622085787
193														9.318410024922823	-3.065471521818024	-0.5752045629056495	0.3077742010757405	0.026764318974464574	0.9510829156188343	0.945476545764036	-0.12052617667550691	-0.3025682437832682	0.10653235453277293	0.9923492892957688	-0.06239988358872128
194														9.436754307329407	-2.9748302234795134	-0.6024103068769397	0.30768600859716777	0.025028360327075505	0.9511587150906424	0.9455381069831379	-0.11966130800346655	-0.3027191100833308	0.10624033300158553	0.9924992456149464	-0.060483378687657824
195														9.40486435260694	-2.9655628073271023	-0.579434616231104	0.3075980826768281	0.023123545270667012	0.9512353658204971	0.945595523459245	-0.11877967701623382	-0.3028869332634804	0.10598360980536609	0.9926513436156902	-0.05840192180561632
196														9.377885308801524	-2.9308092015748337	-0.5976462997237042	0.30745558915019133	0.021241418327806405	0.951325319145734	0.9456537761591917	-0.11805965018988998	-0.302986558502028	0.1058772701582868	0.9927792912548412	-0.056385126756665266
197														9.395803408452508	-2.9957861310501235	-0.5571545818639383	0.3074224192565367	0.01948451981632693	0.9513736435417925	0.9456844787555262	-0.11731095890411661	-0.30318147298587667	0.10569920898165436	0.9929040700936442	-0.05449022675791257
198														9.398218126694411	-2.9386919710420836	-0.5310329051953482	0.30745070272160896	0.017738011973443046	0.9513986695004457	0.9456760733968426	-0.11674842580151618	-0.3034247341229732	0.10569214540692196	0.9930031057373876	-0.0526687990672296
199														9.392699706136108	-2.9445108577491226	-0.5723779776126134	0.30767924929004997	0.015912487642129103	0.9513570687672168	0.9455729095728294	-0.1164493841430981	-0.30386084580720074	0.10594976280429141	0.9930691484834944	-0.050875476331746744
200														9.274677102478948	-2.889014591881725	-0.4462531292892884	0.30810302870976725	0.014128789822131393	0.951248075424088	0.9454198038750872	-0.11604395105496493	-0.30449170081357785	0.10608448586226404	0.9931435841416465	-0.04911113048611446
201														9.226744482984508	-2.8789928050328677	-0.39587289020950306	0.30880233088721987	0.012477005496802529	0.9510443968461476	0.9451974614990222	-0.11549700501686377	-0.3053886058908209	0.10603244415943902	0.9932294629973315	-0.04745897828238754
202														9.202436764074667	-2.849542878582599	-0.36008159449128485	0.3096204745746313	0.010985979815485325	0.9507967553434721	0.9449386838268342	-0.11497616723549939	-0.3063843415963767	0.10595303455678262	0.9933074998283908	-0.045980052771620344
203														9.126844015358795	-2.8523020562172885	-0.3803552309353734	0.31049270817742625	0.00963539656624679	0.9505269261318477	0.9446592064500616	-0.11452043468000997	-0.30741511626763224	0.10589269019997538	0.993374163733743	-0.04465992597955468
204														9.14257696746668	-2.8196620746238685	-0.3108242057570896	0.31140211451462535	0.008414124994335193	0.9502409828966547	0.9444092032240707	-0.1137047778152473	-0.30848416550555996	0.10545131550386927	0.9934789509609983	-0.043354285323811526
205														9.05198480167086	-2.722380926530027	-0.24532298695245552	0.31233926852934085	0.0072069791922004245	0.94994328293087	0.9441619272343613	-0.1127684764113421	-0.3095828255717051	0.10489249971114484	0.9935951540636596	-0.04202657879913266
206														9.054115609959455	-2.730007624480256	-0.1734524216977703	0.31328909554433665	0.006122828511521017	0.9496380645193356	0.9439228602045332	-0.11173894151540523	-0.3106831873988519	0.10420929227427272	0.9937187328012064	-0.040786069725579605
207														9.108233392623225	-2.614950378689544	-0.22267359023074876	0.31428743133983106	0.005222756671504791	0.9493135063373748	0.9436880723177794	-0.11055820779154885	-0.311816780906791	0.10332585672020317	0.9938559279405997	-0.03967570831585837
208														9.126243126983157	-2.5232924973224575	-0.14923163894592786	0.31524424148645924	0.004438096585450302	0.9490001957367153	0.9434557267210277	-0.10950307305866791	-0.31289034614063205	0.1025298001896206	0.9939765491647201	-0.03870736084610027
209														9.169287949019429	-2.457829815043037	-0.11753469997040089	0.31623040180579315	0.0035985259833555827	0.9486755944918651	0.9431797655629937	-0.10874168430766737	-0.3139859486130995	0.10203069541213028	0.9940635274994646	-0.037781483415006006
210														9.120505405557157	-2.496647628977703	-0.10475222661069794	0.31718774393472227	0.0029617316961011997	0.9483581408112449	0.9429025474217303	-0.10813794099087054	-0.31502535101776497	0.10162047610207342	0.9941314872106279	-0.037092653897673855
211														9.163984093589297	-2.478117584190537	-0.10443803511670302	0.318233482219595	0.0025548415834684146	0.9480089258962037	0.9425918407167101	-0.10763655375286701	-0.31612496597151246	0.10123276450178792	0.9941870272140394	-0.03666172814579255
212														9.265096340330375	-2.544847011150889	-0.17720672692206932	0.31930049295352725	0.0023938883092840535	0.9476504970179659	0.9422569007123527	-0.10737091767913925	-0.31721194664875346	0.10099073353326371	0.9942161512143637	-0.036539244722779196
213														9.278277098938315	-2.66585261763073	-0.18233539563547488	0.32036419792880205	0.0023700238045285538	0.9472914882297856	0.9419213881445525	-0.10715382154022238	-0.3182799979344698	0.1007515719047361	0.9942396298259756	-0.03656062420463643
214														9.378083007518413	-2.8008855618065156	-0.18489684107440152	0.32132644046519954	0.0024833144783151795	0.9469652326285094	0.9416181151181464	-0.10698873271925433	-0.3192314776967928	0.10052185801761965	0.9942571318428299	-0.03671664255287735
215														9.350901705869164	-2.9242913880845576	-0.2291561816144501	0.32222556344945513	0.0027310233646862248	0.9466589817727731	0.941339961763896	-0.10682064589451501	-0.3201068977654596	0.10024850445781675	0.994274555201963	-0.03699116424108484
216														9.359215703269728	-2.9988668014630573	-0.2697000349385925	0.32298393820656646	0.003108311141722331	0.9463993417487266	0.9411108025365726	-0.10667419952885518	-0.3208287276785642	0.09995915670685296	0.9942891699886529	-0.03737931826198235
217														9.297747070145764	-3.0529143849412317	-0.3664706136671336	0.3237729003822697	0.003573320902141186	0.9461280781986039	0.9408850496914423	-0.10641282201711158	-0.32157679421482965	0.0995310617103285	0.9943156152289298	-0.037815672236917036
218														9.219297487570232	-3.0179452324865848	-0.35684600103949526	0.32458064210180426	0.004186660777633855	0.9458487609783679	0.9406740852364326	-0.10598072285909393	-0.3223357748480066	0.09889222485808152	0.9943593707778878	-0.038337574373214
219														9.191743362283152	-3.0462846991703962	-0.34906343405697426	0.3255107462830856	0.004854432865077474	0.9455258793580359	0.9404096537454428	-0.10567403576874207	-0.323206870760389	0.09834854953991429	0.9943889745194809	-0.0389631897756067
220														9.180543604858208	-3.1171409628669906	-0.4221261275992359	0.32645652407561465	0.005720049509917169	0.9451949105460055	0.9401352940497261	-0.10546936517539177	-0.32407073593821223	0.09783540652801659	0.9944061011694887	-0.03980878277960506
221														9.225486583056336	-3.1536720201507986	-0.3827443899934617	0.32740910628015296	0.006683211906492015	0.9448590433516761	0.9398752296515104	-0.10511634298800862	-0.324938620549094	0.09714849361854366	0.9944374737083475	-0.04069743323856581
222														9.294834303535065	-3.2172323049427582	-0.38419102116676207	0.3283586288683946	0.007677393913357311	0.9445219258812192	0.9396360601639541	-0.10455512562071334	-0.3258102210582092	0.09625323520396711	0.994489458631481	-0.04154553385905391
223														9.324194304806625	-3.1908186269483028	-0.36659653403400005	0.3293941173593152	0.008680392061004405	0.9441526180881696	0.939384032144398	-0.10380274592563016	-0.3267761161566609	0.09516908952601266	0.994560023694883	-0.04234623556850675
224														9.263765454427299	-3.1621443497778583	-0.3317118033082686	0.3305506788092011	0.009763534055746315	0.9437377401277955	0.9390865616864845	-0.10308975982514207	-0.32785504583436087	0.09408867306234475	0.9946241374619543	-0.0432451937147979
225														9.23596921983081	-3.0992194189981856	-0.272245244176024	0.33188138961164165	0.010823986344308978	0.9432590230414253	0.9387098328992263	-0.10253936798444582	-0.32910412885841656	0.0931589654716743	0.9946700555123636	-0.04419149034914718
226														9.244993887733509	-3.119238276065143	-0.3123496956902849	0.33331230324332833	0.011833682305359028	0.9427422089148888	0.9382699998294242	-0.10224337553775817	-0.3304477259397283	0.09247873229408154	0.9946890248322544	-0.045182164086493365
227														9.35580491192962	-3.198478673797414	-0.4289601798923798	0.33481126904114733	0.012732543950315645	0.9421991808782317	0.9377733347041655	-0.10223564760775264	-0.33185696478460985	0.0921009600432417	0.9946787193273905	-0.046169887116350034
228														9.427328932783087	-3.31236646751626	-0.39948738158627106	0.33637789653390526	0.0133845477168687	0.9416319687679682	0.9372090270554942	-0.10258592501959773	-0.33333971799587087	0.09213658518264373	0.9946340944640335	-0.047051756615381524
229														9.363695179625134	-3.382397176155389	-0.4188169640798212	0.3379199770531689	0.01383846363567004	0.9410731034476487	0.936637693649838	-0.10300656143218617	-0.3348126030128323	0.09230341241090123	0.9945844082963098	-0.047769601538861395
230														9.30526936945431	-3.3448102732498737	-0.40299543074583083	0.3392857240561007	0.014258129778615736	0.9405753043679934	0.9361327220897792	-0.10334997148244626	-0.33611651257764424	0.09241603802645754	0.9945428543455499	-0.04841267174716404
231														9.218698456228266	-3.3845949243591336	-0.37959540693230737	0.3404807319384462	0.014624959265975401	0.9401377461548535	0.9356783644364292	-0.10376615229961267	-0.33725151439615775	0.09262218688968682	0.9944941911360777	-0.04901463345134566
232														9.219179819617594	-3.418347549263755	-0.4545360647613195	0.3416244394954999	0.01501544662883425	0.939716594884821	0.9352520848131359	-0.10407013268951754	-0.3383385070231729	0.09271612692551895	0.9944566073210653	-0.04959612851229639
233														9.227772304342855	-3.3546073415354134	-0.41430717712122916	0.3427845047689317	0.015343195309033664	0.9392887573307939	0.9348352988563822	-0.10417040009504372	-0.3394576435376542	0.09263772073198273	0.9944411064018559	-0.050051359580293414
234														9.258780027044308	-3.365625280996142	-0.4415134651186536	0.3439547313473526	0.015620270744419684	0.9388562988688114	0.934419195697004	-0.10418884875176507	-0.34059572884689415	0.09249815942350303	0.9944348600776494	-0.0504321283073734
235														9.204827669508344	-3.312848482859386	-0.44260002560456113	0.34508033255961407	0.01570781451092773	0.9384417023149795	0.9340096287622812	-0.10422570459312061	-0.3417060372329019	0.09244229259322767	0.9944296189602146	-0.05063749080227256
236														9.10739362451162	-3.2746129266620616	-0.4565354429397384	0.3461124569250135	0.01543384163969036	0.9380660764005766	0.9335994013666402	-0.10448840658657627	-0.3427452853896756	0.092727153138563	0.9944063401956165	-0.0505737644394621
237														9.008970505350845	-3.2823435069650433	-0.4968279348484246	0.3470276206920252	0.015080864138235617	0.9377336498247663	0.9331958618090735	-0.10509297552502433	-0.34365818773560214	0.093366557070793	0.9943480447168094	-0.05054356525420073
238														9.051417732656082	-3.3105512140164066	-0.5292581322164772	0.3478606919394708	0.014623849952871693	0.937432174621689	0.9328108986056716	-0.1057657866284121	-0.3444959010225712	0.09411039499371243	0.9942835316907495	-0.05043304633569465
239														9.01917725027698	-3.3152021329311423	-0.44397465390335267	0.3486195102683502	0.013943105110282572	0.9371606195739021	0.9324440270491563	-0.10643732487975271	-0.3452813813294812	0.09493457473759725	0.9942216481712345	-0.05010729315245416
240														9.005080996900274	-3.3492990458934204	-0.45786746746168794	0.3492287777044612	0.013267017262895975	0.9369435666442214	0.9321427232464838	-0.10698708232364654	-0.34592442485968333	0.09565147318090556	0.9941718918118836	-0.049729721590847625
241														9.05322031598143	-3.2341082773724956	-0.40453039149520253	0.3498256002781891	0.012655063239232212	0.936729362603957	0.9318590437754379	-0.10741478986295033	-0.3465556022525455	0.09623290458014333	0.9941337497002649	-0.04936917847159078
242														9.094389669070042	-3.1686482133627725	-0.4382689623158133	0.3503726330337982	0.012032670742665175	0.936533092237408	0.93158656192407	-0.10790407534028454	-0.3471356912900902	0.09687876786713384	0.9940884897028817	-0.049016109359976606
243														9.136661075141632	-3.1591342041169157	-0.41884147450939707	0.35086711419768013	0.011327507710293616	0.9363567459807536	0.9313271498964397	-0.10841917007470456	-0.3476708550138865	0.09758077700227002	0.9940407291099222	-0.04859033679907679
244														9.118827438048077	-3.1682879118956215	-0.3624049462714117	0.35122340614018366	0.01059328309305152	0.9362317562081512	0.9311052547544204	-0.10905439745620851	-0.3480662910483724	0.09841302529642393	0.9939793361779584	-0.04816591848217641
245														9.114464486606325	-3.266047180090736	-0.41323837557071974	0.3515509633885268	0.009896560271285937	0.9361164341231256	0.9309054744234927	-0.10957945135199432	-0.34843556295213124	0.09913081170338217	0.9939287710576616	-0.04773552382488189
246														9.141905813117964	-3.1556574325486677	-0.36646674417941555	0.35180673209557967	0.009269221404735462	0.9360267649948797	0.9307478006890502	-0.1099699536535006	-0.3487336244269314	0.09970233078883384	0.9938916896865562	-0.04731547746009779
247														9.169542275332157	-3.126430338450908	-0.3961714309958168	0.3520111408777298	0.008652085961515066	0.9359558205954351	0.9306020646975666	-0.1104310362048522	-0.3489767663088037	0.10033919412964132	0.9938461287599998	-0.04692460410250662
248														9.163759249228306	-3.0492054689685126	-0.37531185961512836	0.3521182751028884	0.008022032885047603	0.9359211330699604	0.9304623634652776	-0.11117952403522563	-0.349111591915696	0.10125468143832811	0.9937679610571539	-0.046612541908061356
249														9.050090107509467	-3.0426531153921683	-0.4426722318414782	0.35216980071186643	0.007417111889214678	0.9359067356942076	0.9303056797746642	-0.11229460993710022	-0.3491722537059249	0.10250743214793967	0.9936472749574154	-0.04644695172062602
250														9.057129306008619	-3.074594593719163	-0.43061861389542727	0.35211495965243234	0.006972865263067396	0.9359307850151036	0.930170609108757	-0.11362612198419514	-0.34910133536421184	0.1039119489722381	0.9934991109975162	-0.046495411686907906
251														9.040950616100137	-3.159660124958382	-0.45584206321739085	0.3519725560413829	0.006589042887964969	0.9359871282808945	0.9300510674959452	-0.11512134519057884	-0.3489299180797827	0.10545298309364165	0.9933295829659619	-0.046647700493378824
252														9.00518567098571	-3.2608330790436093	-0.4097178546865466	0.3517069256028432	0.0063256326294123255	0.936088791116972	0.9299805140441395	-0.11660870966431533	-0.34862394112943784	0.10695083908597613	0.9931577896800998	-0.04689480585890618
253														8.97589087010702	-3.2794484696482082	-0.45877649058880754	0.3513586565679057	0.006239893436272459	0.9362201440818825	0.9299558330102815	-0.11800055169863838	-0.3482212205609689	0.10830163020449163	0.9929939242154109	-0.047263340617529404
254														9.071820291375165	-3.3019563323310184	-0.549693557523068	0.35091729331527644	0.00630502567196739	0.9363852305026799	0.9299828730485813	-0.11927380350700167	-0.3477148481633766	0.10949387694564067	0.9928413803061643	-0.04771880617915647
255														9.01940300161417	-3.291620111599483	-0.5595348441660898	0.35043781187047773	0.006481134294783364	0.9365635776121584	0.9300340798314624	-0.12048205274368187	-0.3471608925537475	0.11058910598914168	0.992694348661723	-0.04824914270327227
256														9.018005817454446	-3.2981543796325674	-0.5438923409102276	0.3498836865352296	0.0068089188374507725	0.9367684049543852	0.9301352631860953	-0.12153318744002356	-0.34652283695075925	0.11148900427509217	0.9925640145476432	-0.0488556951727776
257														9.037226287022461	-3.3435942375807333	-0.549586231429838	0.34933055068736785	0.007244025903215268	0.9369715526338963	0.9302396701367074	-0.12258069347724784	-0.3458729964749884	0.11234910974462908	0.9924321123761317	-0.04955986142271521
258														9.032291116038484	-3.3046298701924877	-0.5667881398900632	0.3487007176098582	0.00777738182926474	0.937201857590056	0.9303848701303672	-0.12354342973534488	-0.34513912325572105	0.11310085309523438	0.9923086885143704	-0.05031564098787261
259														9.03129939542498	-3.30988401713443	-0.5533519012982477	0.3480734641917188	0.008368611488949518	0.9374299066422633	0.9305255319508361	-0.12454829722933491	-0.34439796173160786	0.11387316590483038	0.9921782541454028	-0.05113916393323914
260														9.058561983500832	-3.2826910858613427	-0.5741570344293598	0.3474642376882277	0.00897485186249164	0.9376502842540955	0.9306427313188639	-0.12569373298940664	-0.3436643597036995	0.11477242774771668	0.9920284963251988	-0.052026457765843165
261														9.070758983944149	-3.295439936440737	-0.5932109780980478	0.3469616731417906	0.00963610537431886	0.9378298048387379	0.9307083729284902	-0.1269544911652807	-0.3430225673826259	0.11575630406786802	0.9918617356497732	-0.05301674662187025
262														9.086632816901682	-3.353666247068152	-0.5825154586359895	0.3465429533263045	0.010399358942882408	0.9379764575049101	0.9307339617806356	-0.12832022278725475	-0.34244446675622076	0.11680014506842812	0.9916782612104629	-0.054147505525072415
263														9.181372724637221	-3.3974900977216542	-0.5809690335887201	0.3462438657457466	0.011245372039062118	0.938077143438185	0.9307038840987172	-0.12980486480655817	-0.3419663392734926	0.11792143807214928	0.9914757882471235	-0.055410249618116914
264														9.238226956346173	-3.4313094294681843	-0.6370365212893584	0.34596505103631436	0.012032216605691759	0.938170245331301	0.9306583996199784	-0.13132164918206368	-0.3415107138478714	0.11909293294826578	0.9912667906369383	-0.05663058451157965
265														9.328466719295745	-3.431054945010752	-0.6671925274510369	0.34574659717186684	0.01279763940199019	0.9382406466199438	0.9305714763538785	-0.13297736611631994	-0.34110665120652195	0.12039941005103155	0.9910364476276852	-0.057885590027749734
266														9.335115441073246	-3.505153843235607	-0.6979830638963899	0.3454929403461554	0.01352027876379619	0.9383239473833742	0.9304898914095758	-0.13466186393740498	-0.3406680853638916	0.12175052425170013	0.9907993664022262	-0.05910520604297986
267														9.337298715730396	-3.742061302401961	-0.7153150697112776	0.3452395066855435	0.014356399325064106	0.9384048043472188	0.9304172455319522	-0.1362975634708715	-0.3402157012964557	0.12301801591741707	0.9905639141369542	-0.06041274509090813
268														9.332691546882666	-3.9458908193947804	-0.743615388859074	0.3448237810813404	0.015328863418996364	0.9385422664680854	0.9304544147056293	-0.13755959444286625	-0.339605565519059	0.1238997262126656	0.9903748704016053	-0.06169662812042964
269														9.39228989801536	-4.090423230575829	-0.9273231898824486	0.3442765839100468	0.016198304609765735	0.9387285276899806	0.9306389342298862	-0.1379798088451518	-0.3389288220947253	0.12403551050683476	0.9903025736000213	-0.06257799017613355
270														9.469485278783484	-3.9183245257429866	-0.9938879791966474	0.3435404859130532	0.01698212741132732	0.9389843139729275	0.9310206454779879	-0.13733086737323186	-0.3381431509882566	0.12320914021441093	0.9903796444874569	-0.06298942413234454
271														9.500171149988255	-3.797117007790813	-0.9517197349436931	0.3426561836917946	0.017626752057927797	0.939295500569264	0.931435757723047	-0.13677958563074025	-0.337222143682139	0.12253231823755467	0.9904446691090685	-0.0632865579784467
272														9.403674526690459	-3.9944135796717926	-1.0086867521020952	0.3416323433933223	0.018071231952305145	0.9396599238678393	0.9319175805367532	-0.13600722364845017	-0.33620181171725555	0.12172495649665105	0.9905430155683128	-0.06330536529175038
273														9.255748629733423	-3.704834489363792	-0.7675549726976212	0.34055574291144763	0.01869483793146748	0.9400384508118532	0.9325730859093169	-0.13400621410365393	-0.3351861781445955	0.11970474262787911	0.9908041368587046	-0.0630708884991435
274														9.213365589454497	-3.4921155433543025	-0.6757742654047508	0.3394642182010026	0.01936390745169897	0.9404196316801259	0.9331561003349911	-0.13262436375512315	-0.33411146425428195	0.11825285184203244	0.9909772031821673	-0.06309077432141336
275														9.170105112878646	-3.4867933078119964	-0.7703903772824962	0.33861248264639565	0.019933851134240343	0.940714743253768	0.9336560015873436	-0.13115885827591048	-0.3332924010470299	0.11673927058183542	0.9911609331862903	-0.06302338636810498
276														9.091970521421512	-3.2314739165515394	-0.6269566236130175	0.3379196895085313	0.020359262726195648	0.9409547193482287	0.9341057002437281	-0.1295608883053936	-0.3326567555209003	0.11513828301061502	0.9913624345529557	-0.06279887851390717
277														9.090264302194278	-3.1350962852357585	-0.6267121657836464	0.33745921064768586	0.0205535216162267	0.9411157388431097	0.9344010351673063	-0.12848201048550345	-0.332245509314828	0.11408762696851626	0.9914988279018662	-0.06256266971540148
278														9.10304358352498	-3.1049853698098238	-0.6050180407263424	0.3371829516369531	0.020436985849441036	0.9412172898617948	0.9346039398163948	-0.1275213170960977	-0.33204486047181797	0.11323927236195352	0.9916252534579109	-0.0620985015879536
279														9.065959012158798	-3.117002327797118	-0.5551804396623587	0.3370196617084675	0.020039079188732656	0.9412843262942279	0.9347329141990068	-0.1267542858633988	-0.33197549627689754	0.11265933931522376	0.9917317108575929	-0.06144987342972982
280														9.112138887181954	-3.1350362824839193	-0.582658190609337	0.3368972275312146	0.019578604145955858	0.9413378438910641	0.9348231411431736	-0.126176997672333	-0.3319413503039456	0.11227623464024672	0.9918145207235536	-0.06081121292094274
281														9.211710256566995	-3.076824076397816	-0.5276998032957998	0.336775708748332	0.019110119382821866	0.94139095243912	0.9349062244858497	-0.12565584464756055	-0.3319050468485265	0.11194853020327261	0.9918898184995564	-0.06018400570122037
282														9.323622463146423	-2.9449663805905395	-0.42580493114563256	0.33667522436468145	0.018528948830305203	0.9414385117224783	0.934978010523766	-0.12512835366829428	-0.3319021165122065	0.11165085371823824	0.9919675262645979	-0.05945177626011161
283														9.317302737403466	-2.8664649299438714	-0.3998402505230683	0.33664048870433094	0.017721526524950626	0.9414664778219854	0.9349836757309802	-0.12490213644952614	-0.33197135784119897	0.11170813525206974	0.9920107881510007	-0.058616454264445894
284														9.33548045887197	-2.8956785076930847	-0.4931068730941204	0.3366887162084102	0.0168996183041627	0.9414643441358286	0.9348967776261725	-0.12523129795259602	-0.3320920613283409	0.11228857271392778	0.9919836313741681	-0.057963363632446474
285														9.318145631854414	-2.949589218521022	-0.46307020765083257	0.33685077139808983	0.016036186219857584	0.9414214776283971	0.9347370774546903	-0.12582887071128435	-0.33231565013852105	0.11312892574393546	0.9919223437482622	-0.057375170003915454
286														9.294873560184081	-3.006242334672017	-0.49337931423717524	0.337075748196889	0.015181417274709563	0.9413551213793008	0.9345240301669122	-0.1266927493734513	-0.3325865064863392	0.11421373392941553	0.9918258273637195	-0.056892452541384225
287														9.278041978062037	-3.141794304105324	-0.5435579996712916	0.33734669368230386	0.014531866330978638	0.9412683109095707	0.9342919412756707	-0.12764120429894668	-0.3328757897962136	0.11530731429079549	0.9917139445556127	-0.056636343852605714
288														9.301081121112272	-3.1709919325899936	-0.5825261782815382	0.33765596596259473	0.014043998418074966	0.9411648180623307	0.9340734241078161	-0.12840324695829708	-0.3331958051147496	0.11616921720217738	0.9916225956879963	-0.05647424807497348
289														9.304652693897603	-3.2189911633251778	-0.5493135244338536	0.3380043450027176	0.013554542763989208	0.9410469367304392	0.9338591580178053	-0.12900302131193295	-0.3335645267091042	0.11687658339273777	0.9915515593567751	-0.05626161561480683
290														9.285508205082474	-3.1713103367985274	-0.546754174188255	0.3384157055228767	0.013124015195544014	0.9409051867646396	0.9336454508783625	-0.12942413636772757	-0.33399934877123316	0.11739242867235339	0.9915024725892596	-0.05605233750515168
291														9.292524487473251	-3.161318761785467	-0.5062628932236393	0.3388855508748214	0.012913812584696038	0.9407389738140948	0.9334386371038417	-0.12968600407514327	-0.3344754865587977	0.11768132464410552	0.9914710151040973	-0.05600296455063239
292														9.31286232371686	-3.1583060023640344	-0.49801565941928067	0.3393537081068858	0.012800941495455465	0.9405717392580626	0.9332408466887183	-0.12990852772283495	-0.3349407357975592	0.1179007331013317	0.991443347005625	-0.05603130207708179
293														9.299472914057274	-3.08583411231256	-0.5395562307073603	0.33981477297381557	0.012765074876672222	0.9404057490956482	0.9330428397362883	-0.13017881080850194	-0.3353871441086066	0.1181396600875303	0.9914083568741375	-0.05614704475326901
294														9.27525733138794	-3.1437173819809527	-0.576756206714323	0.3401890543187681	0.012721404075346554	0.9402710105071059	0.9328683733912742	-0.13050602230282515	-0.33574510580053546	0.11843988031073166	0.9913658981531726	-0.056264115837123874
295														9.22544019208437	-3.140665418331691	-0.5233631155767751	0.34049015709163366	0.012721919123801939	0.9401620103458352	0.9327220591505221	-0.13083013207479843	-0.3360253515961275	0.11872663263870059	0.9913231709765986	-0.05641238682396621
296														9.135388825430233	-3.2433942445798025	-0.4835108844763155	0.3407567568842559	0.01284110522126064	0.9400637949918196	0.9326295563326117	-0.13084916963704898	-0.33627459829748063	0.11868842948055747	0.9913191215859767	-0.05656373295184333
297														9.173968901115654	-3.1855313408249337	-0.5004738058351057	0.3409644903937017	0.013112528001284485	0.9399847221630676	0.9325750051061101	-0.13078095846720933	-0.33645237516435716	0.11852036171857805	0.9913245697105537	-0.05682007872472378
298														9.144039892006205	-3.162371450360498	-0.521154889481816	0.34114615169884893	0.013542046549613052	0.9399127173074714	0.9325549575790752	-0.13055783427435702	-0.3365945676987065	0.11815478947446667	0.9913482056698535	-0.05716800538244121
299														9.176841008803487	-3.129032418895696	-0.49816347931331223	0.3413028066140738	0.013988850990565627	0.93984929975253	0.9325580623084697	-0.13022001403873398	-0.3367168073726427	0.11767690776371376	0.9913864332296043	-0.05748987204242781
300														9.195333471958321	-3.1348993665390013	-0.4725856876101155	0.3413907194614759	0.014447781673894655	0.9398104267724848	0.9325892295519378	-0.12985536362389644	-0.33677130736128535	0.11717382638328233	0.9914276807426802	-0.05780526159348559
301														9.162725199813766	-3.123410710673366	-0.47318667259238056	0.3415045816484882	0.014985253598512382	0.9397606412739792	0.9326101129407587	-0.12952489316160004	-0.33684073282799776	0.11667475285475248	0.9914629313424005	-0.0582087435031719
302														9.164132860954217	-3.157842173989421	-0.5267588560877365	0.34163585337152746	0.015662702801526984	0.9397018800832841	0.9326301510850394	-0.1291962356807977	-0.33691146310716147	0.11612900145185362	0.991495341606234	-0.05874557510938655
303														9.194022924848014	-3.136817873088729	-0.485187124073123	0.3418352134965278	0.016325698181787973	0.9396180917759408	0.9326233276852662	-0.12888056565785724	-0.33705122526549447	0.11559591459495333	0.9915257290532544	-0.05928164264229127
304														9.313281603785997	-3.0971316375879185	-0.5625965320252936	0.3421506913941478	0.016860712950730272	0.9394938109095234	0.9325591924341083	-0.1286508025431952	-0.3373163553870985	0.11517923851610673	0.991546613812878	-0.05974157389176257
305														9.361846725618266	-3.1644906944918922	-0.5687870309161469	0.3426896409092933	0.017110459954817858	0.9392928415428248	0.9323860974894937	-0.1285632505752988	-0.33782784936980137	0.11497815106259046	0.9915536913156279	-0.06001084915730351
306														9.293880599506451	-3.193015466561765	-0.5944257275789387	0.34343864925788037	0.017305367051095866	0.9390156646548289	0.932111095350177	-0.12867903812028073	-0.3385418896880165	0.11497304084443666	0.9915352890440494	-0.06032387967726635
307														9.295656520693118	-3.349042578052874	-0.5442265022117994	0.34431252412939006	0.01763630715956549	0.9386894302150319	0.9317629398291605	-0.12907999424428973	-0.3393466944686717	0.11518120371209917	0.9914773400111913	-0.06087671603958533
308														9.290876939109939	-3.4272242028281696	-0.4772519989830341	0.34525334213737413	0.018066862776622894	0.9383356106491881	0.9314123775828025	-0.12932148148247133	-0.34021601566171283	0.11520031522754282	0.9914381185412382	-0.061476373306216275
309														9.265400602856138	-3.4202686514686533	-0.5910917053291627	0.34628761070145025	0.018477935472093587	0.937946403892765	0.9310464153336266	-0.12938765229313784	-0.34119116039029146	0.11505417493113562	0.9914219088434342	-0.06200915655091957
310														9.264547663587514	-3.3136436797547644	-0.6391190737625528	0.347362041769056	0.018806002651889364	0.9375425036777211	0.9306868484221317	-0.12923147417812636	-0.3422297711418869	0.1147240258712735	0.9914361100676157	-0.06239260807084418
311														9.218288075365773	-3.292099175598487	-0.6288875293306114	0.34842729822142227	0.019024257901894603	0.9371427295057047	0.9303213278840403	-0.12910361084944194	-0.34327027915290265	0.11445804793982811	0.9914486044555805	-0.06268189519219997
312														9.23687700147777	-3.213991715709411	-0.5462145784688694	0.3494132490471984	0.019268454186175232	0.9367705738672392	0.9299790623282767	-0.12902449213208902	-0.3442261234436986	0.11423364224824645	0.9914541881011611	-0.06300212595911245
313														9.224570354685959	-3.2376977167848793	-0.5880333158609987	0.3504113471276741	0.019510363435142397	0.9363926705836596	0.9296177663437981	-0.1290609771017679	-0.34518701118017925	0.11411702897524506	0.9914447084473074	-0.0633616113249772
314														9.237205353576854	-3.2647012070475343	-0.5421830644021649	0.35136883005389774	0.019749286000667998	0.9360287981515416	0.9292703082217004	-0.1290966591947492	-0.3461079988129448	0.11400280489576442	0.9914353323778708	-0.06371296719412503
315														9.189955374199336	-3.2878737804119784	-0.5605688268489061	0.3522400615530403	0.01997483822438706	0.9356965025450399	0.928943323734417	-0.12921837306224493	-0.3469393511154371	0.11397912232669816	0.9914149574729323	-0.0640713802924483
316														9.200117004157706	-3.302593739480332	-0.5944818195643301	0.35301674889835766	0.020171632566604925	0.9353995297394755	0.9286672863591744	-0.12918435699204966	-0.3476901970933865	0.11382550787728157	0.991415405946543	-0.06433697699092156
317														9.207590858728471	-3.3291768666622645	-0.6065963345011057	0.35371203785394406	0.02020341309268825	0.9351361485776372	0.928402790758675	-0.12924639548023947	-0.34837282811216735	0.11382465633031502	0.9914066730432936	-0.0644729110286944
318														9.202258654321582	-3.348098619925416	-0.5864725827016166	0.3543422977018482	0.020115478530061237	0.9348994082696176	0.9281460758831647	-0.12940231534743438	-0.34899842779789947	0.11395787766564108	0.9913881219311786	-0.06452281621033742
319														9.21917510502511	-3.3359297012062834	-0.6590407821899629	0.35493826263159034	0.01996205281731006	0.9346765997752312	0.9278898727518221	-0.129636238112385	-0.3495923766512608	0.11418937675929486	0.9913606620273918	-0.06453544777822406
320														9.195216581936618	-3.3484994217245507	-0.666332593425097	0.35545066671465075	0.019773331486344803	0.9344858687503207	0.9276551234605086	-0.12993785036960293	-0.3501030233499782	0.11450238185111694	0.9913249570162439	-0.06452932780653464
321														9.136352450465306	-3.3606371217137814	-0.6499213584359279	0.35593437403231876	0.019541639408730382	0.9343066122592951	0.9274177501716288	-0.13033501147688376	-0.3505839435141249	0.11492187802509984	0.9912774127924735	-0.06451397397962966
322														9.125806597800858	-3.3790850438300866	-0.6888832636171739	0.3563514642303022	0.01943286128603916	0.9341498797533282	0.9271999487899665	-0.13082092274058102	-0.3509788328905132	0.11538582627343585	0.991215541683816	-0.06463637535982333
323														9.164486327051046	-3.46133741472699	-0.7313214472485351	0.35674656715435293	0.01926299102022294	0.9340025824378323	0.9269910917955448	-0.13127416629705657	-0.35136108064883453	0.11584214498742995	0.9911589329870198	-0.06468822925960882
324														9.109243318096267	-3.459042231710596	-0.735911922828731	0.3570006018522406	0.019091374870728484	0.9339090371565553	0.92685276275142	-0.1315746228498437	-0.35161353045919913	0.11616594362031746	0.9911224132403966	-0.06466711308953352
325														9.070362263392434	-3.47375864880646	-0.6910992720769664	0.35717358767858165	0.01898520267252901	0.9338450569255554	0.9267684106160182	-0.13169839384326462	-0.3517894912349768	0.11630709930640576	0.9911080138605415	-0.06463407392654832
326														9.113214849551872	-3.4032356945375444	-0.7265711317397242	0.35726409459651276	0.018925870981180815	0.9338116395289461	0.926741770526837	-0.13161244723293514	-0.35189182214729253	0.11624137590771177	0.9911205653909932	-0.06455979698016784
327														9.184279294130327	-3.323560367597078	-0.6941183693355603	0.3573293383747269	0.018764526166387296	0.9337899316733025	0.9267295619280269	-0.13144602417714027	-0.3519861670246578	0.11613812029375853	0.9911457184923789	-0.06435916196516897
328														9.185140623370687	-3.2442023213292734	-0.613380809954971	0.35740659765189947	0.01848234807683652	0.9337659914370732	0.9267121663142774	-0.13123946946713125	-0.3521090207010964	0.11603915184105962	0.99117839184657	-0.06403366908474742
329														9.168031279636155	-3.1933564235490643	-0.6099602886445209	0.3574848414493184	0.018195364018031235	0.9337416756588555	0.9266711379182462	-0.13122958784838118	-0.3522206658083071	0.11612575202451292	0.9911850099761375	-0.06377370708486368
330														9.162842646197488	-3.2531309485988933	-0.6153525637355093	0.3575130208223146	0.01794020229494414	0.9337358240338218	0.9266322288921189	-0.13137446693297283	-0.35226901909833275	0.11634926867379775	0.9911704689808379	-0.06359205217146802
331														9.18598537803726	-3.2801372959815507	-0.6550234349863628	0.3575266727409316	0.017682275484749543	0.9337355168421514	0.9265845045636154	-0.13163930658920955	-0.3522956838556367	0.1166869066407944	0.9911399649365334	-0.06344868575635751
332														9.128958267293415	-3.2872435514022875	-0.6374974350139437	0.3574758269884887	0.017432108683436587	0.9337596878778529	0.9265546255722574	-0.131960948140438	-0.35225393396884946	0.11707928488656788	0.9911016243315947	-0.06332465000080459
333														9.163221077431945	-3.3903355544006213	-0.6363513199848551	0.35738522713979387	0.017106514893919456	0.9338003890395539	0.926517987389405	-0.1324361119756766	-0.352171968345938	0.11764445786404204	0.9910439159759522	-0.06318020371069946
334														9.129586204596208	-3.4234596542221762	-0.6605258471710316	0.3573046667003006	0.016865685162890887	0.9338355978533772	0.9265007271064307	-0.1327459564263937	-0.35210071531267645	0.11802447977196734	0.9910065891387552	-0.0630568192833117
335														9.121042289513639	-3.4369063811244196	-0.6981830940425509	0.35724380233719233	0.01671171306236746	0.9338616516048759	0.9264831246654308	-0.1330279115093447	-0.3520406148012501	0.11834646341080601	0.9909713887928266	-0.06300651706110813
336														9.143432785861277	-3.4289572924980853	-0.68979201525942	0.35716148077335663	0.01663735164595309	0.9338944668333748	0.926493174087123	-0.1331754261894865	-0.35195838422918413	0.11851613823337553	0.9909528265207476	-0.06297952515532249
337														9.133751507087743	-3.4084987268555635	-0.6787092222698908	0.3570924172238553	0.01656426141512224	0.9339221759895178	0.9264996923675066	-0.1333108779126591	-0.35188993999981333	0.11867318822775491	0.9909358380207712	-0.06295108674147137
338														9.153105983394395	-3.4130043911394674	-0.649373065256192	0.3569717022677643	0.016456869349307568	0.9339702218118492	0.9265371472008243	-0.13333737612202387	-0.35178126582558716	0.11874392042127091	0.9909340621757403	-0.06284557090896006
339														9.128528430244017	-3.431509593749556	-0.635142172706087	0.356827539882422	0.016369627530562758	0.934026842267378	0.9265835185485967	-0.13337056029596034	-0.3516465225200503	0.11881536068859588	0.9909310414659804	-0.06275811599774656
340														9.125234866111809	-3.3853973374102364	-0.6650519846052194	0.3567207740313801	0.016392014002878486	0.9340672305842777	0.9266397598159029	-0.13324504247136662	-0.351545892004343	0.11869728262592433	0.9909475569038619	-0.06272076660475631
341														9.11369740499123	-3.411112197217568	-0.6826660271573193	0.3566103570658843	0.016458629419311588	0.9341082200425067	0.9267048947128487	-0.1330730560271592	-0.35143932602206085	0.11852042587077671	0.9909695632446186	-0.06270752246883465
342														9.101005715964138	-3.402902662764385	-0.6512530273440056	0.35649072874726184	0.01657277548638958	0.9341518631517703	0.9267781258599034	-0.13287972395151795	-0.3513193481580164	0.11830750502335585	0.990993603448199	-0.06272967543278471
343														9.081407804362456	-3.362262128311094	-0.6303749228976302	0.3563536908572582	0.016705006755624474	0.934201792848689	0.9268524102309018	-0.13273866982229504	-0.3511766723217477	0.11813829464478559	0.9910102866686614	-0.0627849906850318
344														9.102131062526622	-3.3998369016173577	-0.651537737092453	0.35617520715501716	0.016835393215663574	0.9342675159414215	0.9269395671005587	-0.13261909701121438	-0.350991757811147	0.11799263007285399	0.9910240888309445	-0.06284102644997552
345														9.106737557357333	-3.4426839430167235	-0.6208051535209147	0.3559701620202873	0.01699074418943186	0.9343428484037004	0.9270494892333174	-0.1324006923965163	-0.3507838382325631	0.11774756160318667	0.9910506401111968	-0.06288195664649288
346														9.14279600675172	-3.440200640323733	-0.6442001505976567	0.35571989206597965	0.01716466732930677	0.9344349803940569	0.9271900146947467	-0.13207311998947868	-0.3505358293050794	0.11739691239092609	0.9910913505685127	-0.06289594414076494
347														9.114744108891333	-3.4126328308899043	-0.6620916526935495	0.35546336251625327	0.01739407469334131	0.9345283538096645	0.927339993978251	-0.13170425642597047	-0.3502777817785473	0.11698860404781414	0.9911364361200957	-0.0629462589682587
348														9.14166958053796	-3.4476230457561816	-0.6234084637772065	0.3551945862717686	0.01762158582056028	0.9346262812463582	0.9275099151053386	-0.13120168734071544	-0.35001639193077405	0.11645670124348922	0.9911990702942161	-0.06294632462159269
349														9.085507079451355	-3.4524040303931587	-0.6069912183254311	0.35491957004063396	0.017811680227465987	0.9347271488780275	0.9276862938433292	-0.1306463185116132	-0.3497566006161867	0.11588890808614982	0.9912690268069697	-0.06289258681087387
350														9.08132262687792	-3.3711973804176196	-0.58813884252128	0.35467818061160983	0.018083607627225773	0.9348135489675056	0.9278628187091478	-0.1300082164155583	-0.349526040977722	0.11521275040182483	0.9913479948028491	-0.06289018480825856
351														9.098351469244687	-3.3634786650429027	-0.6399847707064041	0.3544649325661069	0.018413155906934764	0.9348879971795834	0.9280274709887268	-0.129398307865232	-0.3493151743223917	0.11454093011309768	0.9914217233907889	-0.06295507698085157
352														9.101878215712773	-3.372199571596437	-0.5598871852970149	0.35427453961463495	0.01874773638012084	0.9349535137970546	0.9282005656485324	-0.1286374205444697	-0.34913625415503474	0.1137244938902	0.9915144660650625	-0.0629746224532639
353														9.114619988814733	-3.3430324666205404	-0.5421408530409262	0.3540222724610699	0.019180182070972995	0.9350402939003342	0.9284024328172589	-0.12785620351390575	-0.3488863911963387	0.11285899760539286	0.9916072366813051	-0.06307087141280726
354														9.117312228623776	-3.293870247902781	-0.5151167344861365	0.3537935720281288	0.019723698938729828	0.9351155458507534	0.9285887416781952	-0.12716817293507365	-0.34864194328976317	0.1120404267221633	0.9916850465205829	-0.06330648692974516
355														9.171241713373238	-3.239038114057436	-0.564400292739882	0.3535312882012918	0.02024836258932583	0.9352035244133691	0.9287699659607103	-0.12662253814933275	-0.3483576942769637	0.11136417104292062	0.9917442899483075	-0.06357110006009906
356														9.192194956733413	-3.2758429081259237	-0.5872626535863317	0.3533393231052604	0.02071963568731594	0.9352657480334141	0.928924926170287	-0.1260523027184741	-0.3481512581032808	0.11067883396134737	0.9918071958179953	-0.0637862213695202
357														9.167705229537546	-3.2938767298540466	-0.5757725906034673	0.35321917556659793	0.021117463661083913	0.9353022328320277	0.9290401086553666	-0.12556720813249142	-0.348019184458899	0.11009400765563226	0.9918603374318057	-0.06397171646897717
358														9.185444157587625	-3.3439729564561262	-0.5772705127678194	0.3530419503574813	0.021515874088919973	0.9353600635316739	0.9291729489702449	-0.1251110108977172	-0.3478287881330288	0.10954000269182873	0.991909422333684	-0.06416140347540039
359														9.244489820207354	-3.3683494136668335	-0.6435612048140269	0.3527777808430048	0.02183979431515115	0.9354522225788751	0.92933277247972	-0.12467202818810996	-0.3475593235443704	0.10903410172346151	0.9919576144028208	-0.06427795803868419
360														9.219549229474378	-3.3505797628367877	-0.5817367244657167	0.35238885056742164	0.02213088444974909	0.9355919633842755	0.9295498143575943	-0.1241175368289115	-0.3471771589250741	0.1084400323844184	0.9920206958551803	-0.06430939567023339
361														9.200769143988705	-3.307165203737798	-0.5615700599021336	0.3519800358260574	0.02244131900214341	0.9357384472069807	0.9297495245885388	-0.12379173324173734	-0.34675845816417056	0.10805496706433054	0.992054430957521	-0.06443702437477902
362														9.180289409720801	-3.3100607930704453	-0.5702145971283398	0.35152281758409604	0.022772479627968356	0.9359023041372065	0.9299617434508319	-0.12351971448587798	-0.34628606072323537	0.1077165931304338	0.9920807902106163	-0.06459753292078294
363														9.203645317850487	-3.298690903064706	-0.5642748701847433	0.35122857881391933	0.023121888714560945	0.9360042006778745	0.9301071048547669	-0.12331185377235193	-0.34596959435463476	0.10742094266500757	0.9920985661624042	-0.0648164801224474
364														9.191465437002975	-3.2887131990783165	-0.5350869091744418	0.3510380557561371	0.023437546654209163	0.9360678206293513	0.9302007020115343	-0.1232140361488393	-0.34575273718824256	0.10723309838012018	0.9921033125147527	-0.06505443804272837
365														9.188483489718507	-3.3803470662773347	-0.5935373601486551	0.3509303394328048	0.02371020672065488	0.9361013422503148	0.9302435354780363	-0.12328645493089699	-0.34561165306149066	0.10721409220294031	0.9920878369014695	-0.065321224003104
366														9.19898026216873	-3.3986883194716686	-0.6057549853855851	0.3508423607401573	0.023912720368524876	0.9361291682854729	0.9302823203202926	-0.12330282301592435	-0.3455014013514231	0.107165490759698	0.9920809420812806	-0.06550543450243426
367														9.128558585033975	-3.479114261983021	-0.6366150232278682	0.3507803148866042	0.02404367534465346	0.9361490652476114	0.9303143050953697	-0.1232669891821421	-0.3454280577962505	0.10709091662216252	0.992082229985948	-0.06560780840063538
368														9.15662260004329	-3.446078591564992	-0.6712042239909191	0.3507128276914654	0.02420369075287615	0.936170226960138	0.9303722671425958	-0.12301932612490804	-0.34536023212251926	0.10680803820220341	0.9921090800681713	-0.06566289836493669
369														9.18250071870274	-3.344208439896494	-0.6074878458374732	0.35059922302741153	0.024401639577099066	0.9362076397885919	0.9304711873927668	-0.12256148572291845	-0.3452565012411592	0.1063181745726996	0.9921608953205832	-0.06567498421917409
370														9.206736305302675	-3.2888041956919145	-0.5715132737698547	0.3504665850796449	0.02454473175806976	0.9362535601457209	0.9305732193042706	-0.12211738471304612	-0.3451388530208276	0.10586149562658992	0.9922121247464027	-0.06563873284830524
371														9.224859829101948	-3.2356296415728534	-0.5948284902367084	0.35033796407430506	0.02466460079563204	0.9362985466163363	0.9306639572660229	-0.12175469591767096	-0.3450223074932148	0.10548890735152128	0.9922537233437767	-0.06560974726513258
372														9.241691143935219	-3.2514954734358987	-0.5450806271065188	0.35016711787718174	0.024762304153193748	0.9363598762498389	0.9307652092007448	-0.12142974945020993	-0.34486365608737846	0.10516232642482942	0.9922911086175693	-0.06556859659496814
373														9.201086607659796	-3.2525110716781795	-0.5801974060067634	0.35003268804615084	0.024838934028516724	0.9364081079612206	0.930844988334274	-0.12117190802407204	-0.3447389975021268	0.10490340791485997	0.9923207123012866	-0.06553532593735736
374														9.223625521095073	-3.24364990526813	-0.5723694226876029	0.3498905792527797	0.024943775612704888	0.9364584297278434	0.93092164302559	-0.12097993847349908	-0.344599403704483	0.10469707300918751	0.9923415049997315	-0.06555044132709908
375														9.22300467997676	-3.2077841855788622	-0.5230806928196576	0.349755280126287	0.024996024755877255	0.9365075775295075	0.9309966985313647	-0.12075931810884083	-0.3444739967161344	0.10448153591655324	0.9923670620472507	-0.06550742565714701
376														9.260222452651037	-3.159593849090492	-0.5177492016950443	0.34964514504612354	0.024944394196420694	0.9365500786097071	0.9310492993896974	-0.12062538041321538	-0.34437874456203077	0.10438139035109895	0.9923846506261271	-0.06540053937110044
377														9.25168533383276	-3.173225264611864	-0.555145791572427	0.34952246734396153	0.024832654677813926	0.9365988383953092	0.9310756226989654	-0.12076267263379425	-0.3442594395424438	0.10455730312858941	0.9923707553933641	-0.06533034671942883
378														9.213827823928716	-3.2655980646251273	-0.5864535712929337	0.34936412540743556	0.02473880820179336	0.9366603969673606	0.9311190401124578	-0.12086825930451114	-0.344104921546835	0.10469976608547693	0.9923602447002062	-0.06526180904781967
379														9.209925302376538	-3.2197609094448416	-0.6173323549185179	0.34926210890362686	0.024664175247732456	0.9367004098128391	0.9311210242093763	-0.1211766758632756	-0.3439910631135775	0.10502198607660068	0.9923244891093216	-0.06528775347988705
380														9.204254005558953	-3.3242461335132214	-0.6525643806454768	0.3490983254936337	0.02461663373688522	0.9367627130074109	0.9311435294421497	-0.12151413527307672	-0.3438110564057719	0.10536644017692443	0.9922844029169764	-0.06534200036838603
381														9.209308866733116	-3.3670203951733546	-0.6210463922319994	0.3489644935256253	0.024557955767084694	0.9368141166031533	0.9311719984417539	-0.12168679128552545	-0.3436728591911559	0.10555800100605783	0.9922646983719494	-0.0653320502389923
382														9.11043856812616	-3.3415198973949147	-0.5909647521696361	0.34884218535792116	0.024463595343799882	0.9368621361852366	0.9312084082935674	-0.12173158751223603	-0.3435583224506601	0.10564104334050584	0.9922615346291551	-0.06524581869609522
383														9.11660985005415	-3.3157091898162325	-0.6317008906034873	0.3487575452837667	0.024445278711773433	0.9368941257988253	0.9312445385352117	-0.12167699865791945	-0.34347971911881653	0.10560200782173523	0.9922686815305137	-0.06520030366274224
384														9.185827535672605	-3.280025290371559	-0.6295484871075262	0.34868223788032116	0.024494800401868133	0.9369208620476139	0.9312893920136319	-0.12153297154753845	-0.3434090929921709	0.10545503928049804	0.9922851110341715	-0.06518813626919212
385														9.233002302528572	-3.2519354700432728	-0.6347589148807113	0.34861769683126986	0.02445828599610933	0.9369458328538496	0.9313201484170408	-0.12145273976373364	-0.34335406384131295	0.10539678651895601	0.9922958350461902	-0.06511906895420336
386														9.185207258036755	-3.2442210094106287	-0.5787526721921863	0.3485535512812814	0.02435282218692736	0.9369724446005545	0.931343930813992	-0.12141148120268525	-0.34330414324343966	0.10539878758861132	0.9923034779157545	-0.06499925608150364
387														9.191294534948549	-3.218647166079075	-0.61935752381721	0.34845865395299525	0.024284854588977278	0.9370095049266356	0.9313654902067456	-0.12151083329009033	-0.34321049087272415	0.10552198888011483	0.9922929825564323	-0.0649595769078341
388														9.212407048616384	-3.175721339863617	-0.5626957352091851	0.34837955128148634	0.02425312303274174	0.9370397399641431	0.9313681604268256	-0.12174624193298328	-0.34311980752842935	0.10575933997553666	0.992264903439779	-0.06500248771843015
389														9.224205193312837	-3.228793466517687	-0.6219681686211264	0.3482909273396463	0.024220095123982543	0.9370735386964433	0.9313705943906845	-0.12201537154634795	-0.3430175870283471	0.10602945740327208	0.9922326522033993	-0.06505473129739153
390														9.22466748149328	-3.227407202704024	-0.6223068808921207	0.3481490149739706	0.02420192981733693	0.937126741676797	0.9313835728527192	-0.12237265734660416	-0.34285503198003897	0.10638093622805256	0.9921890945414824	-0.0651451999781695
391														9.18120494354295	-3.2407570470616145	-0.6380319693602194	0.3480214022530539	0.02419995234851824	0.9371741918555737	0.931381807236162	-0.12282281142067275	-0.34269882717077216	0.10681307374717275	0.9921335188879828	-0.06528436241267688
392														9.16705816252667	-3.278699203297943	-0.6359168328797266	0.3478932415365814	0.024216017124842282	0.9372213596625827	0.931390878265669	-0.12317906254750319	-0.34254627487892064	0.10715094202421427	0.9920889592493854	-0.06540774081709147
393														9.212813073484007	-3.296556687534952	-0.6706306631836724	0.34777871845777364	0.02422175987788716	0.937263713869414	0.9313981540036094	-0.12350079225305158	-0.3424106205005	0.1074590233835086	0.9920488196965342	-0.06551104969526875
394														9.178184144975063	-3.2954621111611315	-0.6478371317302785	0.34767914434086844	0.02425024893859673	0.9372999189250039	0.931397549791762	-0.12385201402100937	-0.34228538219568033	0.10778597697430248	0.9920043367089464	-0.065647384702967
395														9.178666213055145	-3.2939974984319385	-0.6484556467387385	0.34754060373159046	0.024206900544861742	0.9373524175697703	0.931410554641774	-0.12418146522254578	-0.34213059260622186	0.10811987541513629	0.9919642078528805	-0.06570466405836498
396														9.176348424014018	-3.304885597725969	-0.6278285220598753	0.34740916552051226	0.024176011975521494	0.9374019373552103	0.931427822932148	-0.12445144806360484	-0.3419854496067801	0.10839318419633687	0.9919311253911897	-0.06575378392113787
397														9.189973971105344	-3.310456258491045	-0.6594629212639941	0.34726254959480235	0.024207251277250208	0.9374554552801524	0.9314483757729208	-0.12476369848357902	-0.3418156561813494	0.10868599228467907	0.9918911374371175	-0.06587356491640653
398														9.194951508265598	-3.249429689017152	-0.6531542040732174	0.3471021217993923	0.024305685211905514	0.9375123202970406	0.9314830008978905	-0.12501704125491614	-0.3416286850282455	0.10890149714591346	0.9918568309298714	-0.06603401288072869
399														9.18375974086832	-3.2747360522468303	-0.6720866507120354	0.3469593214338204	0.024382710781233385	0.9375631779699658	0.9315136567291022	-0.1252395295127752	-0.3414635669798393	0.10909416390146309	0.9918268718190577	-0.06616585025723817
400														9.216473000871234	-3.285249030667725	-0.675810953640953	0.3468436721695418	0.024444921344069725	0.9376043477375893	0.9315351279534261	-0.1254496626810449	-0.34132782998461547	0.10927841719544579	0.9917987840049487	-0.06628272460878332
401														9.257988748145726	-3.281321301859336	-0.6411843544632352	0.3467541823692587	0.024587673439977198	0.9376337149037659	0.9315515203941185	-0.1256483653023998	-0.3412099839515862	0.10942258387021303	0.9917701016927484	-0.06647378075243243
402														9.26113796895568	-3.267749593641878	-0.6632422675244255	0.346682524295392	0.024694753494347133	0.937657398252703	0.9315694436791078	-0.1257611669857979	-0.34111948124047053	0.10949702713577397	0.9917531436946512	-0.06660407660349241
403														9.234880778526732	-3.2297994085384407	-0.7027275908388443	0.3466132946035537	0.024746320428203628	0.9376816323408146	0.9315829142866789	-0.12588595043761894	-0.34103665681500445	0.109601541107814	0.9917360269283766	-0.06668699332786068
404														9.239711975247436	-3.2734096041460683	-0.6721393202896371	0.34655437029860836	0.024788895055259774	0.9377022870340428	0.9315781809602612	-0.12613790830676236	-0.3409564794028203	0.10982787071461403	0.9917029488561251	-0.0668064371476274
405														9.21798970599893	-3.280037199580443	-0.6804247456657407	0.34649900424591995	0.024788916200419064	0.9377227467061868	0.9315616707140848	-0.12646827502183183	-0.3408792001125712	0.11014215229860908	0.9916608719953671	-0.06691353555461771
406														9.15832559196509	-3.299620659399046	-0.644565699439738	0.34646202684524907	0.02488880288906964	0.937733763626452	0.931550478763038	-0.1267261441926859	-0.34081401070731954	0.11035293140934804	0.9916254493854034	-0.06709097301843292
407														9.206582689117683	-3.3056195448845975	-0.7011119451236948	0.34643946777925494	0.025075233717093803	0.9377371315133363	0.9315424516829613	-0.12693960180541833	-0.34075650867735463	0.11049142897675246	0.9915934500325804	-0.06733553278292445
408														9.18328659165819	-3.278478791505591	-0.6615526585516726	0.34646264752712086	0.025232195408704083	0.9377243572518288	0.9315170425920543	-0.12714897802501704	-0.3407479079139698	0.11063287589614362	0.9915626423489597	-0.06755659160213598
409														9.187843385656784	-3.3228675537793695	-0.6315623036724513	0.3464725699510658	0.025310665951079114	0.9377185763653281	0.9315112119409182	-0.12719743321002758	-0.34074576301568776	0.1106508938050953	0.9915544277415609	-0.06764759069057863
410														9.165872465815193	-3.330222490412001	-0.6397398941703898	0.34646980570018704	0.02543372378625408	0.9377162680856289	0.9315180768870296	-0.12718962047473445	-0.34072991191878504	0.11060174578533843	0.9915522810915507	-0.0677593365624091
411														9.21548906894472	-3.2900478423021156	-0.6671511026121969	0.34647992739834876	0.025575549420424726	0.9377086707404807	0.9315234412605982	-0.12716006219190873	-0.34072627865394206	0.11052483111070016	0.9915524241588007	-0.06788263292446656
412														9.24312515177129	-3.257435553194406	-0.7017221367884108	0.3464809337041634	0.02564779862217975	0.9377063255653806	0.9315350139018019	-0.12707916326928978	-0.340724821722379	0.11042409363205513	0.9915609293879089	-0.06792232958995018
413														9.21267349130766	-3.3024696074860436	-0.6465802443109554	0.346512625935841	0.02562014091129422	0.9376953708143888	0.931524823732893	-0.12705720359657965	-0.3407608689148748	0.11041061016247988	0.9915644585168951	-0.06789272250872083
414														9.185990555115144	-3.2657347841426283	-0.6852686923736614	0.346567191416465	0.02572737186358931	0.9376722690635021	0.9315151441861588	-0.1270049720247959	-0.3408067975155741	0.11032097708751476	0.9915683735466628	-0.06798119296160252
415														9.241481314263368	-3.224034974401344	-0.6534189892011593	0.3466556192930777	0.02589353872758382	0.9376350069535035	0.9314853734393536	-0.12704404246650533	-0.34087359877573026	0.1102945179103727	0.9915590430861556	-0.0681599838100522
416														9.293828572187557	-3.275997258116505	-0.6782563497475932	0.34676873322007057	0.025992965866115658	0.9375904283782082	0.9314395124801543	-0.12712273008073463	-0.3409695676853793	0.11032624461877294	0.9915463565675107	-0.06829306352782136
417														9.25558968044073	-3.289853272535612	-0.6343876022052668	0.34689853581985797	0.025980935460485743	0.9375427440061798	0.9313754072368079	-0.12727006711333969	-0.34108969613788764	0.11045929856969605	0.9915277711741434	-0.06834780428021567
418														9.233246871165392	-3.298310287478975	-0.6421283868928046	0.34699740465537365	0.026028062953471154	0.9375048485748358	0.9313395133009437	-0.12728648511823656	-0.34118156701470154	0.1104514016515728	0.9915244276593169	-0.06840904346698509
419														9.19167926855266	-3.3019486848649438	-0.6780859091403145	0.3471535709343443	0.026052754028457137	0.9374463463020514	0.931283870540512	-0.12728465878999992	-0.3413341004174589	0.110429844963288	0.9915240136498187	-0.06844983343396951
420														9.208541738283527	-3.251386926247508	-0.7019946683489513	0.3473357583816339	0.02605379466018576	0.937378829893902	0.9312047588335973	-0.1273995225526943	-0.34150704059947007	0.11052406106870005	0.9915092341663547	-0.06851182735653646
421														9.163892599775942	-3.268222585653824	-0.7171599478687553	0.34756216242659477	0.026040947827189742	0.937295264196726	0.9311128790192984	-0.1274788354837179	-0.34172789325442543	0.11058639054486846	0.9914993774783605	-0.0685538816281111
422														9.199897326091174	-3.327000115520904	-0.6889056317357403	0.34779398357288016	0.02603497322570031	0.937209435056884	0.9310231112121914	-0.1275234184086684	-0.34195576343459816	0.1106133417779171	0.991493801254705	-0.0685910394600995
423														9.232969584412322	-3.2943719658205017	-0.6636515472984443	0.34798744423996275	0.02602326531900101	0.9371379451892212	0.9309400769951522	-0.12763047283510745	-0.3421418352790945	0.11070371130002349	0.9914803336758747	-0.06863990266876316
424														9.18436796389016	-3.2891083626685376	-0.6087927732183628	0.34812733928151096	0.025966232661722266	0.9370875681632602	0.9308699502924812	-0.12778006039327428	-0.34227677661267725	0.11085346763745885	0.9914625615358597	-0.06865491814504177
425														9.186711063916468	-3.2781098126417723	-0.6290000849854435	0.34830665606294714	0.025828088591511755	0.9370247505706333	0.9307857251615249	-0.12789680624779046	-0.34246217424286435	0.11099732959753	0.991451116692762	-0.06858772507448482
426														9.18603570454187	-3.1762799106768433	-0.65157460641462	0.34851327384009384	0.02567737501164774	0.9369520640725286	0.9306998354986404	-0.12793410665221627	-0.3426816023043892	0.11106896128110694	0.9914502190062853	-0.06848466304454903
427														9.230577645881421	-3.1978261272206847	-0.6842938407369761	0.3487678730302566	0.025468988640638734	0.9368630109891061	0.9305768777703383	-0.12812358980261487	-0.34294463153007676	0.11129979919640337	0.9914311253706503	-0.06838624382963285
428														9.24290606357235	-3.3111117106256924	-0.6902784219312005	0.34900756249224063	0.02522966120008585	0.9367802226343986	0.9304584689763117	-0.12830852180612942	-0.34319667938688464	0.11153814967751091	0.9914133282479387	-0.06825579637556264
429														9.258228190167165	-3.4114602221625177	-0.716801803943331	0.34916432431626354	0.02497608313040872	0.9367285999136732	0.9303694890193943	-0.12849556203103066	-0.343367884986527	0.11178948307671172	0.9913955244047619	-0.06810305179394757
430														9.20819454745586	-3.4525154719703424	-0.6885256956613832	0.3492339413800025	0.024751337167638998	0.9367086129083064	0.9303144163201266	-0.1286749503275707	-0.3434499147548883	0.11203008959708888	0.9913778938763017	-0.06796418585002828
431														9.167356062492816	-3.374611079567822	-0.6453278078272529	0.3492602213803624	0.02456861798645321	0.9367036248310225	0.9302887033677625	-0.12875013260226145	-0.34349138525038486	0.11216160728015873	0.9913726778387313	-0.06782320758557223
432														9.179053844625649	-3.3481724236082098	-0.625698049216451	0.34934243366123924	0.024422891810945313	0.9366767779758578	0.9302589232775005	-0.1286933954202866	-0.3435932852047372	0.11215257333752443	0.9913836453819427	-0.06767767699162394
433														9.16417796559214	-3.2849911178966265	-0.6448950360984823	0.3494492242591458	0.024303453026624122	0.9366400492375205	0.9302212296404264	-0.1286364259213062	-0.3437166476219133	0.11213252690872288	0.9913939742086271	-0.06755948720860416
434														9.191561952048547	-3.2540236171742305	-0.6770969908684412	0.3496135134160815	0.024088738557297873	0.9365842855352542	0.9301555390839822	-0.12860519737364834	-0.34390605740503066	0.1121653437932178	0.9914032660240756	-0.06736838849598631
435														9.180961204742683	-3.235944667405183	-0.6649305525611048	0.3497404882521057	0.023921238162204816	0.9365411711408989	0.930092396601275	-0.12868950431860457	-0.34404526629897	0.11229303033437082	0.9913963817984306	-0.0672568918052652
436														9.1468888359625	-3.2714197962103744	-0.6893097958343093	0.3498132323948655	0.023779447911080498	0.9365176134480869	0.9300317927303998	-0.12893613463206638	-0.344116750096273	0.11256805475859932	0.9913677476311131	-0.06721920859902403
437														9.161315057624112	-3.3362299962211672	-0.6675255732950413	0.3498692486519552	0.023595524604477558	0.9365013401305713	0.9299799455880297	-0.12914355521704207	-0.3441790855789878	0.11282202644786077	0.9913451434109829	-0.06712672331982189
438														9.158366027921419	-3.3490735037059074	-0.6455487066059818	0.34988728873462893	0.0234537305054478	0.9364981621483883	0.9299534804910323	-0.12926560011482116	-0.3442047773485592	0.11298411084991761	0.9913326016793425	-0.0670392686648694
439														9.20535919288921	-3.3216969373042304	-0.6499506566464095	0.34986396113018203	0.023324113969069804	0.9365101144194102	0.9299500715119957	-0.12932305187040552	-0.3441924065835255	0.11308436318577819	0.9913281666342799	-0.06693573664631444
440														9.182252491598996	-3.2947156622133966	-0.6069538645991952	0.349829623952999	0.023192002917087007	0.9365262223801304	0.9299600634164658	-0.1292975301429429	-0.3441749978562914	0.11310841991357978	0.9913345952298998	-0.06679974285148635
441														9.185327400557082	-3.282117107712095	-0.6259335435814967	0.3498252529614735	0.023049620904387502	0.9365313701988878	0.9299668657392115	-0.12919965474272763	-0.3441933727449566	0.11306600292585611	0.9913506766984754	-0.06663268561183991
442														9.200124311549294	-3.242710608086979	-0.626864230133074	0.3498211943418767	0.02294895547358916	0.9365353583457988	0.9299859392957497	-0.12900840043024145	-0.34421357516901124	0.1129215865165959	0.9913779188892102	-0.06647207863060431
443														9.167977027956873	-3.2307553965948754	-0.6223362532630389	0.34983996862152117	0.022831365682226712	0.936531219498836	0.929981897743432	-0.12894007509008576	-0.34425009354434033	0.11289670599453788	0.9913895227290063	-0.06634114860880369
444														9.154816645802095	-3.223885275561625	-0.5903660452006513	0.3498772220181604	0.022841053847106385	0.9365170664606223	0.9299652574231898	-0.1289695033773239	-0.34428402109948114	0.1129183311011831	0.9913854716797907	-0.06636487808746108
445														9.204308404663722	-3.28825679524369	-0.5930277759467059	0.3499623519058834	0.022797848453152858	0.9364863108206176	0.9299115808632883	-0.12914992310244605	-0.34436136417863866	0.11309643683531051	0.9913629786655036	-0.06639759413274898
446														9.19812311739967	-3.291049404795997	-0.652437878100012	0.3500564669209329	0.02274898983520579	0.9364523230940871	0.9298563255840554	-0.12931276787367793	-0.34444944743193956	0.1132593649026607	0.9913428728378124	-0.06642006274853987
447														9.193341500628696	-3.3509665302558376	-0.6596412096719704	0.35014207407224474	0.022696369966560603	0.9364215945580967	0.9298164330195411	-0.12936691107723317	-0.34453679513972596	0.11332223458441382	0.9913370148989076	-0.06640025632570126
448														9.218073300776378	-3.3317225947032414	-0.6720886321640192	0.35019860902923494	0.022631164312970853	0.936402031520558	0.9297975516777431	-0.1293261047030203	-0.3446030637362612	0.11330245861438015	0.9913438298815314	-0.06633222314798393
449														9.223895928473281	-3.3301049447511843	-0.6116962930841535	0.3502333046311578	0.022573725326362537	0.9363904416705822	0.9297841119853505	-0.12931083258476003	-0.34464505462264894	0.11330550483869328	0.9913471316855289	-0.06627765137754019
450														9.210715101440735	-3.300264381454477	-0.6806925368184367	0.35024019844036636	0.022501981034134533	0.936389589992324	0.9297773986521984	-0.12932095748455183	-0.3446593664922371	0.11333927982832903	0.9913474420226336	-0.06621523120232634
451														9.141820285580767	-3.33517711923394	-0.6818468016535533	0.35026819679289567	0.02244069049869485	0.9363805880759144	0.9297589187164621	-0.12936987190911034	-0.3446908604959168	0.11340433581944082	0.9913424492334434	-0.06617858388624928
452														9.105086786002136	-3.38228862279061	-0.6860224143486596	0.3502862881367102	0.022413324506429966	0.9363744759592578	0.929748010939319	-0.1293969266674465	-0.34471012680714663	0.11343787946618761	0.9913395373198775	-0.06616471301702864
453														9.107956214045325	-3.370091352943429	-0.7063555873737196	0.3503395443102527	0.022455236787021493	0.9363535475627374	0.9297487970369913	-0.12923400272850133	-0.3447691212203285	0.11326684466670889	0.9913598412683502	-0.06615351101520711
454														9.151838375306346	-3.3556736647883625	-0.6902942999812881	0.3503615329987222	0.022473121275514152	0.9363448910604051	0.9297833587016785	-0.1288666320558218	-0.3448134234974266	0.11291457866994686	0.9914072573683964	-0.06604504493951771
455														9.175342428317192	-3.302097481334166	-0.6529036218601678	0.35041525977981264	0.02243279628527456	0.9363257528041564	0.9298002731876618	-0.12852908482655312	-0.34489378993220293	0.11260815997784618	0.9914519877454846	-0.06589657276316963
456														9.159174201273997	-3.3079490328599697	-0.5993290927119522	0.3504441539079507	0.022414630513988676	0.9363153738621732	0.9298283018759392	-0.1281814065934736	-0.34494761346358827	0.11228634833427903	0.9914974086414141	-0.06576218240837955
457														9.200119256375185	-3.283307890084335	-0.6627589370605058	0.350494785987462	0.022352793139073346	0.9362979000481014	0.9298393217604687	-0.12789628909357914	-0.3450237309869031	0.1120367828154415	0.9915356230993282	-0.06561148848633264
458														9.223462454037053	-3.3331854619477572	-0.6013672905886185	0.3504768542223352	0.022259102965886013	0.936306844463699	0.9298603666567493	-0.12773392585103743	-0.3450271622751706	0.11191815391343446	0.9915586601517004	-0.06546564215504974
459														9.22218623657783	-3.276354914917637	-0.6516417069973657	0.3504986985772132	0.022111728567212496	0.9363021594311578	0.9298531309998097	-0.12767239909361902	-0.3450694325487698	0.11190986134175168	0.9915698815360667	-0.06530966976658462
460														9.172246397488045	-3.316571017198616	-0.6237629920079186	0.35055595002757817	0.02203174534818192	0.9362826112329412	0.9298305074684605	-0.12765639947012172	-0.34513630793538613	0.11191851178963691	0.9915737218539211	-0.06523649935086442
461														9.214460744323835	-3.3490718941685507	-0.6357458292756958	0.3506276490271154	0.02196764526934758	0.9362572692903581	0.9298096957748627	-0.12758294751432125	-0.3452195260216537	0.11186680196007753	0.991584597533099	-0.06515983850767854
462														9.18502987801789	-3.325241091774855	-0.6525665854022139	0.3507170483878073	0.02186587129344786	0.9362261669290829	0.9297827990138673	-0.12749157464140728	-0.345325708648217	0.11181010074265718	0.9915985992668773	-0.06504397976664708
463														9.130660285166822	-3.3212386810951915	-0.656361367357694	0.35078412368191525	0.02184651710994684	0.936201489137288	0.929766687378976	-0.12740785485688252	-0.345399979098281	0.11173363689165494	0.991609786262183	-0.06500481656024762
464														9.19486414209843	-3.3462664770977013	-0.6609214356444442	0.3508327266959764	0.021823616224111775	0.9361838108266824	0.929766966453404	-0.1272376607967386	-0.34546195994205986	0.11157860893155847	0.9916321432113206	-0.0649300129294732
465														9.156650956157653	-3.3369687821633893	-0.7166450986373643	0.3509106072051138	0.02180261770467662	0.9361551108722114	0.9297573988483954	-0.12705936529641781	-0.3455533200204242	0.11141330727343368	0.9916554661532884	-0.06485762415244845
466														9.175473783184168	-3.342743318326317	-0.6870780664960641	0.350974522972625	0.02173266518606093	0.9361327766337685	0.9297461401480958	-0.12692368029307277	-0.3456334680851659	0.1113058808143389	0.9916743773259309	-0.06475283971666224
467														9.147401980792678	-3.375708010553714	-0.6516273645209494	0.3510282478883595	0.02166259052957703	0.9361142565712673	0.929742540018625	-0.12675303946473204	-0.3457057654511532	0.11116644486599381	0.9916977357834393	-0.06463452930018132
468														9.17392371396492	-3.3095163719541527	-0.6350312462780663	0.35102795451759794	0.0215536853268527	0.936116880413991	0.9297585706890805	-0.1265706921193786	-0.3457294608890306	0.11103321745040784	0.9917233982039813	-0.06446957481911891
469														9.163758176606636	-3.290132515538358	-0.6228884421042613	0.35104727873389074	0.021478173169674264	0.9361113695340015	0.9297767141513098	-0.1263167785053396	-0.3457735289029904	0.11081998879048877	0.9917574096246153	-0.06431306662840366
470														9.165376172693165	-3.24359428814545	-0.5931789623922108	0.35104688335281004	0.02146379652121061	0.9361118475519765	0.9298077308167478	-0.12603487007151357	-0.3457929947807894	0.11056070460018291	0.9917935858660072	-0.06420135227048043
471														9.241513261066338	-3.2412366928011562	-0.5791526249275816	0.3510811138739386	0.021402628397252876	0.9361004107352612	0.9298227719730539	-0.12576363703408575	-0.34585129798846515	0.11032526547161325	0.991829337687512	-0.06405388903860734
472														9.17850554844152	-3.251547583527729	-0.6212835000983022	0.35110344666260496	0.021368694619956774	0.9360928098387886	0.9298306919806034	-0.12560562385710608	-0.34588742605989503	0.11018735858759571	0.9918500925773543	-0.06396983556163324
