// Start Time: 1748431178.2324173
// Update Rate: 100Hz 
// Filter Profile: 46.1 human
// Option Flags: AHS Disabled ICC Disabled 
// Firmware Version: 4.0.2 
PacketCounter	SampleTimeFine	Year	Month	Day	Second	UTC_Nano	UTC_Year	UTC_Month	UTC_Day	UTC_Hour	UTC_Minute	UTC_Second	UTC_Valid	Acc_X	Acc_Y	Acc_Z	Mat[1][1]	Mat[2][1]	Mat[3][1]	Mat[1][2]	Mat[2][2]	Mat[3][2]	Mat[1][3]	Mat[2][3]	Mat[3][3]
0														9.728097541831097	0.5010158401961449	0.33846790354612905	0.036044639388670474	0.0503495871861544	0.9980810102599509	-0.917824825638718	-0.3934326816698659	0.052993532013960065	0.3953458908507805	-0.9179736619665303	0.032030961945605674
1														9.78065580544476	0.5555837809619288	0.3672054307048266	0.036097450435294276	0.050302116923645335	0.9980814952222444	-0.917809212798756	-0.3934649410348946	0.053024419639768616	0.39537731722216807	-0.9179624377987405	0.03196466512876889
2														9.789303234040206	0.5716087567143057	0.38369558330041326	0.036160687037215755	0.0503075947927229	0.9980789300547168	-0.9179666193336493	-0.39309118186572195	0.053071730031736486	0.3950059372998691	-0.9181222514706752	0.031966245514147285
3														9.811726280458762	0.5629453307280357	0.3806598506130599	0.03618840939352225	0.0503197308427481	0.9980773134950425	-0.9181253350369392	-0.3927179951963398	0.0530890328813472	0.39463434745201287	-0.9182812755016199	0.03198798015259824
4														9.777048492183017	0.500830371291134	0.3142038293346515	0.036157810942883284	0.05034114698471742	0.9980773425081253	-0.9183303905795488	-0.3922431583428222	0.053052789476717654	0.39415974736879456	-0.9184830285059766	0.03204715120969881
5														9.728589010783963	0.46298327942220796	0.2681867999471502	0.03606490673218965	0.05042596031294044	0.998076422439142	-0.918434117537089	-0.3920083657289156	0.052992574408246784	0.3939265086869216	-0.9185786105310001	0.03217517721272434
6														9.738708789398094	0.4040247889042948	0.3182365075677942	0.036045523436081084	0.05046598215114051	0.998075099822523	-0.9186052094257188	-0.39160944309631174	0.052976535312602824	0.3935291468953092	-0.9187465530402369	0.032242546743904144
7														9.748371569050896	0.36292337991607576	0.3163319025037471	0.0359808014107052	0.050535999929671394	0.9980738923751845	-0.918556719180689	-0.3917269309069281	0.05294870395247914	0.3936482383776815	-0.9186926168819181	0.03232553338772726
8														9.75245155379216	0.3795843385940436	0.2996503195270128	0.03596258528163687	0.050602312775871405	0.9980711890449467	-0.9186336865800653	-0.3915459952406598	0.05295170905003227	0.39347025597899915	-0.918766096214229	0.032403982889250726
9														9.79261950173561	0.3840385613823181	0.3827500068224164	0.035958497943694434	0.05073626939763887	0.9980645356855653	-0.9187297079446303	-0.39131510427054106	0.052992574099673284	0.3932463733661216	-0.9188570727470868	0.03254181459364408
10														9.80079519963771	0.4170460345404203	0.3492714596050963	0.03584615790411755	0.05081445957896896	0.9980645989419777	-0.9187222434461422	-0.3913423234040807	0.05292093451540458	0.39327406774512974	-0.9188411596192204	0.032656255584586735
11														9.813548208329145	0.44849275791235627	0.3498398596359856	0.035706123779098986	0.050905067470432164	0.9980650013052771	-0.9185792119721563	-0.3916888504867124	0.0528400959216645	0.39362076172031946	-0.9186884774014688	0.03277464618400744
12														9.777262301231975	0.48148967703841467	0.37465215284166753	0.0355896580393833	0.051047200245515345	0.9980619016813204	-0.9185351590275114	-0.3917985103465247	0.05279288702607687	0.39373409538792004	-0.9186338283763221	0.03294467319185107
13														9.76404315749704	0.4664415827110353	0.3255523179671049	0.03539489027949183	0.05119627388843273	0.9980611921530883	-0.9184438971635914	-0.39202748761491313	0.052680705360635516	0.39396447746599905	-0.9185278387149082	0.03314513539967201
14														9.728795335219777	0.44245659134553356	0.3312722184755027	0.03523918324701608	0.05130065918281257	0.9980613419682642	-0.9184263772609502	-0.3920819692549774	0.05258059467584908	0.3940192755632777	-0.9184987597991344	0.03329923020194214
15														9.755361692492116	0.44921600002740697	0.31224808268614146	0.03513370100718466	0.05141123083316018	0.998059371178768	-0.9184951373363899	-0.3919287745384541	0.052521599158748544	0.3938683863207917	-0.9185579573619759	0.03345105714398994
16														9.74706003644392	0.41542732946420424	0.34888886042221273	0.03499810469729531	0.0515552282746054	0.9980567073594316	-0.9184168431940547	-0.3921203671208361	0.052460650267486086	0.3940629832971677	-0.9184681138322515	0.03362572033967509
17														9.763941119079613	0.46351873680804917	0.33270858086210126	0.03485167274845552	0.05171598911564407	0.9980535142848933	-0.9183092899716345	-0.39238042502535725	0.052398950454307036	0.394326525684524	-0.9183480051302508	0.033816159079084196
18														9.75873500626416	0.5026794355153226	0.371667385380426	0.03464015875059134	0.05188723400440265	0.9980519898026883	-0.9182259123966895	-0.392591384077025	0.052279813998828084	0.39453926700013026	-0.918248180012276	0.03404477491689062
19														9.772512892523265	0.4769846236440104	0.3542256838196347	0.0344380032591316	0.05207930500910268	0.9980489817244906	-0.9182573164017083	-0.3925328595717534	0.052167566851011316	0.39448387141460756	-0.9182623264330246	0.034304154960476396
20														9.750034844800197	0.48458591765968284	0.3600417319330225	0.03418278962348725	0.05223301240329409	0.9980497228639627	-0.9182124977684343	-0.39266014054866866	0.051998297723596154	0.39461037218427036	-0.9181991757998784	0.03453878580689418
21														9.75938871647775	0.4593778457858671	0.3080820211414296	0.033899904345481846	0.052350563386477034	0.9980532125084743	-0.918112194095052	-0.3929215416642262	0.051794412345132435	0.39486807358830245	-0.918080650383901	0.03474368793517402
22														9.73307967701969	0.43231353199151	0.38222723597487546	0.033639253385877976	0.05241474568916599	0.9980586631385856	-0.9179982572934999	-0.3932143835508796	0.051591163727900236	0.39515515970025994	-0.9179516016670171	0.03488920691589653
23														9.719005022644893	0.47265519227853525	0.35226540589933214	0.033456778726737246	0.052499044037997045	0.9980603660762847	-0.9181172441251628	-0.39295540599151113	0.051446816636830706	0.3948941250477743	-0.9180576775329227	0.03505325556363814
24														9.7148318609942	0.45430472969569746	0.37169767382046415	0.03317857771348781	0.052610940358756964	0.9980637609569226	-0.9180065982898049	-0.39324003119791506	0.051246105801741104	0.39517473031216277	-0.9179293909762503	0.03525004545641591
25														9.709423843949295	0.5100572046592687	0.3586690424613507	0.03288215348480111	0.05271688010802783	0.9980679809180729	-0.9178089878981506	-0.393728541580308	0.05103427552554235	0.3956582183091554	-0.9177138803007834	0.03543738404150659
26														9.696625713996255	0.47611455914718465	0.3610207696545868	0.032623664803131946	0.05277833180899971	0.9980732158445454	-0.9176881399550375	-0.39403616276090425	0.05083286557460831	0.39595981397191926	-0.917578307354812	0.0355791454535066
27														9.705059945608236	0.5075656443772627	0.32775170744419196	0.03237293497695887	0.052907267710526396	0.998074553379849	-0.9174599129164511	-0.3945875737107418	0.05067499249539836	0.39650889179476967	-0.9173338910650131	0.03576633935989321
28														9.713696404027699	0.5219141039506257	0.34618998201777473	0.03220062884589597	0.05300819101542986	0.9980747723428345	-0.9173543616443568	-0.3948467659340926	0.0505668528135052	0.3967670534129613	-0.9172165301152502	0.035912981070035765
29														9.722338136884694	0.5363483899427235	0.3642944442048411	0.032021643281356205	0.05306894409937468	0.9980773023838081	-0.9172222144929411	-0.39516995952587836	0.05043919437284278	0.3970869219732971	-0.9170738194172232	0.03602202294818485
30														9.709516915612404	0.5030462012979869	0.3659762781771164	0.03184749984768087	0.05308018908709122	0.9980822763078858	-0.9171275181325295	-0.3954083056836327	0.05029301423126248	0.3973195845129196	-0.9169704277253863	0.03608853612441809
31														9.678476060901122	0.4954705971214303	0.35302485771172926	0.03171712238320906	0.05309273647085172	0.998085760584613	-0.9170141720553562	-0.39568429816452394	0.05018908681853018	0.3975915396450966	-0.916850640791664	0.03613682446697292
32														9.696541370850364	0.4864731645698974	0.3161431439522985	0.031601412984892496	0.053093833605899754	0.9980893725165038	-0.9169294712674114	-0.39589290453362624	0.050091444990091494	0.397796047515086	-0.9167605210593217	0.03617252560186185
33														9.723251646853468	0.49298107184755513	0.29574345205417524	0.03145483222944834	0.053068584891690196	0.9980953455592361	-0.9166935835139916	-0.3964542655318098	0.049968883176534085	0.3983509350732017	-0.9165193618463425	0.03617722884742769
34														9.772586349729096	0.4729058227555177	0.3235243769791003	0.031365848352692294	0.05299675559313599	0.9981019624535947	-0.9165801137013141	-0.3967290588349933	0.04986931965834712	0.39861896433110394	-0.9164046037490763	0.03613202877083255
35														9.75882320634305	0.49669434790508415	0.3434503166709859	0.031235252577759942	0.05301227527181401	0.99810523376391	-0.9164030906023055	-0.3971499746928847	0.049772212488334355	0.3990360065594914	-0.9162213685960106	0.03617553312816729
36														9.749288132262855	0.5370661910156084	0.34609171804970845	0.03114373801814968	0.052988807285960504	0.9981093396440432	-0.9162935645150487	-0.39741299395137286	0.04968919265707533	0.39929459201266765	-0.9161086717966473	0.03617637693882364
37														9.744179453304996	0.5764451602194223	0.382505124977793	0.031114556670524263	0.05289158256590215	0.9981154065822605	-0.9163354892768012	-0.3973249595935058	0.04962003200184795	0.39920064560950064	-0.9161524747429838	0.036103844217264425
38														9.762290302340688	0.5673602258474086	0.34457430254209703	0.031036115397161557	0.05278180301276897	0.9981236600801406	-0.9162847336791824	-0.39745581021146315	0.04950924919264893	0.3993232354465797	-0.9161020468265919	0.0360276759256668
39														9.735676212849606	0.5591348203976805	0.36486412983906735	0.03097381354306339	0.0527406627234025	0.9981277700625786	-0.9162481446355547	-0.39754886225846964	0.04943925129792942	0.3994120182549632	-0.916064039580472	0.03600993003331626
40														9.704629006382984	0.5520826108745494	0.35135329334805154	0.030909460568394664	0.05272612586514597	0.9981305329958718	-0.9162404430886903	-0.39757455069205155	0.049375369271055125	0.3994346701226755	-0.9160537278420222	0.03602099402741821
41														9.669332789581832	0.5286801998090352	0.3553225176251574	0.03083918639732175	0.052700567171674706	0.9981340565285484	-0.9161312734966779	-0.3978340499893781	0.04931083441196732	0.3996904230822984	-0.9159425303417421	0.03601175929415973
42														9.728003028911576	0.4857335652182947	0.328988288380627	0.030874356179651175	0.0526678473880976	0.9981346963120737	-0.9161498779740638	-0.3977890465691928	0.04932824259671292	0.3996450615466175	-0.9159639579596328	0.03597016124962116
43														9.700429539042352	0.5351452856593114	0.3684235713130142	0.030878450390809664	0.05262923631727584	0.9981366062749737	-0.9161316566868896	-0.39783225049902204	0.049318232723990385	0.3996865133046105	-0.9159474133090518	0.0359308660466135
44														9.749547058908412	0.5335034143083005	0.3443034620549498	0.030911468563450784	0.05258363397710175	0.9981379877296588	-0.9161575141840034	-0.3977715022919879	0.04932789442660429	0.3996246868193179	-0.915976415308897	0.03587919010268764
45														9.749716984886106	0.5162733187315514	0.3956829655173688	0.03095268903693099	0.052549376582177176	0.998138514466909	-0.9161971427870362	-0.39767767956825756	0.049348340621319264	0.3995306328559232	-0.916019118902019	0.03583639512722614
46														9.762597912512211	0.5484451267096143	0.3948221942976812	0.030959089473020784	0.05254593061026147	0.9981384973816523	-0.9162531509901449	-0.3975486874786578	0.04934779006831708	0.3994016751086953	-0.9160753059985285	0.035837629107827784
47														9.78168850728862	0.4662157719291975	0.39026878191049763	0.030937220875233762	0.05256296129183685	0.9981382787293307	-0.9162633651150685	-0.39752689708602434	0.049333678569199235	0.3993799370430727	-0.9160837850291813	0.03586313837467492
48														9.768625641228416	0.45166898740553424	0.3395192168929868	0.030941359142583502	0.05256195931394125	0.9981382032201201	-0.9163258394199901	-0.3973831453103198	0.04933144873737633	0.3992362562514341	-0.9161462089952441	0.03586830687365056
49														9.741939066919892	0.4445572169183624	0.3601628335923549	0.03097623227949431	0.05256558949943013	0.9981369304030108	-0.9162469387530731	-0.39756001917206174	0.049371837939587715	0.3994145969533285	-0.9160692604582297	0.0358481489636896
50														9.750390231396025	0.47811700408068647	0.32508616669100826	0.03103293776655497	0.05257228106666506	0.9981348165638875	-0.9162444763516522	-0.39755889894392116	0.04942652552612026	0.3994158438628397	-0.9160693626216004	0.03583164156707158
51														9.794483122594722	0.4999388793017439	0.389595315000352	0.031121894307892917	0.05260458082021052	0.9981303450809508	-0.9162111355972538	-0.3976236458582972	0.049523643463963485	0.39948539735799937	-0.9160394065383242	0.035822101650181626
52														9.7633443353182	0.4945471679887689	0.37616065731568893	0.031201815613100148	0.05266608020280855	0.99812460679943	-0.9162273271805426	-0.3975743587475529	0.04961969562654217	0.3994420253679433	-0.9160572652746897	0.03584906006315769
53														9.789946684709433	0.5030160011119763	0.35591744016602256	0.03129471823124225	0.05273423642446362	0.9981180996853803	-0.9162480460373731	-0.39751284308899454	0.049729847295152396	0.39938722906913526	-0.9160800401100507	0.03587758866541757
54														9.808084542800763	0.4784372929485415	0.3707619365729393	0.03135713253168071	0.05281276069287383	0.9981119889808894	-0.9162691766165132	-0.39745331645781484	0.049816234494189315	0.39933385308772223	-0.9161013445818538	0.03592770843558074
55														9.83909438226771	0.48571086186139717	0.38501506535882485	0.03139922968446568	0.05289462481912133	0.9981063305281992	-0.9162874076326935	-0.3974025779248988	0.04988564595555878	0.3992887113217462	-0.9161186329967803	0.03598854383175393
56														9.883898094504099	0.4683251115718447	0.3797832922673272	0.0314259457986335	0.053040354748931706	0.9980977560834255	-0.9163638330948376	-0.3972168273092118	0.04996115989586902	0.3991111816604468	-0.9161907622708885	0.03612134830111663
57														9.875488507584942	0.41855559755681043	0.4682316745558577	0.03139597250915771	0.05325812231719068	0.9980871030713958	-0.9163820526264665	-0.3971675400600382	0.05001878393925119	0.3990717060057099	-0.9161994965780677	0.03633532627880387
58														9.866726054982802	0.40394045830707637	0.45361725366530603	0.03141585949681264	0.05348532970939773	0.9980743275317494	-0.9164271025401807	-0.39705040830986404	0.05012323803167468	0.3989666771823008	-0.9162370287031887	0.03654172589337479
59														9.782007548633212	0.4008101558281328	0.4320693612851017	0.031338394916940515	0.05375769051248175	0.9980621301876925	-0.9165024348740194	-0.3968726205663332	0.05015386241164016	0.39879968890913686	-0.9162981140194364	0.036831703332864674
60														9.746435877831603	0.3957158262623031	0.3871430478942684	0.03125854968114483	0.054033742795901174	0.9980497270734048	-0.9165197404138106	-0.3968282025724482	0.05018907326222871	0.3987661827482776	-0.9163011144174094	0.03711871783589571
61														9.719610551910579	0.3886248083405379	0.41061031370722284	0.03120843726869288	0.05429279977707818	0.9980372364474248	-0.916624768760748	-0.39657954200505996	0.05023644252296117	0.3985286272497271	-0.9163934519383166	0.03738949728232599
62														9.750341282824644	0.4303069717146083	0.32367950542716517	0.031092253554901916	0.05454156405594773	0.998027299004997	-0.9166147060618688	-0.3966036043990444	0.05023008668916851	0.3985608515647175	-0.9163682659106099	0.03766229987653402
63														9.714013093009155	0.4463039941392514	0.4015879020554377	0.03094683644340318	0.054855771843858925	0.9980145978940191	-0.9166876377747812	-0.3964368995133898	0.05021513173439662	0.3984044026677385	-0.9164216436769844	0.03801714002048867
64														9.691482232970849	0.4374955356103379	0.4601061393275696	0.03074768590507082	0.05518483282377873	0.9980026122399153	-0.9166894151723797	-0.3964392995194385	0.05016371106145412	0.3984157325237086	-0.9164008489862655	0.03839776106556525
65														9.722321062710858	0.4611060801310115	0.42576042516633533	0.030531935445058	0.05550501933069202	0.9979914797968359	-0.9165459469649659	-0.39677795088041873	0.050107731910651154	0.39876224497822316	-0.916234931949353	0.038758501721454564
66														9.789551006849457	0.43365312359684627	0.4197013895235879	0.030387744602470457	0.0557625772716136	0.9979815228520024	-0.9164802093203245	-0.396932656462179	0.05008484958599396	0.39892431726099237	-0.916152280578892	0.03904341030117636
67														9.78410651809025	0.49111531690110033	0.40791912506123545	0.030203614812200963	0.05608802978652544	0.9979688745481708	-0.9163219094900374	-0.39730086900534145	0.050061738644725684	0.3993017653865413	-0.9159727902084576	0.03939476814153303
68														9.715603068354985	0.5922299657191843	0.3879332831932758	0.030018505549112395	0.05636387336591148	0.9979589185451421	-0.9161453163385258	-0.3977131538386115	0.050020062122386966	0.3997207133431797	-0.9157769166357801	0.03969874407941826
69														9.647101204032026	0.6758526996154985	0.4192371701254678	0.029811569344520505	0.056652860738142186	0.9979487580549424	-0.9158548257202268	-0.3983872509670129	0.04997535864723429	0.4004013093612335	-0.9154660297559551	0.04000924673970746
70														9.6267920478734	0.8324487432848926	0.39391411752999794	0.02974984491131799	0.05690142044093549	0.9979364584378894	-0.9156787990881619	-0.39878407967449336	0.0500359340737247	0.4008082878736607	-0.9152778191073856	0.040239659812347506
71														9.638387239727656	0.9045198444205871	0.46612831253486764	0.029724911881636673	0.057135284482589754	0.9979238392185659	-0.915530284541684	-0.39911417084492523	0.05012161926545	0.4011492586315621	-0.9151193571867339	0.040445449700637626
72														9.629642219696668	0.8900369413389742	0.45138139750303724	0.029759803433928367	0.057350568928128176	0.9979104500621252	-0.9156242578958455	-0.3988848984882951	0.05023003195961989	0.4009321294836021	-0.915205851162241	0.04064083594294776
73														9.62619549563914	0.8180540863182368	0.4517978127005272	0.029856216541708835	0.057547975603473356	0.9978962054431095	-0.915881034281089	-0.39827718711552096	0.05037075806011776	0.4003380288931058	-0.9154580890064221	0.040816049474348304
74														9.601447709480961	0.7161452889770724	0.3845489119030865	0.02992726294215997	0.05779823301772635	0.9978796135771189	-0.9161432396900189	-0.39765619252362616	0.05050858261612606	0.39973231455946623	-0.9157122456359541	0.041050699010985736
75														9.625888747703819	0.5952741371203892	0.34579875927358117	0.0300320681553925	0.0580805240042484	0.9978600741655628	-0.9164964817042114	-0.39681949827576285	0.0506802211121305	0.39891386777863774	-0.9160572790604113	0.041313285687824275
76														9.662124394623788	0.5632677201859697	0.32503228716756777	0.030162813369750796	0.05825429705978219	0.9978460009258405	-0.9166773102503329	-0.39637986042325146	0.0508499274636548	0.3984882853508203	-0.9162365650447022	0.04144446058581058
77														9.706903917040933	0.5470230418852295	0.3205192112871301	0.030334556445357597	0.058459749048183574	0.9978287791131738	-0.9169158209040189	-0.3958003247963351	0.05106349250712339	0.3979261138216149	-0.916473982517965	0.0415962414947329
78														9.729179011408297	0.5402547610166356	0.31958193991285827	0.030492739460628582	0.05877256257440644	0.9978055816283171	-0.9170503414870901	-0.3954556122416001	0.0513179298591957	0.3976039034247505	-0.9166027736348278	0.04183887362660427
79														9.806054926919526	0.47457975332417146	0.31034190639347675	0.03067978055493925	0.05905054965822104	0.997783435245426	-0.9172210259744615	-0.39502531153409337	0.051580934052700145	0.39719559485907857	-0.9167704379136878	0.04204311587035692
80														9.814249959166647	0.4748667986638988	0.3808657717695463	0.03083441595228703	0.05930182169390524	0.9977637659970752	-0.9172778977892107	-0.39486250138503265	0.05181566584887198	0.3970522598100762	-0.9168243555576716	0.04222089572678939
81														9.822551186051648	0.49285165172685647	0.39943976041385615	0.031019354445605662	0.05954110746051239	0.9977437828281137	-0.9173389488353905	-0.39468680290859237	0.05207283897940501	0.39689677826779973	-0.9168844987958789	0.04237644709589694
82														9.853352639024058	0.5014645718210633	0.4147073576563487	0.03113558894690871	0.05970871247248932	0.9977301462599024	-0.9174246640290235	-0.39446592692558824	0.052236178324696125	0.3966895019182663	-0.9169686484005948	0.042496316525362565
83														9.826421833403257	0.49532057515210626	0.43672683983623706	0.031194591558044382	0.05991170186885558	0.9977161346979934	-0.9175834029723131	-0.3940809988394398	0.05235327060900158	0.3963175444605963	-0.9171209049699429	0.04268078747910464
84														9.764379056905005	0.48320985819254175	0.41077388099846596	0.03120268796707143	0.06005092543168761	0.9977075115575846	-0.9177649359907858	-0.3936523560372309	0.05239603851596586	0.3958963431625239	-0.917295867722697	0.04282962210206798
85														9.711955244007726	0.41171649280004996	0.4336000939505569	0.03117030690650785	0.06015408595968763	0.9977023092634945	-0.9179035750087253	-0.39332949993948824	0.0523920935213939	0.39557734888837665	-0.9174275941019583	0.042955449325282336
86														9.658474540888244	0.41406284314755815	0.42371022027706895	0.03112941746076353	0.06017107008736888	0.9977025617352575	-0.9180552153534485	-0.3929817191158209	0.05234491382272238	0.39522851735532405	-0.9175755068468838	0.04300707271830201
87														9.664023713454482	0.37371244651124524	0.38728422774525423	0.031087091893415908	0.060160160646023086	0.997704539324471	-0.9181641403604455	-0.3927344673944404	0.05229005141103965	0.3949787387616886	-0.9176820763158937	0.043027929705899415
88														9.668188287090002	0.37217211494862207	0.4218008033430723	0.031061487252451836	0.06016010264102173	0.9977053402983704	-0.9182706863716421	-0.39248995133708253	0.052254996411515764	0.39473298641007787	-0.9177866855373508	0.043051937124187256
89														9.668189167562463	0.37185753785962594	0.42205798708906306	0.031054789068783395	0.06014486755671816	0.9977064673452198	-0.918436414551614	-0.39210601050946525	0.052224792464180714	0.3943477557961615	-0.9179517805576367	0.04306246706350031
90														9.676825704601464	0.40487765276643106	0.3871949812198435	0.03107296514448249	0.060070338512755506	0.9977103914804599	-0.9185088923549027	-0.39193894085615877	0.052204226893252215	0.39417747969930933	-0.9180280066923424	0.042996435042746306
91														9.658692056388347	0.43032706172520996	0.3719536673208366	0.031112069418700095	0.05991915488585842	0.9977182638471896	-0.9185373188701199	-0.39187587308311517	0.052177523304940965	0.39410814883655665	-0.9180648097891076	0.042845910510944274
92														9.693907344586606	0.4350397933162675	0.41853596507295143	0.031111496307799746	0.05970852508903257	0.9977309090276706	-0.9185825189335733	-0.39178163920256104	0.05208937601282465	0.39400283083645593	-0.9181187500620203	0.04265829435657781
93														9.723805054410136	0.49667725709258337	0.4498742531865071	0.030994798596267414	0.05940518466981887	0.9977526479515458	-0.9184962715546741	-0.39201252016588595	0.0518727594538127	0.39421304088035825	-0.9180398728092019	0.042413091520488555
94														9.719714000228263	0.4779568997332745	0.4649025760803589	0.03088417058761278	0.059076810307616856	0.9977755752126795	-0.9186478652201033	-0.3916897055451791	0.05162629462277929	0.39386833806954125	-0.9181988374278247	0.04217377398963601
95														9.729836278436144	0.4702719698440539	0.35676273140949716	0.030756810656107192	0.058737502853454915	0.9977995411688687	-0.9187247642108246	-0.3915432292055465	0.05136834909803423	0.3936989030007945	-0.9182830747769629	0.041920977495017164
96														9.725748016208248	0.4511714016685421	0.3714737934722829	0.03064423533109839	0.05834785943611237	0.9978258656399904	-0.9188393458083015	-0.3913093619929899	0.05110029169400232	0.3934401955005934	-0.9184075949794096	0.04162093281741708
97														9.818910473313798	0.4681437918780269	0.4103394212955528	0.03061703120743009	0.05802276042199306	0.9978456577412433	-0.9190331813448349	-0.39087645100442625	0.05092751355972236	0.3929893242662383	-0.9186125185970393	0.04135736560238146
98														9.828797925823883	0.44336528898880756	0.35418084453079773	0.030552966507869983	0.05781660789127363	0.9978595873616265	-0.9191738310149792	-0.3905656613513631	0.05077334488113511	0.3926652322460129	-0.9187576960358586	0.04121057340132056
99														9.807484844299049	0.37683966187029194	0.3876744308053638	0.030573154886633425	0.057601615296997144	0.9978714025942697	-0.9193276323713164	-0.3902141268792965	0.05069161215012008	0.3923034368429977	-0.9189205564677532	0.041024679671718634
100														9.794817756914135	0.3621406405361318	0.33470981280201745	0.030613480736526477	0.05739544264142693	0.9978820461162683	-0.9193413664419011	-0.39018762694049036	0.05064649771986168	0.3922681056954969	-0.9189447094066894	0.04082100326453347
101														9.786282975062543	0.3286898883558463	0.3679220681357987	0.030647580019162457	0.057307341253660216	0.9978860628736155	-0.9192551869882797	-0.3903898730412715	0.05065222820333587	0.3924673579217918	-0.9188643075368943	0.04071556582723146
102														9.754177777087374	0.37937218695700425	0.3730000462357615	0.030752543873540483	0.05727809381359006	0.9978845128642826	-0.9191577715358712	-0.3906068763264873	0.050747011652651774	0.39268724459869603	-0.918773904796792	0.040635449965985115
103														9.762742155625519	0.41371487285147474	0.337667326224916	0.030836104812298593	0.05725386015098288	0.9978833249121952	-0.9189344069092962	-0.3911203697186771	0.05083711429051091	0.39320311600782887	-0.9185569399274811	0.04055191330624114
104														9.751907643263413	0.49440138518156984	0.41076966741007753	0.0309437134165092	0.05721742788299128	0.9978820834880502	-0.9187380431417032	-0.391567829975539	0.050941560757418736	0.39365326708177006	-0.918368553727044	0.040451265012933446
105														9.778629481930984	0.5030682198029036	0.3898549924718189	0.031026841735584343	0.05724828731800141	0.997877732335515	-0.9185936229906444	-0.3918931037783975	0.051044598263237595	0.39398361754371986	-0.9182278741195395	0.040428706349252996
106														9.742169589720769	0.5374341236491722	0.412935934127008	0.031083985412447557	0.057278341884573925	0.9978742292502762	-0.9184506958455719	-0.3922176958887321	0.05112336386153504	0.39431219249683824	-0.9180873981177871	0.04041564382325841
107														9.737866986446742	0.5214026134980281	0.4299755299237073	0.031093542840026134	0.057247918306053136	0.9978756773482751	-0.9182349095361155	-0.3927201588303413	0.05114223066579132	0.3948136807442935	-0.9178744754583248	0.040355976004156635
108														9.733627557866761	0.5227922042989278	0.39535221871424026	0.031075145877024257	0.05722846858552921	0.9978773660586138	-0.918090386606996	-0.39305916756619286	0.05113250250073825	0.3951510816492068	-0.9177305667653914	0.040326535878193626
109														9.729351261585157	0.5060624685350085	0.41269670979902534	0.03107330669566638	0.05722278162847538	0.9978777494631779	-0.9180654274343275	-0.39311763996368915	0.05113112652000412	0.39520921112851415	-0.9177058757641683	0.04031879248065923
110														9.706847110132495	0.49728186961225257	0.4672950593603087	0.03108313278182595	0.05719184331931004	0.9978792170970426	-0.9179293674439135	-0.3934338494489859	0.05114178811666059	0.39552435480066717	-0.9175722855260462	0.040268915977757946
111														9.73361502632688	0.5049497511265602	0.4464556919231301	0.031142317364881822	0.057131628984104565	0.9978808210596928	-0.9179862893499804	-0.3932978165226618	0.051166396042322704	0.3953875676277621	-0.9176343522820667	0.040197846674574156
112														9.746488646197337	0.5546459825922574	0.39391056843634764	0.03111342187616134	0.057075898838772676	0.9978849115759303	-0.9178294888286376	-0.39366781977511356	0.05113391350239771	0.39575369160087187	-0.9174791493245256	0.04013759009989404
113														9.756178172555174	0.5132504558638944	0.39096695382369123	0.03103575547195031	0.05705291522973549	0.9978886444619333	-0.9175894534307565	-0.39423421823589355	0.05107813744235401	0.39631600628151703	-0.9172373444402071	0.04011579650643954
114														9.737979124004031	0.5205614875164362	0.4284523770646363	0.030923822468409856	0.0570645442780085	0.9978914545131076	-0.9174914434479255	-0.3944736226080815	0.050990315416741316	0.3965515961432814	-0.9171336864671367	0.04015759882532527
115														9.747605239506074	0.46113353341826485	0.4778980907361206	0.030822227667782698	0.05707322400055076	0.9978941012871951	-0.9172842555067537	-0.3949639982046381	0.050921849157582744	0.3970385181327076	-0.9169220726018052	0.0401786995134743
116														9.734850345020671	0.4463804912536097	0.4267503195873687	0.030782214965876575	0.057016696758217966	0.9978985677575531	-0.9172064290663507	-0.3951512767253421	0.05087076745720853	0.39722137621375286	-0.9168448968026781	0.040132449286563954
117														9.75310497513103	0.4379920281309603	0.38920650281673125	0.030736316744507886	0.05697756094112788	0.9979022178461083	-0.9171306766512932	-0.39533346841644185	0.05082096708020867	0.3973997996704613	-0.9167687856264668	0.04010477431492421
118														9.734951272236282	0.4632779674951805	0.3746224215494525	0.030718206986126817	0.05692728706401884	0.9979056447115076	-0.9169866535888184	-0.3956702385784653	0.05079901025848721	0.39773341436135207	-0.9166266122532076	0.04004728217582121
119														9.752050992035617	0.49394638202078245	0.40790369070496774	0.030687142306317527	0.05686994186427036	0.9979098701833884	-0.9168591019159975	-0.3959706272944124	0.0507607087604231	0.39802975583599626	-0.9165004484627515	0.039990516834784384
120														9.738163493952998	0.5180778567154664	0.4272706370646419	0.03066058334541716	0.05678341440835011	0.9979156139058301	-0.9167430163730748	-0.3962453254966605	0.05071374521018368	0.39829909686078446	-0.9163870829895937	0.03990668577705081
121														9.759579792149355	0.5651906616599047	0.44289554378322227	0.03062789775616087	0.05670652320513453	0.9979209899110366	-0.9166708094453304	-0.3964191383844874	0.050660574743512654	0.39846776405360634	-0.9163166684877482	0.03983972968825561
122														9.769280066072163	0.5232674786479569	0.44001805586578846	0.030520723164258468	0.056626100728534356	0.9979288402355211	-0.9166574832056552	-0.3964663543197413	0.050532052951439754	0.3985066422791525	-0.9163012139076838	0.03980629913343259
123														9.783273061622813	0.49750029820904546	0.41999207949737016	0.030415905924024156	0.0565560626288697	0.9979360122005521	-0.9166773367533508	-0.3964364333255535	0.050406493777069405	0.3984689861828706	-0.9163184850869447	0.03978568760700224
124														9.73519496435157	0.44124787678755717	0.42421931206431485	0.030299970363284967	0.05649821193992144	0.9979428159186159	-0.9166422724698916	-0.3965334226160418	0.05028110052138246	0.3985584726451287	-0.9162800864342737	0.03977369842977718
125														9.784470865714901	0.4383835010714772	0.4007465608976161	0.030176041818936405	0.05643926115440856	0.9979499067089925	-0.9166556588935163	-0.3965199484022097	0.050143130512594336	0.3985370867543396	-0.9162895504803348	0.03976996557592999
126														9.748145988528815	0.47056870385298055	0.42408419043198753	0.030005848926197898	0.056429832055407025	0.997955571698669	-0.9165482103194169	-0.39678698827139147	0.0499946407007103	0.39879697490138094	-0.9161745248546904	0.03981473115305617
127														9.783495479969412	0.49217735174498023	0.42108123246301116	0.029796480168224726	0.056452625707828885	0.9979605557437009	-0.9163487200161442	-0.3972678619749407	0.0498324108049536	0.3992708267509145	-0.9159647083226248	0.03989310733811019
128														9.724782998089703	0.5511532208479684	0.3958325419731158	0.02965477145888129	0.0564010430075324	0.9979676933034378	-0.9162513042247609	-0.3975100418664187	0.04969219377108891	0.39950487110440464	-0.9158628112130228	0.03988945977112934
129														9.73874595273334	0.5256435868431646	0.3758529617819295	0.02954170388558547	0.05636406966631313	0.9979731356014487	-0.9159816063176324	-0.3981424689551373	0.049601121984061414	0.4001312092542977	-0.9155903374681053	0.03986664414939983
130														9.781658820366118	0.6380227567752419	0.3564931626785326	0.029529345886601333	0.056372581553516654	0.9979730205674407	-0.9159079562293552	-0.39831193648219737	0.049600574306831624	0.4003006787994182	-0.9155161021548415	0.03987020501490929
131														9.785866611574896	0.6372900181498294	0.39111916421748305	0.029494277571568916	0.05646219309671163	0.9979689916732091	-0.9157005636800102	-0.39878545035065893	0.049625016521250176	0.4007774510456439	-0.9153044222221001	0.03994057328112299
132														9.7376123292201	0.5828857767764866	0.3963713582038537	0.029495591420584666	0.05659660848553172	0.9979613389278588	-0.9156684751758923	-0.3988518894439248	0.049683134523364925	0.40085066253631857	-0.9152671709369598	0.040059357823707564
133														9.728988722600926	0.5680327337833118	0.38050720019136525	0.029560738527982244	0.056662390255806605	0.9979556785089105	-0.9157383307555556	-0.39868165778459125	0.049761886330400684	0.40068625172659705	-0.9153372653162493	0.04010259842779945
134														9.787691747880965	0.5083534591003277	0.40672513892896045	0.02959753587202485	0.056704104337406636	0.9979522185062755	-0.9157464683837253	-0.39865679254420056	0.04981131800209232	0.40066493671525527	-0.9153455119842251	0.040127324571889056
135														9.793027901430026	0.46855851546270144	0.3706301541573732	0.02958946700665266	0.05676081059147964	0.9979492340912233	-0.9158126165115751	-0.39850372887894314	0.04981997097349017	0.4005143129533373	-0.9154086456061985	0.04019075352540946
136														9.7619116574413	0.4443879259040769	0.40950057866788386	0.02950898691867071	0.056837409105460146	0.9979472574325821	-0.9157993406414373	-0.3985394264574448	0.04977844151517058	0.4005506052569912	-0.9153883517311925	0.04029116706064079
137														9.730979307681201	0.4549783661324515	0.3452318103085748	0.029377872423273776	0.056919696841737755	0.9979464357986988	-0.915752160827038	-0.39865805860911085	0.04969640074115583	0.40066809275570303	-0.9153315794931689	0.04041260979011285
138														9.748045546307578	0.48553397280476535	0.3798043467373682	0.02932615584944326	0.056964488669772884	0.997945401118561	-0.9156542631569987	-0.39888528153096037	0.049676981997504144	0.4008955561558497	-0.9152297958483202	0.04046200496681007
139														9.711772977226875	0.5363840813093644	0.3513114380792764	0.02924783506775408	0.056942424061032615	0.997948958858069	-0.9155019326405456	-0.39924285174262847	0.04961206167698101	0.401249019282635	-0.9150752459084817	0.04045391019736466
140														9.737410953971546	0.5825408870347114	0.40178827331871864	0.02921394592988008	0.05693955288524971	0.9979501153266301	-0.9154004446528976	-0.39947820421858227	0.04959022366933524	0.40148296513362064	-0.914972705424334	0.040452157371287545
141														9.754483276042803	0.6135528403086002	0.43557748914512373	0.029175259707208634	0.05697389501851896	0.9979492870418998	-0.915257145907876	-0.39980729188334513	0.049583124361772646	0.40181234561121476	-0.9148268167491183	0.040481282972372246
142														9.799355587161639	0.5957201350524376	0.43014049110923064	0.029183269107396215	0.05707291659496666	0.9979433946850644	-0.9152541683980255	-0.39980824215675126	0.04963040130372176	0.40181854615515844	-0.9148202291679353	0.04056851329396055
143														9.728728535466868	0.5680971582451182	0.38700824234382625	0.029210891486151414	0.0572412019685421	0.9979329479558141	-0.9152232768625891	-0.3998670578517267	0.04972614537553838	0.4018868961629498	-0.9147840077538529	0.04070800720140899
144														9.670940411285873	0.572954054751404	0.34338684275307296	0.029291802897424724	0.05740788587876389	0.9979210013432674	-0.9152275390407185	-0.39983984819307195	0.049866297019245276	0.4018713003742477	-0.9147854559599603	0.04082924809054378
145														9.72535616719751	0.5150470426448263	0.33630674792764054	0.029324993913358244	0.05758988725268849	0.9979095397971722	-0.9151520090634944	-0.3999988508386415	0.04997719114572613	0.40204084996307493	-0.9147045010351644	0.040973537154844475
146														9.747703794527814	0.5073302562394134	0.33464643231450064	0.029405857605420194	0.05775657772238296	0.9978975264366017	-0.9151562542150528	-0.3999716052602369	0.05011731593594054	0.40202528018715866	-0.9147059050401651	0.04109478525420268
147														9.72499263724735	0.5002392423088657	0.3905028088154173	0.02950443787506285	0.057888224011275746	0.9978869884242894	-0.915183124604015	-0.3998925599333511	0.05025722783823472	0.40195688398845664	-0.9147321433243573	0.04117972053716312
148														9.710930082265433	0.5263050886253231	0.4110711845019704	0.029642401433063126	0.05798635477483194	0.9978772022133826	-0.9152073092505993	-0.3998167279599255	0.050419888314993055	0.40189166342630017	-0.9147590757698696	0.04121800777688267
149														9.692671591387816	0.5537236990872797	0.39683373746423245	0.02986628776593392	0.0580362192388682	0.9978676275496372	-0.915279246757126	-0.3996246088558908	0.05063667102491465	0.4017112212906077	-0.9148398598952908	0.041184043463143916
150														9.764166011640626	0.5277012505860029	0.4218849521735971	0.030093538377346962	0.058095498742359974	0.9978573505134928	-0.915316702779396	-0.39950995510713555	0.05086383178005066	0.40160890498218016	-0.9148861725898862	0.041153112189032726
151														9.772672012553844	0.562881566212175	0.3871293618258606	0.03028831616776967	0.05818980032103144	0.997845962582562	-0.9154477352055665	-0.3991838281480208	0.05106579532417266	0.40129547967890206	-0.9150225234843621	0.04117911491994458
152														9.75111550095507	0.49963652391114877	0.4230568708974914	0.0304586667194644	0.05829194310319091	0.9978348154834683	-0.9155609558487421	-0.3989004028259187	0.05125041219988058	0.4010241959620523	-0.9151396166676287	0.04121985272190315
153														9.734011108892323	0.4703604046601398	0.38991506272999465	0.03065853002354202	0.05837417299993847	0.9978238874988756	-0.9158244883101172	-0.39827074703718846	0.051438494009367175	0.40040674463388787	-0.9154085798052217	0.04125010146265673
154														9.733940795381335	0.4717880261293083	0.3899454858896361	0.030806341422502825	0.058360072874703184	0.997820159759373	-0.9159218341573627	-0.3980313985277496	0.05155772977796158	0.40017266653530165	-0.915513575912506	0.04119137382903337
155														9.733882733069228	0.47312910723329105	0.38977000314809995	0.03096834736693993	0.05840698421450513	0.9978124000313522	-0.9160621456237743	-0.3976886186233854	0.051709844058847765	0.3998388510594329	-0.9156595365158331	0.04118866799354598
156														9.756309811777866	0.4653818410588324	0.3865859594761354	0.031100994343358612	0.058392010813672124	0.9978091507016706	-0.9161585620022072	-0.39745275477173814	0.05181502672394639	0.3996075792836031	-0.9157628955125292	0.04113516478156315
157														9.752066860634326	0.46774997997185797	0.35201678561913335	0.031247163280614887	0.058419188537439826	0.9978029931792856	-0.9162058827364099	-0.3973254582014708	0.05195440986275551	0.39948766592488244	-0.915816400090989	0.041108710734723386
158														9.7421927130258	0.49285185971445844	0.405879631583451	0.031448787612723794	0.058443424230049335	0.997795239476495	-0.9162767740357536	-0.39713751700049493	0.052140828084273616	0.3993092124160448	-0.9158963690041291	0.04106085879191951
159														9.759173762310386	0.5433332984782292	0.38759413707927864	0.03161300979765058	0.05847484409969961	0.997788209100032	-0.9162689699003411	-0.3971340584040508	0.05230405771348268	0.39931415252818303	-0.9158958632197458	0.041024082289006836
160														9.740802607292483	0.5529558351619268	0.42452848095357537	0.031797404766483794	0.05848537088588346	0.9977817328666914	-0.9163462957437657	-0.3969338826052141	0.05246864889274011	0.39912202560970744	-0.915981961739581	0.04097138563574959
161														9.780179808316975	0.576529571166896	0.4548237174446208	0.03196372013492271	0.05849678533728053	0.9977757497054844	-0.9164085091002144	-0.3967703640733265	0.05261865298392948	0.39896586952251895	-0.9160520751018062	0.04092469496302131
162														9.76315646959491	0.5468961730830614	0.42080093077443215	0.03209828090734579	0.05849686132537241	0.9977714255168231	-0.9165441163641692	-0.3964425287077016	0.05272764161298327	0.39864342854362605	-0.9161939961858095	0.0408898304234625
163														9.763093149543868	0.5480707296329563	0.4207419001194503	0.0322419943895802	0.058530661424878894	0.997764809697631	-0.916709345371792	-0.39604328999380634	0.052855355063642195	0.3982517167644155	-0.9163644875943466	0.04088637878496748
164														9.701075480982237	0.5361821389163896	0.3935423030072418	0.032321585312424295	0.05861462432411363	0.997757305630099	-0.916864499867976	-0.3956719244944111	0.05294541574806522	0.3978879289507764	-0.9165195327881628	0.040952924352600506
165														9.682715006396116	0.5447695720027887	0.43148567516479347	0.03239935809502065	0.05865302710219461	0.9977525264346772	-0.9170660569890028	-0.3951957609720633	0.053010919897284736	0.39741681986759847	-0.9167224950449631	0.04098461131771064
166														9.710642026736776	0.47868834807613936	0.44361956817366877	0.032468546550852406	0.05868769098958826	0.9977482389917742	-0.9172561713634095	-0.3947465999772258	0.05306823816710354	0.39697217733818	-0.9169137782434789	0.04101479838611727
167														9.728900308246372	0.47149021906473393	0.40645521675506374	0.03257093443025422	0.05867594902291651	0.9977455924415802	-0.9174849356877334	-0.3942058106663184	0.053133526355647165	0.396434770191031	-0.9171471593169608	0.04099464770446948
168														9.693624224986674	0.44915731611861687	0.4100956798439492	0.03267041235244522	0.058724947504745384	0.9977394573220433	-0.9176286506767031	-0.3938582733641474	0.053228939120228635	0.3960938065837103	-0.9172933233394739	0.04102018214061093
169														9.720317715291422	0.45810584211452343	0.38993563380419366	0.032813749862432906	0.05878617439686051	0.9977311479149815	-0.9176791504587829	-0.39372029220064947	0.05337891271542511	0.3959649411667798	-0.9173486344946595	0.041027407395196724
170														9.787725755685695	0.4328442715551237	0.3810903819520782	0.03295619474104006	0.05889635879983074	0.9977199547710331	-0.9177351317492535	-0.39356697931914286	0.05354680889451463	0.3958233408749046	-0.9174073532023421	0.04108078758862943
171														9.796149816607356	0.46775825959359635	0.34709049263217845	0.033081522356576076	0.05900168860714955	0.9977095838068696	-0.9177727796488295	-0.39345843434385097	0.05369902586962938	0.3957255839773731	-0.9174471435375398	0.04113393976482882
172														9.79599660921752	0.45126653444825027	0.39936371344137256	0.03317426503915899	0.05910991896293949	0.9977000980351296	-0.9177466142663232	-0.3935016730773627	0.05382922336442908	0.3957784988371816	-0.9174216319476621	0.04119379920177352
173														9.812749599642313	0.465401464290982	0.4856518656793181	0.03323005398781781	0.059232146113819883	0.9976909924313833	-0.9177414867772554	-0.39349997419887495	0.05392896951878701	0.3957857083825036	-0.9174144773068695	0.04128377245267123
174														9.802911364737668	0.5253576258357607	0.43796958507873934	0.03325951217569545	0.059398883102739775	0.9976800977948708	-0.9176694393771231	-0.3936542206434148	0.05402920139057277	0.39595025556641855	-0.9173375209026248	0.04141579241201493
175														9.74791788668234	0.5670933296438344	0.4998354510317271	0.033247836349355575	0.05954072381348907	0.9976720320755974	-0.9176922633518992	-0.3935951193010727	0.05407209859476991	0.3958983343765854	-0.917353685483489	0.04155387548358391
176														9.729591121189234	0.592762454542067	0.4871101095786803	0.03316060445476032	0.059668473056064986	0.9976673030802163	-0.9176499330437424	-0.3936972174645708	0.05404721403984697	0.3960037559127559	-0.9173015721581488	0.041699532601437994
177														9.645136528663537	0.5880986480865827	0.46422287895907105	0.03298540812646672	0.05980230532032771	0.9976650976801311	-0.9176604064068256	-0.39368767699184304	0.053938775459095534	0.39599411784014027	-0.9172969515174142	0.04189225910438038
178														9.581776636366966	0.6125322591098918	0.5092906067030532	0.03279907834328849	0.05985874851191392	0.9976678558951462	-0.9176435696190486	-0.3937469296521571	0.05379251366416399	0.39604860761861144	-0.9172678374477579	0.042014459264311244
179														9.569248985731361	0.5962863061630576	0.45910459098430084	0.03248735815646231	0.059809264732083256	0.9976810228786659	-0.917575001399932	-0.39394716172863276	0.05349533224374797	0.3962331237616667	-0.9171850879828791	0.04208118363247032
180														9.66777392693053	0.5545782391290559	0.5157827947766044	0.032079740992145334	0.05963540399143802	0.9977046200197002	-0.9175456577472532	-0.3940747358019363	0.053057219601049754	0.3963342732682058	-0.9171416036760143	0.04207639052427298
181														9.82566653320596	0.50451803979547	0.4431481479268313	0.03147724180754985	0.05943761020621646	0.997735613146671	-0.917487677540505	-0.3942930125434774	0.052434547969065215	0.3965167648530388	-0.9170606254508825	0.04212201844780106
182														9.901912398558906	0.48606620639706477	0.4518921895163199	0.030679709872725613	0.059252303344915824	0.9977714768174359	-0.9173789695812844	-0.39465013574179586	0.05164393990549726	0.39683067115850035	-0.916918990373361	0.042249065322086554
183														9.972814841154934	0.5236853224684958	0.4466413829262684	0.02975735818203712	0.05906041160664899	0.9978107873814956	-0.9173083524657066	-0.3949323854692208	0.050732606913529044	0.39706408315368674	-0.9168098378008631	0.042424464414747676
184														9.967922703607785	0.5718114234058187	0.4339264270150021	0.028715031274582248	0.058872440597040776	0.997852435341543	-0.91705158897236	-0.3956551484714088	0.04973315444788895	0.3977333656385518	-0.9165102504752557	0.04262781523389114
185														9.95882854301521	0.6027239938685467	0.4381083600347415	0.027634609855166137	0.05858634160061821	0.9978997789938666	-0.9166922355351002	-0.39661879640504794	0.048671096637233735	0.3986372707710765	-0.9161119860126634	0.042745238753814696
186														9.909032357496741	0.6506668045643685	0.48216741889237813	0.026606057755464207	0.058335469054069	0.9979424285703832	-0.9163952962690989	-0.39742650040591093	0.04766379916645924	0.3993892570745775	-0.9157778932827282	0.04288439702344876
187														9.83370611311616	0.6530931017861484	0.4757635318622306	0.025638408615931585	0.05814529166664517	0.9979788560188254	-0.9160929990803828	-0.39823268489953595	0.04673698443007096	0.40014533489665016	-0.9154397051333898	0.04305644232562672
188														9.709942001790445	0.6017587399550249	0.47397388093482923	0.02475750234150309	0.05807686363713649	0.9980050821453185	-0.9158930611411956	-0.3987864104703114	0.04592710939754807	0.4006581668095891	-0.9152029702389944	0.04331924092711842
189														9.511082366514119	0.5070798429874126	0.4453574444815221	0.023985502931821612	0.05803981881680792	0.99802608937884	-0.9157353798837118	-0.399228545914135	0.045224795815126895	0.4010653434022218	-0.9150125395638018	0.043573418074101034
190														9.39326261927643	0.36128473429509667	0.3875352718964369	0.023297817564443213	0.05793987370962761	0.9980481865778058	-0.9155597953625347	-0.3997039038042265	0.044576343494903026	0.4015065040724096	-0.9148113249835588	0.04373519028629114
191														9.350728754628587	0.18643004921484435	0.3884922657146688	0.022714448876032967	0.05775119231166087	0.998072569304878	-0.9153741903512966	-0.4001938131575056	0.04398867523766137	0.4019628657612131	-0.914609048554101	0.043773768994637696
192														9.334108816574258	0.07588606293559164	0.3874555828931688	0.022165603316755766	0.057480444383054996	0.9981005382941794	-0.9150714880096481	-0.40094831042900825	0.04341225859054576	0.40268208038279146	-0.9142956036630879	0.04371145457356507
193														9.374846475764802	-0.0383268740452002	0.4314927882821381	0.02164413686350386	0.05724873097008254	0.9981252998204933	-0.9146602655246188	-0.4019417995370973	0.04288809223216011	0.4036435680273727	-0.9138738274987392	0.04366345614969919
194														9.402484096083404	-0.09221485563299191	0.39206689489820423	0.02120179862203525	0.05702546033255684	0.9981475745645287	-0.9140732162825047	-0.4033205396328438	0.042458186315831314	0.4049946160261255	-0.9132801537229047	0.0435743250747444
195														9.53136074293756	-0.037559541000678334	0.3781691251287902	0.02076966073748221	0.05675092376701896	0.9981723066908037	-0.9134323952198787	-0.40481526698536896	0.042022124868214605	0.40646018323536354	-0.9126357062197132	0.04343025647080945
196														9.606897851679292	0.019777253381722457	0.35315996901690005	0.02027422155330766	0.05651408881044745	0.9981959295180145	-0.9125759062940453	-0.4067892286040814	0.04156607683314706	0.4084044211220173	-0.9117722748897457	0.04332606086835794
197														9.672132893166834	0.1576234399085227	0.4005727313711365	0.019781471500171732	0.056229615855791615	0.9982218809893908	-0.9117425163184429	-0.40870186034107625	0.04108981979830012	0.4102856045763746	-0.9109341467166838	0.04318220724957467
198														9.724875204953204	0.280304605422491	0.39569470560330866	0.01926994351614658	0.05582212686253657	0.9982547567777613	-0.9108488135596697	-0.4107432625007723	0.04055133964696572	0.41229007763203135	-0.9100405828658216	0.04293051855509111
199														9.82259593658836	0.3838883297237411	0.38330160310619726	0.0188274755485357	0.055264464081498266	0.9982942277576556	-0.9100418819407268	-0.41258153510521367	0.04000312492800312	0.41408851623565873	-0.9092427156155884	0.042525108133201706
200														9.790891196056036	0.4858424195990835	0.40190624891892585	0.018426151592631446	0.05459083332638631	0.998338779099668	-0.909214814453621	-0.4144545456059058	0.03944427467541317	0.41591934087699334	-0.9084312139855897	0.04199799210812927
201														9.80868178022965	0.5124302787810779	0.4294851507290312	0.018203044981198457	0.053902435193300846	0.9983802765648189	-0.9085135372975606	-0.4160290033752818	0.03902590034379083	0.4174587425129413	-0.9077523868494103	0.04139809740449485
202														9.787202870704132	0.5344307430496736	0.37424314809412923	0.01800755649902247	0.053199639345310135	0.998421517337474	-0.9078712239204031	-0.4174667006254861	0.038618579027982824	0.41886223115268373	-0.9071335911773967	0.040780866486576806
203														9.783093302063818	0.5149676486271099	0.38538420461186484	0.018001953117348424	0.05246073651878147	0.9984607157058651	-0.9073700512463719	-0.41857935888839826	0.038352449905248776	0.4199470440247412	-0.9066637697826495	0.04006605518887041
204														9.787603726345976	0.5860581430067048	0.3788194356456184	0.018096786598733705	0.05180274058301354	0.9984933562036804	-0.9069338261552742	-0.41953729355331615	0.038203328301531336	0.420884237398071	-0.9062587574120586	0.039389380850636924
205														9.73454340867837	0.5147252505654144	0.3954531934094409	0.01830692415309082	0.051196512291016794	0.9985207928016766	-0.9066558806805411	-0.4201411674125485	0.038164295783012225	0.4214735704115328	-0.906013419643692	0.03872612645357143
206														9.699211635207952	0.4923361134011767	0.39303493591791905	0.018613065648930338	0.05059365697214119	0.9985458605699262	-0.906380118100462	-0.4207313782380053	0.038212417852596936	0.4220528821123504	-0.9057733652741917	0.038025984017834635
207														9.70892421265593	0.39478955073893524	0.36629129822778883	0.018991257123296634	0.04990694579998123	0.9985732967157672	-0.9060606104640619	-0.4214116734249544	0.038293232648496156	0.4227215422927593	-0.9054951674427082	0.03721558033315581
208														9.74083359909558	0.3615603415046645	0.3020056780837864	0.01942911940607861	0.049220766435975116	0.9985989312384421	-0.9059189956116789	-0.42170524793137976	0.03841168125791894	0.4230050622735274	-0.905396045948174	0.03639666567668687
209														9.741706999235948	0.24865821640474145	0.25844185451222246	0.019869564599774403	0.04855502980578169	0.9986228564794495	-0.9057859888661903	-0.4219791720100037	0.03853985941138344	0.42326935014989325	-0.9053043617868586	0.03559592326904526
210														9.759632177302949	0.20840742470496795	0.31780668243923504	0.02035907932763764	0.04791035469270971	0.998644133714383	-0.9056239709541887	-0.42231000147731895	0.03872319570224775	0.42359264762516663	-0.9051844345576465	0.03479092284570384
211														9.781518644265944	0.31497584934827355	0.3429593824639502	0.0208120210853448	0.047281998816225745	0.9986647447298254	-0.9053480878446416	-0.4228859067128307	0.03888894109794638	0.4241599929441669	-0.904948574501121	0.034005556810539905
212														9.844004904955732	0.3292927074099669	0.36246976713965356	0.021220739456709603	0.04665620162880213	0.998685575677592	-0.9052436331395652	-0.423099108226641	0.03900140097613952	0.4243626336957472	-0.9048813974590229	0.03325675353090518
213														9.888588085053893	0.3684130634781807	0.3675678561191105	0.021556517120463914	0.046071906128341666	0.9987055101657032	-0.90526362180976	-0.42305133226536074	0.03905566919642128	0.4243030657413544	-0.904933671455652	0.03258770731860855
214														9.822113417936032	0.33954740258360383	0.3522827974632631	0.021774574139829805	0.04547866455632982	0.9987279704660335	-0.9052665254523662	-0.42305014768498905	0.03900115945853022	0.42428573605110714	-0.9049642333340485	0.03195857583948969
215														9.82228485322666	0.35532651124630704	0.2941514045491497	0.021983761526188472	0.04489340356121779	0.9987498668564863	-0.9052685310065203	-0.42305129640690986	0.03894210289300676	0.4242706695005634	-0.9049929187154573	0.03134032668019221
216														9.844797265083727	0.34588616715676535	0.28518919890246563	0.022284969385143905	0.044344378589598776	0.998767718855093	-0.9052964688187004	-0.42298804720941563	0.038979680121281	0.4241953367069178	-0.9050495500277695	0.030718533666779735
217														9.849554102611611	0.30612264919622273	0.2438676185372699	0.022722981778062368	0.04394061724070403	0.9987756946660344	-0.9053501730235403	-0.4228526608374644	0.03920065597565775	0.4240574610891305	-0.9051325037690239	0.03017317211461762
218														9.82724160007626	0.31854148164138846	0.24211333081448183	0.023267294514184744	0.04370359652027933	0.9987735622538187	-0.9053071344333041	-0.42290804153439004	0.039595211196632396	0.42411982428336154	-0.9051181050320114	0.029725251775405637
219														9.831708407973416	0.3228803817669761	0.2722499310328475	0.023867920040545998	0.043570224947095615	0.9987652166004775	-0.9050696328389561	-0.42336877183632704	0.04009791449138028	0.424593078259286	-0.9049091216977871	0.029329155501724935
220														9.822656327443363	0.3535098360327543	0.3221212661999451	0.024569993594684925	0.04349913347549117	0.9987512907634404	-0.9049490801511455	-0.4235679831643572	0.040710268626897805	0.4248099313202935	-0.9048193129155455	0.028957438192755813
221														9.844639713888315	0.36683200115672693	0.26364396069519647	0.025336716867664588	0.04348503947422716	0.9987327480964527	-0.9048999114093483	-0.42360615527846746	0.041400187699432545	0.4248696283681867	-0.9048021201081039	0.02861681914816966
222														9.858239867009077	0.3323655288926378	0.29345764005263836	0.02610883297379213	0.04353205142276073	0.9987108136691384	-0.9048345567614136	-0.4236746042265772	0.042121901949331186	0.4249620615197579	-0.9047678101216792	0.02832765497703954
223														9.880853447303583	0.2733259983238029	0.2703122715819158	0.02690086819186771	0.04366453427986022	0.9986840099534219	-0.9048235855262399	-0.4236205474303011	0.04289418224294589	0.42493602149731047	-0.9047867374364937	0.028112939957647187
224														9.832169745589228	0.22644013198653803	0.2751491732982689	0.02762804184033324	0.04391522514699553	0.998653165170149	-0.9046789718002363	-0.4238504075605868	0.04366680653758881	0.42519718870958634	-0.9046669470092364	0.028019023938233578
225														9.787778613713881	0.1956540137360241	0.2629830858587344	0.028345021341464938	0.04422311055009953	0.9986194852186824	-0.9044775237888579	-0.42419792647119436	0.044458161661452944	0.42557839316150503	-0.9044890467389937	0.027974910245763707
226														9.774027573732258	0.22880984904419516	0.28231788376052974	0.02907362438105332	0.04458554578657542	0.9985824219723988	-0.9041670368692305	-0.42477142075609475	0.04529028094374521	0.4261885660179824	-0.9042020621607546	0.027963136086176288
227														9.808597879753005	0.31673568829882803	0.2954646597784863	0.029823555596743823	0.04492384061529259	0.9985451437345936	-0.9039219820457771	-0.42520271505797846	0.04612701466340291	0.4266563088787065	-0.9039825770730849	0.02792659023766586
228														9.81151171039841	0.41394890283170127	0.24337833688565613	0.030475874760147792	0.04533734615001772	0.9985067581652507	-0.9035007103725895	-0.42601062481534685	0.04691922740907967	0.4275016811824615	-0.9035814698124969	0.027979278004584163
229														9.827943796358744	0.510852555642588	0.2945873051176094	0.031082681314180405	0.045835357226998774	0.9984653158473733	-0.9030303290460111	-0.42691919395369693	0.047709817197083726	0.42845080434674715	-0.9031274117541774	0.02812092446606862
230														9.853326495258338	0.5826436794812758	0.2927242695038629	0.031683324550033365	0.04634396815538944	0.9984229582501944	-0.902656455281741	-0.4276210060212658	0.048493287654716055	0.42919400122049667	-0.9027693569372927	0.028284226900650133
231														9.838774306450587	0.6312741757363493	0.2612301212135004	0.03227487172678162	0.046783508761433334	0.998383511463901	-0.9024452365750804	-0.4279826613715243	0.04922841200257455	0.42959391015000187	-0.9025752848783956	0.028406469134971524
232														9.855350884464047	0.6858513170905312	0.2431305834636645	0.03272120791419442	0.047244243390912266	0.998347286278205	-0.9021722738963924	-0.42848635726065964	0.04984606157062865	0.43013313144333415	-0.9023122647442572	0.028601855304172086
233														9.828293927820454	0.6849820640121732	0.2659820677662963	0.0331295751115831	0.04768267045304703	0.9983129740674479	-0.9019026152052325	-0.4289865996225158	0.05041993683330409	0.43066704533652095	-0.9020514731891847	0.028792981407515572
234														9.853546720202795	0.7543818453441138	0.2643471493206057	0.03348520666678095	0.048094260852698856	0.9982813646500248	-0.9016769420244007	-0.4294002995344332	0.05093206240929793	0.4311118568956421	-0.9018327587933207	0.02898692828189725
235														9.768451885326243	0.7545352823953285	0.24315338598679614	0.033769811468890465	0.04855898105270384	0.9982492800861309	-0.9015974998749223	-0.4295121234305401	0.05139342414626419	0.4312557803121541	-0.9017546014217568	0.029276112481739336
236														9.695232068351977	0.8433655744972693	0.23798419505556448	0.0340105981632054	0.04900676657846775	0.9982192224366873	-0.9014870598549789	-0.429693816185278	0.05181028127850984	0.43146768143930164	-0.9016438105824585	0.029564822200330354
237														9.712433201529008	0.8636248595529625	0.32565125523478694	0.03420375210414828	0.04946128969675878	0.9981902044017117	-0.9013863305484273	-0.42985955461119985	0.052186649728658774	0.43166281568191495	-0.9015399847655088	0.029880920778433073
238														9.735789201234113	0.7851686376592999	0.3611894535940211	0.034389225134745516	0.04995731719621277	0.9981591294243557	-0.9015480082874116	-0.4294753599290091	0.05255572249382895	0.43131029427505213	-0.9016957256593845	0.03026959497520354
239														9.767493384868029	0.7382380746757794	0.3616455702010993	0.03449021528222057	0.05050870267883856	0.998127895614328	-0.9017986508011029	-0.42891069885038335	0.05286592309783711	0.43077792244159485	-0.9019337466606827	0.030755457589293267
240														9.759561898291231	0.6679270752799434	0.3330912616721401	0.03456524475988415	0.05106893218556635	0.9980967929114466	-0.9021105595599141	-0.4282189333255041	0.053151514297017644	0.43011833509534075	-0.9022308514493358	0.03126833074883595
241														9.778370831343487	0.6039630091423801	0.28376215455283915	0.03455175321076914	0.05159385278491374	0.9980702634107834	-0.902443423329873	-0.42749352627947945	0.053339972607751585	0.42942059107444036	-0.9025449348059877	0.031789882310785
242														9.773688361992301	0.6056926850823653	0.2551016441473271	0.03447573139503829	0.05215899340839386	0.9980435177643311	-0.9027453988543368	-0.4268365917887998	0.05349082872274946	0.4287915213621908	-0.9028233289612897	0.032370787620216945
243														9.812893010522023	0.6454252832403529	0.2385636217867309	0.0342617655859882	0.05265458778837745	0.9980248623174506	-0.9030829119354138	-0.4261228659987052	0.05348417750421536	0.42809740198836016	-0.9031316611977929	0.03295173672100965
244														9.820195384695355	0.7179630576356321	0.27839499331869594	0.03394059910099717	0.05308838610590472	0.9980128551242888	-0.9033988385488534	-0.42546884989031225	0.0533553772510012	0.4274559325138056	-0.9034145676452667	0.03351931868441799
245														9.809312723148114	0.8140691892124992	0.3033684187680665	0.03343455504323045	0.05346079326162512	0.9980100571201169	-0.9037683864042347	-0.4247242158116851	0.05302871146308369	0.42671399586297504	-0.9037429303109303	0.03411570969020061
246														9.839309714727918	0.8741762326605665	0.34119656479147764	0.03277499444965193	0.05382717370399043	0.9980122419639277	-0.9042406450156726	-0.42377727328452575	0.05255167503679142	0.42576361474469077	-0.9041656142646504	0.034783420489677974
247														9.79453491451654	0.9030348567892078	0.30213980569957005	0.03193942035599162	0.054139519281204584	0.9980224375630655	-0.904837812897523	-0.4225835862772653	0.051881065523676495	0.42455671679782686	-0.9047054907874965	0.03549040942007642
248														9.707297299166623	0.8020702187791833	0.33765994006994415	0.031022223704797514	0.05440213424529228	0.9980370882016192	-0.9056053986420933	-0.42103174636741525	0.05109922211834145	0.4229852049264898	-0.9054129866201177	0.03620552544755706
249														9.718321352816227	0.6966486095044875	0.32579346929280467	0.030173667406749705	0.05468906862967893	0.998047421502428	-0.9064462229844803	-0.41930542539666726	0.05038060212114975	0.4212419668461305	-0.9061964831124307	0.03692071725014673
250														9.737749843706478	0.6075493687921966	0.33013117572665834	0.029346992522012394	0.05499597248783933	0.9980552074109075	-0.907308321573995	-0.4175200339282596	0.049685318466572426	0.41944053646791546	-0.9070019097436683	0.037645346177788086
251														9.779473320214628	0.5099943776518528	0.33165749407154854	0.028605057441499382	0.055418774558531	0.9980533603546451	-0.9081638876735882	-0.41572383455122097	0.04911259015388009	0.417636329615088	-0.9078008883078159	0.03843752558604363
252														9.775103722465825	0.48862268871820863	0.35773460900155724	0.027889664918518575	0.05596670494363115	0.9980430324031552	-0.9089339643969805	-0.4140955061199295	0.04862057359665878	0.416006267929128	-0.9085112215867408	0.03932105408870151
253														9.801814553697659	0.4911843167478996	0.34629091633537884	0.02718157992625797	0.05659116670437003	0.9980273551179599	-0.909667893403764	-0.41253395419857075	0.04816700471951246	0.41444599819888533	-0.9091826969780767	0.040265842752881864
254														9.84196175815848	0.4349281350099703	0.41966304706586127	0.026384108869052125	0.05721443784723218	0.9980132198027292	-0.9103456026117929	-0.4110983826915489	0.04763405875803178	0.41300697645991025	-0.9097937281879982	0.04123844741530852
255														9.806375161053452	0.40671797512043506	0.43358478001115297	0.02552982500882922	0.05791509862441979	0.9979950247302554	-0.9110375457433297	-0.40962712660260603	0.04707661199856861	0.41153228097075173	-0.9104127956606372	0.042305120451240186
256														9.807132679963365	0.3442335611461995	0.42511296142177785	0.02466015494537499	0.05854854231034046	0.9979799321386202	-0.911697452972504	-0.4082249375846474	0.046477463113430484	0.41012148322359265	-0.9110019036902973	0.0433116666861868
257														9.811914765538233	0.2807504781105252	0.4504119139507409	0.02376902880326348	0.05917184641248435	0.9979647918949276	-0.9122848292894306	-0.40698073493324305	0.04585925906020255	0.40886602147659945	-0.9115181698602248	0.044308040992152076
258														9.790637526650384	0.2440912048632231	0.39245189590622265	0.022807166388859046	0.059810600087408516	0.9979491596662097	-0.9127957821272754	-0.40590867255404195	0.04518860117408152	0.40777897602986546	-0.9119544076666325	0.04533723685266683
259														9.750423853482244	0.19848645449765773	0.42331836855249055	0.02185852486894857	0.060436018949869774	0.9979327094068238	-0.9132141114710406	-0.4050393062984894	0.044532538254586085	0.40689334167655183	-0.9122996481237562	0.046337463596525075
260														9.767404050758039	0.14890495631833162	0.4994566677464793	0.020847664052273063	0.06105404416768617	0.9979167192678627	-0.9135891007555048	-0.404270671675819	0.04381984714180026	0.4061038412577652	-0.9125993796368443	0.04735021015935903
261														9.731500734157377	0.11967264220318233	0.512824310977964	0.019877655329972932	0.0617501816484185	0.9978936786476651	-0.913819434012192	-0.40381746871387836	0.04319136468267948	0.4056339739718792	-0.9127531796865473	0.04840157158479125
262														9.789127608090524	0.0536946013440267	0.5492455108795429	0.019051967198447095	0.062456524123017054	0.9978658252191727	-0.9140421008123505	-0.40336571214388806	0.04269824597333105	0.40517164324322386	-0.9129048607938974	0.04940298220209616
263														9.843680878918939	-0.0665332038107513	0.532446297332912	0.01839757179853918	0.06328098714171648	0.9978261602194485	-0.9142625485252132	-0.40289644670215896	0.04240808412269348	0.4047042398049477	-0.913055293999846	0.05044312027179765
264														9.8533783224523	-0.23986043979321306	0.5546202631877212	0.017947634692065062	0.06432351199067804	0.9977676925087049	-0.914198465333107	-0.40303980724224864	0.04242734684992139	0.40486917441508513	-0.9129191637726293	0.051570844719969366
265														9.806954565143386	-0.4623754263305234	0.5133873407128955	0.017767572507721097	0.06564337009827009	0.997684950938584	-0.9138757155180346	-0.4037276723026946	0.04283857144500719	0.40560509113370824	-0.9125211858248499	0.05281662112656016
266														9.740210047338612	-0.5589531244773387	0.5489561423168158	0.01794523160025835	0.06723349581288779	0.9975758746599644	-0.9131330095577153	-0.40530813305457425	0.04374270380173567	0.40726659023161227	-0.9117044336409665	0.05411977605757562
267														9.732655058097862	-0.5461028568090527	0.4957031445089215	0.018443895424586798	0.06909010687400885	0.9974399129038821	-0.9119623555960354	-0.40778644299640776	0.04510963183253197	0.4098591034700779	-0.9104596498694901	0.055486406103012975
268														9.693585198016017	-0.3828612434263005	0.5720694655032831	0.019263274721869283	0.07124855945667591	0.9972725650604943	-0.9103258897199795	-0.41121925654588853	0.046962725127212224	0.4134437092912615	-0.9087476909578339	0.056937978768899056
269														9.679522481838926	-0.07776304490295355	0.6137261058192758	0.020198129407434096	0.07364497904636169	0.9970799630068301	-0.9082431074164191	-0.41555321643613613	0.04909156893142691	0.4179551332368198	-0.9065825618060623	0.05849414697343208
270														9.666431708540383	0.21263319790648968	0.7405645662834671	0.021171089354369232	0.07624307045324952	0.996864473829522	-0.9060578082691372	-0.4200245860051358	0.05136725830469652	0.4226239854173879	-0.9043043411148013	0.060188251269233994
271														9.654271640534823	0.5372900057399639	0.7614726176545475	0.022092320494762896	0.07888074163871062	0.9966392316047386	-0.9039008363028952	-0.4243674762079524	0.05362390574939191	0.4271711688610122	-0.9020477114517946	0.06192510604348339
272														9.656788242837179	0.8515750395386525	0.7088200796703626	0.02279668618953784	0.08143018382495504	0.9964183038568741	-0.9019753171624716	-0.42818916617338676	0.05562881628615357	0.43118538742452134	-0.9000128683157669	0.06368672183109764
273														9.631955844916535	1.0818957929975366	0.7085924099428101	0.023154803343354124	0.08374915473451156	0.996217814618563	-0.9002976010933061	-0.43150011834803953	0.057200326321324935	0.4346585838882844	-0.8982169709746541	0.06540786271809002
274														9.628935336217204	1.1678785175976023	0.6881269371522787	0.02312867828006815	0.08575881290661636	0.9960474337348927	-0.8990084444349338	-0.4340405874692362	0.058245903409951116	0.4373201128186287	-0.8968022047465141	0.06705911187969593
275														9.770491964903147	1.1380340905486703	0.7065996752144253	0.022764028875153497	0.08744072098697164	0.9959095939404592	-0.8979938239788092	-0.43605991640873076	0.0588119154383433	0.43941881057288307	-0.8956594607410173	0.06859474688212941
276														9.898445404272856	1.087583239057561	0.6402364809465624	0.02217777003647642	0.08898517039867515	0.9957860141442684	-0.8971737384981664	-0.4377064973270146	0.05909572866917595	0.441120651823777	-0.8947036725345638	0.07012780395628565
277														9.877678980634737	1.0989379971941469	0.6914213946635824	0.02139401365759286	0.09052863845327164	0.9956640305843213	-0.8963814616864636	-0.4393121145513883	0.059204232561764714	0.44276694922324367	-0.893761395243823	0.0717495438825706
278														9.793794298463084	1.1524659009524267	0.7305223066120752	0.02062789101039314	0.09208486606709776	0.9955374767199217	-0.895624991845485	-0.44083485343884105	0.05933385184977358	0.44433136744353163	-0.8928521766983383	0.07338001411011791
279														9.704169639915754	1.1329886692883653	0.7356014022104683	0.02002263205441862	0.0935691525588252	0.9954114264438785	-0.8948866624466469	-0.4422990543927026	0.059576907090099995	0.4458440933563152	-0.8919732956612236	0.0748777954172058
280														9.742518267693393	1.0442633392158942	0.7125222794622716	0.01960577857649215	0.09499109588874649	0.995285037136731	-0.8942226049923123	-0.4435895973939819	0.05995166223389953	0.44719296301168704	-0.8911817776333286	0.07624626579136778
281														9.85164667878184	0.9299735559167897	0.7188175331673214	0.01929322547641199	0.09645383349071796	0.9951504556878125	-0.8937848529701904	-0.444409990435637	0.06040196190565056	0.44808080527040095	-0.890615752390413	0.07763487323546775
282														9.786852744561639	0.8466828499536488	0.7054686297401956	0.018933388231614334	0.09812135023879204	0.9949943353795472	-0.8931908804716704	-0.44553038132622313	0.060932178342416266	0.44927895327103046	-0.8898735190703373	0.07920569553422724
283														9.699506523212971	0.7728153453438459	0.6936587165512003	0.018633120530383185	0.09963510653365537	0.9948495626803715	-0.8925457768882594	-0.4467491288555393	0.06145935263041069	0.450571684616591	-0.8890939553347795	0.08060456320161696
284														9.627686924511492	0.7315570520229817	0.7126980291027576	0.018401072805129703	0.10096023551371108	0.9947202779498548	-0.8919299295749552	-0.4479083531882195	0.06196053479944358	0.4517990717653547	-0.8883609277704831	0.08180746153457308
285														9.573648959809239	0.7372774515548631	0.7100595979157555	0.01816527125246753	0.10206451615765466	0.9946119129901014	-0.8913901674250088	-0.44892795574550143	0.062347894657164116	0.45287260056040046	-0.887719846061622	0.08282440805699148
286														9.522442594281177	0.7426861454891659	0.7397062101587647	0.017948175194082594	0.10289556370175279	0.9945302237628083	-0.8909538247602687	-0.4497567012613727	0.06261143518189943	0.4537390716615127	-0.8872042677089573	0.08360288396198873
287														9.551971179177778	0.6936341972160589	0.710624884557985	0.01770339545797256	0.10348120065769717	0.9944738462622839	-0.8905538978331494	-0.45053102083673946	0.06273399650899292	0.45453310643279166	-0.8867431648308587	0.08417965777020958
288														9.566646073509679	0.5967509210813785	0.7345603016210686	0.017465897121855756	0.1039403672367945	0.9944301596876519	-0.8902977296448062	-0.45103065040272583	0.06277981352789697	0.4550438385771553	-0.8864354192246463	0.08466021803062784
289														9.561244135689366	0.5231089545684925	0.7067341022828564	0.01726333274215791	0.10434286658034975	0.9943915443809994	-0.8900286564043365	-0.45155389310530614	0.06283368842057308	0.45557762030385707	-0.8861216890558754	0.08507281624019192
290														9.513101218478344	0.4688231144852819	0.7151112426065079	0.017206198644496018	0.10464777059123376	0.9943604934019106	-0.8896998344553441	-0.45218062317273183	0.0629832406061625	0.45622160327886707	-0.8857660685177575	0.08532479454563952
291														9.543055279974835	0.4779260467176538	0.7323575244243197	0.017153719274103252	0.10492000046678174	0.9943327126355221	-0.889238343564647	-0.4530646796621113	0.0631471644420526	0.45712243245050693	-0.8852819830679485	0.0855271430939476
292														9.573045998426995	0.4873916140783485	0.7487855548926323	0.01721766679279796	0.10510611697120131	0.9943119511126517	-0.8888144750593824	-0.45386491366574355	0.06336772891702414	0.4579436437763129	-0.8848498993153715	0.08560534332884961
293														9.552705077329264	0.49964293184319536	0.7850819839115261	0.017298039834012402	0.10523123422380776	0.9942973223144247	-0.8882398904941124	-0.4549555460953447	0.06360305033639346	0.4590541087419957	-0.8842747527894375	0.08560074080445312
294														9.557585664119811	0.5762343192865049	0.8164453766263262	0.017473125077939855	0.1052283348464847	0.9942945677441102	-0.8877855678268087	-0.45580825700453576	0.06384057021141215	0.4599255107715181	-0.8838358616801671	0.08545580231695793
295														9.565095483323184	0.6668840292824061	0.7942442707976336	0.017631595368122532	0.10515606943821787	0.9942994156214109	-0.8874061731194911	-0.45652170019208743	0.06401735048520396	0.46065107267235844	-0.8834761673718371	0.08526693926590223
296														9.562699197047769	0.6670130193156459	0.757606593661842	0.017772481935730944	0.10495270401480855	0.9943183940799968	-0.8870924921806591	-0.45711852493200056	0.06410588491471586	0.46124944357966535	-0.8831917029071161	0.08497862503875364
297														9.577965212829998	0.700795571231512	0.787027441429282	0.01788196148604726	0.10465906660343544	0.9943473815679859	-0.8868153179344533	-0.45765430242883365	0.06411810466001577	0.4617778982695323	-0.882949046800593	0.08462950681469239
298														9.575707917374556	0.6865870221637242	0.8364481986752262	0.018016920567710648	0.10436177931707491	0.9943761911827089	-0.8867649008100688	-0.45775322446246	0.06410925194954337	0.4618694634467255	-0.8829329558420589	0.0842970593997146
299														9.571038458424017	0.6118184746381659	0.801465956188891	0.01810677281902512	0.10400090011267887	0.9944123679610148	-0.8867936874737499	-0.45771037126213765	0.0640169656871154	0.46181067618104005	-0.8829977513079117	0.08393968400215646
300														9.579027825330215	0.4969908644841105	0.8010661546794258	0.0182825071029713	0.10359549535846835	0.9944514685370339	-0.8868699264927931	-0.4575690261224089	0.06397124210188637	0.46165732249873137	-0.8831186554902031	0.08351022038336675
301														9.649921551160496	0.4124755868445403	0.7772235420719336	0.018577191869230236	0.10320948480250619	0.9944861437893717	-0.8869826714364992	-0.4573418307506275	0.06403272926430292	0.46142889865463016	-0.883281524822333	0.08304889760803225
302														9.69814017356026	0.396626757323365	0.8044713759692553	0.01889559154919218	0.10284862525911509	0.9945175297109228	-0.8868933975100354	-0.4574966713802525	0.06416305112052995	0.4615875410722354	-0.8832434296151312	0.08257109644777672
303														9.74620965410245	0.4536982982721238	0.7945745256368719	0.019233692704500538	0.1025612538067237	0.9945407253011522	-0.8865820982247279	-0.4580686685128648	0.06438383364083183	0.46217123252360487	-0.8829803418788236	0.0821186195887878
304														9.806978169138272	0.5304992236364248	0.8696732757287392	0.019633906225860198	0.10228297966941274	0.9945615625974391	-0.8863124989199049	-0.4585518799005425	0.06465545373772619	0.4626712266660495	-0.8827617829910991	0.08165151869811188
305														9.822147433953726	0.6385902674518713	0.8605207155868515	0.02004687329641347	0.10203228117976887	0.9945790750203276	-0.8860543490952579	-0.45900913865042503	0.06494844944087746	0.4631477230003586	-0.8825531282776395	0.08120444844302344
306														9.819819967855727	0.6986412990718577	0.8715238268020516	0.020368889651186495	0.10169437927005165	0.9946071393063984	-0.8858057692934266	-0.4594645281352898	0.0651190177436432	0.46360893802951986	-0.8823551442646522	0.08072268558990336
307														9.845198660987009	0.7639876232170738	0.8627054585341863	0.020623564052409282	0.10131265995616984	0.994640846506106	-0.8857286900436587	-0.45960446336212646	0.0651799423991572	0.4637449258367382	-0.8823261767567698	0.08025684749889483
308														9.822888772917858	0.7731924594817888	0.859740845502365	0.020821575794791547	0.10091973642635854	0.9946766654451372	-0.8857033841600501	-0.45965367039858857	0.06517682545615272	0.4637844081778276	-0.8823455729410905	0.07981423834380769
309														9.810729510645357	0.7408790973234848	0.8578685320387166	0.02098150954227318	0.1005439586042946	0.9947113594633901	-0.8857907139341632	-0.4594921616190464	0.06512883016500248	0.46361038315090947	-0.8824725864290824	0.07942006570025528
310														9.785588526135038	0.6888802955227449	0.771652414201923	0.021070332539955217	0.10019575948768933	0.9947446159026649	-0.8859604389624404	-0.459180655062834	0.06501712550971683	0.4632819246205655	-0.8826743090159311	0.07909438995979995
311														9.776067542896094	0.6569362940769546	0.8051426309766941	0.021152333923949274	0.0998582993987176	0.9947768085408735	-0.8861278992642244	-0.45887328144777506	0.0649049899385502	0.4629578003610502	-0.8828723756096046	0.07878098419232193
312														9.776870029621783	0.6426169783965696	0.8895184675401122	0.021180434008160054	0.0995538424747131	0.9948067257833284	-0.8863458727240934	-0.45847370202331594	0.06475228534964228	0.4625390611831521	-0.8831143170629475	0.07852846540110481
313														9.752061865275921	0.5773453520338379	0.891664152438629	0.02126407292987814	0.09935295718701587	0.9948250243638972	-0.8865870258875426	-0.45801564762962244	0.06469244201837077	0.46207281323435984	-0.8833745844343799	0.07834576469134708
314														9.719562551922163	0.4959290012974286	0.8779518302434723	0.021347195432266708	0.09915998333312653	0.994842497560569	-0.8868017699865736	-0.4576070763725367	0.06464042390377439	0.46165671011678894	-0.8836079794564746	0.07816662104114297
315														9.699532954231525	0.44702446296113985	0.8625164464131058	0.02140126125835784	0.09907923184250439	0.9948493814814637	-0.8868365261226321	-0.45753906906910513	0.0646450014318119	0.4615874369513254	-0.8836522540529594	0.0780751686250517
316														9.63137885218792	0.4152629789467953	0.8161128509065775	0.02147301570551058	0.09900644881459358	0.994855081250347	-0.8868630435228035	-0.45748410270220363	0.06467022350533491	0.46153315333785205	-0.8836888699468175	0.0779815972017493
317														9.654077947032738	0.40677723260324566	0.8140139357069978	0.021571630247663565	0.09898704459265378	0.994854878749293	-0.8868878055369869	-0.45742566807216567	0.0647439462692943	0.4614809694432116	-0.8837212927114213	0.07792298537792736
318														9.681638487855023	0.4141217740088288	0.7939309038674178	0.02164776230106391	0.09899288760857	0.9948526436564735	-0.8867374975608506	-0.45770351892654837	0.06483902514516937	0.46176615814379224	-0.8835767634819129	0.07787244845226343
319														9.739667613853445	0.4881140773805092	0.8389046974409211	0.021675328596597987	0.09906276972761457	0.9948450873297425	-0.8865470160596891	-0.4580598205288744	0.06492756835672259	0.4621304669093902	-0.883384269992934	0.07789520577776277
320														9.744488548007105	0.5042638917714084	0.8211387059072892	0.02163763757909637	0.09912498461613334	0.9948397107397993	-0.8862678002637654	-0.458593797530801	0.06497010914186396	0.4626674819518038	-0.8831002017274883	0.0779283956799271
321														9.693861118492133	0.5787808419599085	0.8056282393638252	0.021625675009490863	0.09911878121595319	0.9948405889340504	-0.8861935413924318	-0.4587374047165289	0.06496922893404283	0.462810260662752	-0.8830263080589433	0.07791791771517026
322														9.731775276911412	0.6028484916868639	0.836707095274196	0.021529235892217724	0.09912357660676224	0.9948422028455475	-0.8859841672130107	-0.45914835269552745	0.06492184274073276	0.4632154438808858	-0.8828121582633917	0.07793680627641209
323														9.73146321879171	0.6738723868683123	0.799945502957395	0.021323215331427336	0.09910859186861648	0.9948481328854925	-0.885773297657384	-0.459576561098477	0.0647692029135915	0.46362806822397384	-0.882590998994845	0.07798809427206449
324														9.744063376326876	0.7044577745632673	0.7982929222183932	0.021106786296700042	0.09907194813212383	0.9948563980120602	-0.8855578769685513	-0.4600155658662842	0.06459818650453075	0.4640492970700174	-0.8823663798298458	0.07802449381312682
325														9.734529754840619	0.7307543459026146	0.885460386356395	0.020767332214497558	0.09908787309160383	0.9948619559109066	-0.8852269252194364	-0.46068505561947937	0.06436280288660057	0.4646956087367675	-0.8820152339586087	0.07814805362711008
326														9.719306552036997	0.6953325827241549	0.8544946753633317	0.020465968698562764	0.09911222481227416	0.9948657753777597	-0.8850253030725346	-0.4611028824386287	0.06414315807751342	0.465092847769774	-0.881794136235635	0.07827990964387005
327														9.678945195492954	0.7263966064262302	0.8405909074299667	0.020122848546350824	0.09913979745613039	0.994870027454209	-0.8848448252095862	-0.4614849522571171	0.06388485063036309	0.4654510782737516	-0.8815911407226166	0.07843694495069353
328														9.69897417898568	0.7136088963786023	0.8061090097415247	0.01979159882249454	0.09911805589025863	0.9948788386595554	-0.8846511655039719	-0.46189313586950614	0.06361640047266637	0.4658332405362612	-0.8813797944320996	0.07854330002181192
329														9.6761186724587	0.6613112268717058	0.7591089413057297	0.01949819961303184	0.09915982817272784	0.9948804695482797	-0.8844207636162859	-0.4623615478014548	0.06341696933021101	0.4662828895597996	-0.8811294613116726	0.0786837932001605
330														9.62582275353513	0.6624294721317256	0.7820295443163662	0.019245207099984174	0.09929638306471494	0.9948717758153279	-0.8841751609173809	-0.4628470819903303	0.06329979075605413	0.466758938661492	-0.8808591300561639	0.07888780752623092
331														9.660986540163735	0.6846947587528549	0.7800650652836889	0.019049914341830343	0.09939502823447227	0.9948656839623318	-0.8838474560902272	-0.4634821270647299	0.06322967858836842	0.46738717903511623	-0.8805140238825404	0.07902074803350218
332														9.665869763608438	0.6998391508306739	0.7628676560770022	0.01895879504611664	0.09948975612467398	0.9948579559498194	-0.8835829602609468	-0.46398494873945517	0.06323859327774167	0.467890709917286	-0.8802384652862534	0.07911085768464488
333														9.683378652540783	0.7471145026878538	0.7430177214276056	0.018864588149289818	0.09952296370090591	0.9948564253248537	-0.8833800785355443	-0.4643755716402866	0.06320573795386752	0.4682774435743127	-0.8800286973502316	0.07915634958461132
334														9.695971907528763	0.7786050211651561	0.7413900237362799	0.01870837754977034	0.0995613303558473	0.9948555363002356	-0.8831456100973005	-0.46483212507739236	0.06312627711106245	0.46872574921303656	-0.8797832897900537	0.07923089694600377
335														9.73366047770099	0.742806000346966	0.7234141454755759	0.01847915924842447	0.0995840735410623	0.9948575440586656	-0.8828986637413174	-0.46532114067877073	0.06297765954053824	0.46919981909338765	-0.8795221704621072	0.07932390199905948
336														9.675800795350177	0.7273098902248355	0.7292994967230276	0.018267425371889023	0.0995750360869368	0.9948623590017704	-0.8827183983858176	-0.46568454149190186	0.0628182852890305	0.46954715452386614	-0.8793308364908865	0.07938985876532523
337														9.716208390030088	0.6920837267715397	0.7455657957532046	0.01799275113180221	0.09951889488779314	0.99487298207712	-0.8825492615477397	-0.46603708592085613	0.06257983291713237	0.46987558124278883	-0.8791503990255076	0.07944503788810475
338														9.73900835753733	0.6091301422338966	0.7825784220002503	0.017731266527314993	0.09947663559401188	0.994881903121287	-0.8824630254652127	-0.4662317602795103	0.062345444047284315	0.4700474559809053	-0.8790519578941656	0.07951757320437702
339														9.733770468357427	0.6042528288359093	0.7145171350894581	0.017533941411530696	0.09944204472982338	0.9948888584352169	-0.8823634858371987	-0.4664431146632153	0.06217314246928907	0.47024168228667795	-0.8789437413869164	0.07956544298226886
340														9.675937819094017	0.5884542648503932	0.7198696638409271	0.017327391424757255	0.09934166146897633	0.9949025056773133	-0.8821881528151756	-0.46680102457429196	0.061974724597528674	0.47057818111230093	-0.8787650640262017	0.07954959275863022
341														9.663689507019578	0.6141488847586865	0.7716498437492652	0.017195317527964493	0.09927954858759908	0.9949109971687693	-0.8820543866555823	-0.46706994280022673	0.061852465708628734	0.4708337074135163	-0.87862918217234	0.07953854536265964
342														9.66140036350351	0.6711676947755243	0.7866677450201531	0.017130556461218804	0.09924922947985743	0.9949151393375137	-0.881917062913872	-0.467335505599149	0.061804687101854994	0.4710932372436474	-0.8784913862150516	0.07952387169434222
343														9.663781857496758	0.6846833192233025	0.7337607922549036	0.01707212323465568	0.09921883492357308	0.994919175312583	-0.8817073050956312	-0.46773510158805576	0.061774613583666316	0.4714878267243608	-0.8782821286686987	0.07949674025970643
344														9.699110001248949	0.7076390323940414	0.7295748579557335	0.017092524075926985	0.09914933349975852	0.9949257536556526	-0.8816183683297139	-0.4679026915150545	0.06177478366309119	0.47165336662041096	-0.8782007065241535	0.07941423560112354
345														9.72175680762079	0.6271566576597974	0.7655876555702625	0.017136277236179	0.09914245969374208	0.9949256860129606	-0.8816055046335269	-0.46792200981895515	0.061812028981862055	0.4716758232116097	-0.8781911895554777	0.07938609692374293
346														9.76702510962296	0.6092760153005502	0.7628442132169562	0.01713038078082313	0.0991423436938399	0.9949257991132792	-0.8815428034264584	-0.46803942076722993	0.06181736273003946	0.47179321294538074	-0.8781286331140611	0.07938052609995849
347														9.726733810851202	0.571019725138942	0.7849814265510143	0.01709967099591858	0.09913119467659237	0.9949274383058406	-0.8814430622754632	-0.46822926000383397	0.061802006785504626	0.471980644961512	-0.8780286819451021	0.07937193750603272
348														9.739395308847778	0.6029894661904933	0.7825180806372121	0.017085166628932003	0.09910680116641274	0.9949301176684836	-0.8813569558831087	-0.4683925999391032	0.06179230242309358	0.4721419420023193	-0.8779443116080019	0.07934590296562383
349														9.701491283784932	0.6500077235416907	0.7137841548905336	0.017046917574006948	0.09906518364879757	0.994934918469472	-0.8811719191215742	-0.4687435110512767	0.061770298679247326	0.4724885729335968	-0.8777617046989186	0.07930282599770039
350														9.689177667564874	0.6772665081053948	0.7653204127672567	0.017026702450265274	0.09904842815248294	0.9949369328174489	-0.8811090174353868	-0.46886371842876917	0.06175526645716489	0.47260659199562344	-0.8776993918316628	0.07928926018454213
351														9.696843367685231	0.6939746677491203	0.781214616940529	0.017032910500351717	0.09902211312212328	0.994939445932624	-0.881112906986295	-0.4688574125621627	0.06174764633308061	0.47259911669622084	-0.8777057296146266	0.07926365560336196
352														9.729526003479783	0.7152357389731638	0.7427040267920357	0.017039714527908256	0.09893679598368693	0.9949478169880521	-0.8811605927685431	-0.4687733489945802	0.06170540514570738	0.4725099553243273	-0.8777602506794713	0.07919144175044673
353														9.78747957165771	0.6574346554336198	0.7750927350603241	0.01706315097493244	0.09891356828979614	0.9949497248037138	-0.881219206222864	-0.4686631889887552	0.06170515270895277	0.47239978774630237	-0.87782169105979	0.07916766538289682
354														9.784810914347528	0.6560591894993567	0.7407502213158281	0.017089303793586252	0.09892979896599663	0.9949476622277158	-0.8812866000850408	-0.4685339132319846	0.0617243927638943	0.4722731034119971	-0.8778888694066406	0.07917858779702064
355														9.749452461294712	0.6337351627788728	0.7448074486939639	0.017177928395692987	0.09900511909416904	0.9949386439219163	-0.8813152202168093	-0.46846580167509855	0.061832639237737075	0.47221647725405486	-0.8779167267196	0.07920744634006327
356														9.73435020114255	0.6604963653220466	0.7628199621831278	0.017202767813177644	0.09911312866513472	0.9949274609265614	-0.8812887235242886	-0.4685054710108204	0.06190968762527871	0.4722650215382208	-0.8778833700208347	0.07928769180879253
357														9.754537456353631	0.6383884461068111	0.8149954313742692	0.01724302899830754	0.09918313034216103	0.9949197880263985	-0.8813341992963604	-0.46841190947454003	0.061970252646402435	0.4721786813290146	-0.8779253896077647	0.07933664462559292
358														9.752093274993365	0.6965905761746567	0.8307978587779163	0.017227675587729696	0.09926723632725448	0.9949116659210471	-0.8814268157689042	-0.4682362067700373	0.0619808285931831	0.47200633008184817	-0.8780096072717862	0.07943018255744788
359														9.706431626438476	0.655178508387615	0.7852806372710778	0.017153547238303923	0.09934741767349015	0.9949049434085414	-0.8815592333214195	-0.46799340411783086	0.061931347861614805	0.4717616707225111	-0.8781299814399998	0.0795528863919549
360														9.746366997666398	0.5618879820951875	0.752783860519473	0.017051571818382905	0.0993965524091151	0.9949017887549025	-0.8817037132701866	-0.4677331300155122	0.06184077208005179	0.47149528725543743	-0.8782630838507755	0.07966272428707494
361														9.711023920618558	0.5380576641010094	0.7578025311204248	0.016955493826758816	0.0994730027618293	0.9948957899954329	-0.8818630419833595	-0.4674426007144461	0.061765607105988884	0.47120068592155845	-0.8784090941918014	0.07979584467998796
362														9.73857573450845	0.5440249136945368	0.7395403625228096	0.016917705299957952	0.09959955043871666	0.9948837725080195	-0.8819032394655559	-0.4673641746519054	0.06178514766593263	0.47112680614410124	-0.8784364847866624	0.07993043680669826
363														9.741042651165314	0.5459608136418742	0.7756672155035805	0.01691869635258303	0.09979838581691158	0.9948638298290217	-0.881993168871847	-0.4671839892554094	0.06186412730169105	0.47095839283011764	-0.8785097622518152	0.08011735049995233
364														9.723186444502977	0.571144082170487	0.7608903489662848	0.016887367353913774	0.10005612388991758	0.9948384737714862	-0.8819621158961093	-0.4672295055573189	0.06196301526492842	0.47101766734158956	-0.8784562375034908	0.08035543443538101
365														9.707910427680984	0.5981546952797508	0.7806139320012326	0.016885405848032553	0.10031921893892787	0.9948120110758767	-0.881855967857545	-0.4674112400579765	0.06210301620289138	0.4712164418007707	-0.8783295434966011	0.08057467342579011
366														9.722935831510311	0.7046390110379863	0.7769527587576063	0.016889869568398108	0.10052258498898636	0.9947914063828127	-0.8817503189036665	-0.46759488345922395	0.06222057598606007	0.47141394487143123	-0.8782085372335473	0.08073820477858301
367														9.732924454538999	0.7237328574554429	0.8293474050113558	0.016814196372884005	0.10074298389476832	0.9947703926013848	-0.8816928793270489	-0.4676969005634678	0.06226777454915461	0.47152407080054004	-0.8781289543109854	0.08096042401311343
368														9.68739515765398	0.7421631823292321	0.8344001920429395	0.016729422794966253	0.10097279792385516	0.9947485212315602	-0.8817719381802709	-0.467545138505934	0.06228798035958255	0.47137922679171596	-0.8781833735267912	0.08121321943100573
369														9.689562395938811	0.6841405456390495	0.8223081618163759	0.016566526758011346	0.10121916150386417	0.9947262093338203	-0.8819751384542687	-0.4671699712359994	0.06222598431466814	0.47100467655825873	-0.8783546546354783	0.08153340015257499
370														9.69416404363212	0.5677338816842203	0.7953516706252403	0.016386896248843097	0.10143355414727467	0.9947073457677799	-0.8822084011624651	-0.46674227120061906	0.062128811294397124	0.470573911888129	-0.8785572755190978	0.08183707645537963
371														9.646039331876231	0.511601154302402	0.8043581376914133	0.01620253078151801	0.10164843212277935	0.9946884307376125	-0.8825227347000821	-0.4661630421133164	0.062013231694099	0.4699905326001382	-0.8788399253644764	0.08215403125592385
372														9.660898243305073	0.48464080626600065	0.7900615904339205	0.01598878922069119	0.10184328035260093	0.9946719584195977	-0.8827060746359533	-0.46583282816711546	0.061885070918707596	0.4696534301163392	-0.878992447321846	0.0824495793264508
373														9.700959605891574	0.4626050310342215	0.721311767328447	0.015794808618297462	0.10199101795612386	0.994659919910813	-0.8828357790155078	-0.46560339041322957	0.06176139672795056	0.4694161387413016	-0.879096874691282	0.08268720334627183
374														9.690834340531879	0.4899408243330852	0.8099558566647073	0.015578918354923477	0.10214471390818403	0.9946475530174024	-0.8829012153214931	-0.46549637577357605	0.06163252489957327	0.46930026772496247	-0.8791357014490319	0.08293176201551256
375														9.70841090693786	0.5360497474819289	0.791937554961191	0.01533426546096922	0.10230006141334197	0.9946353893450604	-0.8829205211548534	-0.46547896071742106	0.06148731944939856	0.4692720038809212	-0.8791268591985214	0.08318504558710443
376														9.713298064778312	0.5376067056708537	0.8632225209009334	0.015135462269732447	0.10245265799125186	0.994622727798038	-0.8829791875789497	-0.4653826224194431	0.0613740095840305	0.46916806379409515	-0.8791600921450714	0.08341978359580088
377														9.688004481467477	0.5443394702530586	0.8323167323437298	0.014968126471773202	0.10258814628213442	0.9946112946434511	-0.8829926963206262	-0.46536828948358555	0.06128828099688943	0.4691480080255664	-0.879151879589368	0.0836188924832536
378														9.723161385319372	0.5666565815041267	0.8310496416956014	0.014805497210639895	0.10276370786844835	0.9945956050563838	-0.883020704786519	-0.46532375856527297	0.061222827711622796	0.4691004499791758	-0.8791549465593741	0.08385313213899065
379														9.715433555016117	0.5493346520706138	0.8171105254303535	0.014640462163874268	0.10289791867216785	0.9945841720038404	-0.8829922605991762	-0.4653878309052371	0.06114601023186689	0.46915916764951454	-0.8791053322431022	0.08404457288939204
380														9.710412282535938	0.6052728767728823	0.799892907669108	0.014514701647063255	0.10305353219101238	0.9945699034955024	-0.8830001278252366	-0.46537800833298004	0.06110714868691869	0.4691482683509693	-0.8790923039493551	0.08424145915344827
381														9.685136082396664	0.6127139066746439	0.7688472383510371	0.014400308441498533	0.10322910258927209	0.9945533587975075	-0.883000791851071	-0.46537914625149557	0.061088884624054096	0.46915054375666193	-0.8790711021372748	0.08444977608013993
382														9.659946752820268	0.6791899783660953	0.7874046028382105	0.014265080998299873	0.10336979632890436	0.9945406943262969	-0.8830566881265463	-0.4652813173928667	0.06102607016787187	0.46904945690096217	-0.8791063535728082	0.084644114318913
383														9.692509472874722	0.6874032650166108	0.8386928569506382	0.014107549988080392	0.10347937541169244	0.9945315459540436	-0.8831977386472443	-0.4650282533682868	0.06091369318662676	0.4687885786596426	-0.8792273553715482	0.08483234102997317
384														9.69728059709162	0.6298494189794975	0.859743916095725	0.013961915283541737	0.10355914821510509	0.9945252976885894	-0.8833917703315826	-0.46467600364161066	0.06078808888338777	0.4684272035568046	-0.8794041815119054	0.08499553227863349
385														9.649230976085676	0.5733140983683628	0.8668960042339098	0.013758050907085595	0.10359366900449363	0.9945245435771938	-0.8835503701971666	-0.46439939703908173	0.06059656223076637	0.468134018588361	-0.8795462192357629	0.08514099405331954
386														9.654258399272809	0.5280109535478874	0.8003613361194936	0.01360268040031809	0.10363663711063725	0.9945222041434398	-0.8837295058286407	-0.46407783715497924	0.06044767646008986	0.4678003074109656	-0.8797108664271207	0.08527405159983553
387														9.701933177858649	0.509776676948899	0.8337518770427383	0.013417326551811437	0.1036963540321279	0.9945184973184992	-0.8838579321197577	-0.4638537915707451	0.06028943418567939	0.4675629702801406	-0.8798219855208707	0.08542916724939437
388														9.69698939898683	0.5059973871130854	0.766459891677002	0.013280897952285486	0.10376913613941607	0.9945127370398326	-0.8839411113526451	-0.46370838441432466	0.06018841985387824	0.46740959490604256	-0.8798900502953396	0.08556734179015357
389														9.669156569836284	0.49885579413380654	0.7873115793593939	0.013176507192139697	0.10383385599704686	0.9945073705141658	-0.8839802016125932	-0.46364276378827435	0.06011980325757699	0.4673386168670151	-0.8799169949123355	0.08567788074684274
390														9.696952495158738	0.5635006510715361	0.818368990267183	0.013085817597102367	0.10382410959686084	0.9945095854964061	-0.8839521506147682	-0.4637064783190966	0.06004079769978571	0.4673942199057887	-0.8798845698336342	0.08570756656993017
391														9.742289257781717	0.6036165747463337	0.8660866872911926	0.012973514811358333	0.103822242552228	0.9945112517537775	-0.8839079017220739	-0.46380263303311725	0.05994946926226963	0.4674810254830881	-0.8798341091040819	0.08575215023721788
392														9.75501193815914	0.6345159991007763	0.8645859409532053	0.01281726927192367	0.10379925380253557	0.9945156773618238	-0.883899544808991	-0.46383744913207886	0.05980313929137859	0.4675011361428642	-0.8798184674651257	0.08580298370364609
393														9.749918932088642	0.617673282342048	0.883356688010539	0.012667363726588221	0.10375312875166814	0.9945224110951241	-0.8839169264214242	-0.46382444928901956	0.05964685597281072	0.4674723575591629	-0.8798307612921807	0.0858337136683523
394														9.714997238132206	0.6650501990955481	0.8498156418263401	0.012527338557205558	0.10371078654299287	0.9945286011690698	-0.8839823784008094	-0.4637195661634782	0.05949217288016656	0.4673523515138457	-0.8798910368402382	0.08586933575316313
395														9.669775606813497	0.6817875214908338	0.8529273490306933	0.012384871314310153	0.10369211606845141	0.9945323323189525	-0.8840419446431755	-0.46362454691963967	0.05934744817658044	0.4672434644529991	-0.879943307582259	0.08592624958156453
396														9.679715828923475	0.6395164354593385	0.8543292777398845	0.012296340436955377	0.10366848078519048	0.9945358948291149	-0.8841498402646428	-0.4634326469190627	0.059238853209672815	0.46704160411237916	-0.8800471736567769	0.08595994513058824
397														9.72741244863956	0.6217717375129281	0.8867017594164704	0.012227572418844757	0.10366686762778898	0.9945369108429237	-0.8842487114187261	-0.46325410801937333	0.0591595111330252	0.4668561907344334	-0.8801413590778577	0.0860028209625538
398														9.676890414943479	0.5650776331648697	0.8582253126917749	0.012215514602413657	0.103700264988067	0.9945335772332695	-0.8844145617080506	-0.4629406710278788	0.05913390015054515	0.46654224271951583	-0.8803023288334881	0.08605896588143763
399														9.704630054564474	0.5712895892921533	0.8393182681837643	0.01219977678272588	0.10373134350921115	0.9945305293555479	-0.8845000976197754	-0.4627791589987331	0.059118755966557524	0.46638046995672944	-0.8803835859272933	0.08610458102064555
400														9.689128667836764	0.5252187078367789	0.8943704374114064	0.012237771705497003	0.10375441759141668	0.9945276556104166	-0.8845828911460817	-0.4626171989616167	0.05914757743600868	0.46622242077717035	-0.8804659834741915	0.08611797901426443
401														9.694247471697695	0.540988577673996	0.8763032457317957	0.012302937377142165	0.10376675046439804	0.9945255648951179	-0.8846687953092078	-0.4624468738000808	0.059194691642806996	0.46605767919652297	-0.880554001984314	0.08610975119787267
402														9.71683919974043	0.5324898915465222	0.8751376343046422	0.012369349242528305	0.10380093562636761	0.9945211737124586	-0.8846896379607146	-0.4623979829172181	0.05926508144790443	0.4660163555973707	-0.8805756476062564	0.08611205001953098
403														9.71679622481145	0.5332705879874675	0.8751394267691629	0.01247695282277711	0.10381497420026109	0.9945183642246422	-0.8847595325781998	-0.4622529215673725	0.05935323086770011	0.46588077354647744	-0.8806501505332458	0.08608378015345391
404														9.711992762783462	0.5904108095632493	0.8561531329141063	0.012515665405634147	0.10382854466717423	0.9945164611165325	-0.88477153044155	-0.462225062374396	0.059391334663432604	0.4658569491158979	-0.8806631734240299	0.08607948614591826
405														9.66667137160267	0.6089046652224902	0.8590296455645872	0.012524901468787486	0.10388346686842725	0.9945106093725664	-0.8847994063492286	-0.46216803791613503	0.059419822052933724	0.4658037541360627	-0.8806866241973623	0.0861274206777618
406														9.717022933432334	0.6066395273675045	0.8387247326316807	0.012570528811312598	0.10392391175104249	0.9945058081136404	-0.8848420698406252	-0.46207979122044357	0.05947081625326045	0.46572147604073594	-0.8807281573289413	0.08614766185106498
407														9.68162279172963	0.5843189425863825	0.842169672753782	0.012668565439237611	0.10394427463947409	0.994502436004752	-0.8849106867991751	-0.46193769052166245	0.05955372754182087	0.465588427517614	-0.8808002939629316	0.08612931159883508
408														9.674059547402052	0.6274800448468676	0.8757740169203339	0.01277859316066221	0.10395758841439678	0.9944996366856537	-0.8849516909745754	-0.46184683607199173	0.05964901215888335	0.4655074781333529	-0.8808463656173837	0.08609569083625629
409														9.714146941539406	0.5950737492060343	0.8911248844767485	0.012895173948310745	0.10396934530798047	0.994496902823268	-0.8849010074909505	-0.4619287803578962	0.05976628496541253	0.46560060291020156	-0.8808020078958132	0.08604592643676034
410														9.691429488453911	0.605581316558218	0.8922778298728796	0.013047420453287939	0.10404754114070597	0.9944867389774928	-0.8849414410253722	-0.46183024149923835	0.05992890782162513	0.4655195063318537	-0.8808444455290207	0.08605028765331896
411														9.696438304573869	0.622725939775763	0.8743096637497727	0.013199810292443104	0.10414870049983116	0.9944741390264706	-0.8849597371981663	-0.46177211212108776	0.060106405693420184	0.4654804276727389	-0.880862965875752	0.08607210234552204
412														9.71622653207482	0.6011911238287755	0.925874222216998	0.013374032167090266	0.10422741501247262	0.9944635645529769	-0.8850412207076368	-0.4615931563073524	0.06028097293967255	0.46532050557860766	-0.8809474467923926	0.08607219689327694
413														9.700973147629444	0.5699923067540592	0.8938424880347946	0.01357139552742942	0.10438941646699001	0.9944438983437522	-0.8851143167714757	-0.46142220596523925	0.06051606471289961	0.46517573396470463	-0.8810178191000755	0.08613442377205965
414														9.690820174870579	0.5545993883510775	0.8438874840350323	0.013776544694229953	0.10455408955464879	0.9944237774579237	-0.8851693355821606	-0.4612842499241827	0.06076255522046603	0.46506499993154066	-0.8810705324372631	0.08619317089766138
415														9.723533992719236	0.5789467805352247	0.8067468030507742	0.013976156409440388	0.10469713640359007	0.9944059415957385	-0.8851271309688249	-0.46133228756665595	0.061012150194966086	0.4651393652174752	-0.8810283934569898	0.08622262375780493
416														9.682941188542275	0.5429562691815893	0.8283958807847073	0.014186103801224481	0.10481029286688143	0.9943910483145451	-0.8850351071174523	-0.46147514970935716	0.06126618455826116	0.465308084636987	-0.8809401164153472	0.08621425439898939
417														9.700560709438623	0.5930133737131962	0.80822327536337	0.014408882310359361	0.10491958522549871	0.9943763194820541	-0.8849376965840109	-0.46162674185385666	0.06153067828310116	0.4654864737832367	-0.8808476780019929	0.08619577068131573
418														9.715453697548778	0.6287708739444984	0.8406024589874131	0.014610978112942874	0.10502113919516959	0.9943626499626441	-0.8848139328886857	-0.46183086725813566	0.061778266515454705	0.4657153889283017	-0.8807285679309755	0.08617636651433808
419														9.710396509365593	0.6876767295677785	0.8214950171998657	0.014808652435273628	0.10509492187119784	0.9943519302590698	-0.8847016764995335	-0.4620152444313278	0.06200691503352762	0.46592236200032927	-0.8806230585840613	0.08613583039645467
420														9.657125108724555	0.6780746990967736	0.8947621328166434	0.014982657205430017	0.10517936377689918	0.994340395145722	-0.8847112969076972	-0.46197124587449734	0.062197179269355696	0.465898530913078	-0.8806360595732217	0.08613181451928398
421														9.657003443189806	0.6798176354743896	0.8947526664945908	0.015172887534944113	0.10523238796899942	0.9943319003261408	-0.8848278735019579	-0.4617249741123251	0.06236731960711789	0.46567093291062905	-0.8807588732469944	0.08610684896586146
422														9.715153116524764	0.5776041487479576	0.7899210052851244	0.01534946081033356	0.10520995682157375	0.9943315639355086	-0.884930694433253	-0.46151088038315424	0.062492986309235665	0.4654697198558812	-0.8808737550146266	0.08601957697942408
423														9.710043126789067	0.5633105885089562	0.8074197174050467	0.015481220720200084	0.10518638237315125	0.994332015359187	-0.8849611607192881	-0.46143901721879516	0.0625921513172687	0.4654074299185433	-0.8809142173625095	0.0859422237623304
424														9.669688198074551	0.525562709497573	0.8282097395622428	0.015570824678055706	0.10514101789390068	0.9943354141209493	-0.8849720530378977	-0.46141057529178864	0.06264779605691878	0.46538372850878	-0.8809345306917735	0.08586231929159033
425														9.682311215556782	0.5581548636179133	0.8256533711909916	0.015628870181643995	0.10510404088441572	0.9943384127180305	-0.8849430691642137	-0.46146084175563784	0.06268696726114542	0.4654368944927626	-0.880912613211972	0.0857989809321048
426														9.69231192615968	0.57648223883738	0.8750817927495748	0.015770675630711606	0.10494776246978149	0.9943526803618208	-0.8848927900348871	-0.4615489227718959	0.0627482432612747	0.4655276962055261	-0.8808850997949103	0.08558857999106356
427														9.705014397430919	0.6091913153752865	0.8715167447601488	0.015870835284477747	0.10485156666199302	0.9943612349422615	-0.8848423015978071	-0.4616385565284585	0.06280083143890147	0.46562025073064534	-0.8808495853974432	0.08545051207970661
428														9.7000359943209	0.5941161180573145	0.8882866126967982	0.015959635253659066	0.10470118681350066	0.9943756591562439	-0.8848195525255429	-0.46168047893357445	0.0628131740971849	0.46566044443464183	-0.8808455011246352	0.08527340521770044
429														9.722837018802812	0.5850533178299262	0.8855752398274923	0.01599516129335221	0.1045587088521342	0.9943900800080294	-0.8848338964002485	-0.46165809818096104	0.06277560167049967	0.46563196904460363	-0.880874154909266	0.08513279401342633
430														9.647591118897894	0.535998410675411	0.8219097580523312	0.016014577339086566	0.10437241498651573	0.994409338402719	-0.8848557588322996	-0.4616261725422861	0.0627021760808576	0.4655897543696229	-0.8809129785704387	0.08496178442212815
431														9.673050342359184	0.5407798339147065	0.76641141016056	0.016067417613272794	0.10419343553945826	0.9944272552991127	-0.8848730083706621	-0.4615985134715574	0.06266236045588858	0.465555149416582	-0.8809486593163839	0.08478126267266167
432														9.688324050751284	0.5151361265270392	0.74723139009424	0.016166516255495422	0.10404293376285412	0.9944414068642656	-0.8848035130689063	-0.4617276631475222	0.06269217132346588	0.4656837843570284	-0.8808987643414805	0.08459302553148251
433														9.695974597877006	0.5319355449546641	0.7617208864493759	0.016229455034050433	0.10387701914557712	0.9944577264432746	-0.8846819197190303	-0.46196055853767704	0.06269244992667206	0.4659125515711597	-0.8807962348063181	0.0844007526001076
434														9.726300030862507	0.5398166079636774	0.7747821988671851	0.01632439965791771	0.10371584849606347	0.9944729944782564	-0.8844938496623986	-0.4623147818847977	0.06273493731727231	0.46626617278674504	-0.8806293574606479	0.08418901884003482
435														9.749052204156186	0.5900303556529399	0.821242902726518	0.016426770904809873	0.10349974695084385	0.9944938227956733	-0.8843408779754102	-0.4626050277226312	0.06275189134539533	0.46655264733931323	-0.8805023513352221	0.08392995027892919
436														9.713935091396133	0.625961166349459	0.872069455654324	0.016518700771396277	0.10327302369551722	0.9945158697082772	-0.8841877816164347	-0.462897212368108	0.06275458247844157	0.4668394792271042	-0.8803754047896958	0.08366628518313857
437														9.73181031000708	0.6733758453998014	0.8493794046571999	0.01660602255759458	0.10303320712235753	0.9945392894425533	-0.8841151590392741	-0.46303888465819387	0.06273258205634163	0.4669739024525637	-0.880329000729033	0.08340398613763211
438														9.7546833172733	0.664058278915591	0.8459062700558609	0.016631780132430385	0.10283609437208696	0.9945592599659014	-0.8839714087519467	-0.4633191499392001	0.0626890246272479	0.4672450453442232	-0.8802045801936684	0.08319834497970857
439														9.724635507232733	0.6560788605108505	0.8294199651771138	0.016644270358040836	0.10269272170669452	0.9945738651164726	-0.8838341208096825	-0.46358523811776753	0.06265759245189839	0.46750424079020275	-0.8800812075642588	0.08304729336596084
440														9.659288034136548	0.6839504721527214	0.8664965140241478	0.01665154387001394	0.1025487612189091	0.9945885971894171	-0.8837573960482127	-0.4637378494688576	0.06261047755832955	0.467649004079799	-0.8800175899051488	0.08290627503817644
441														9.659423252574301	0.624707166677032	0.8153530777496513	0.016699420488598127	0.1024072270426486	0.994602377437728	-0.8837183884190859	-0.46381448529945646	0.06259339578880618	0.46772100586281007	-0.8799936835431468	0.08275371652587848
442														9.664568918473709	0.6402247432016599	0.7958366337095667	0.016777240381297798	0.10230589405294638	0.9946114961366657	-0.8836600939925106	-0.4639213114812372	0.06262471587701951	0.4678283472496474	-0.8799491580742362	0.0826203165940867
443														9.717529601809835	0.5804321640452165	0.7579702708301055	0.016908006110035845	0.10215630368098816	0.9946246573193434	-0.8835587371561349	-0.4641058421663102	0.06268752078489348	0.4680150396348813	-0.8798692271498861	0.08241399025786117
444														9.725178936234371	0.5978378042036604	0.7724101366218945	0.017032254905201827	0.10205020805793963	0.9946334286198992	-0.88343230662341	-0.4643354217164949	0.06276922616543018	0.46824914512136195	-0.87976040555068	0.08224577143183476
445														9.763016982649193	0.6229413451803246	0.8021045159905753	0.01708653515666836	0.10198388884751391	0.9946392998126897	-0.8832367025600181	-0.46470049748366016	0.06282017899803116	0.46861602359207255	-0.8795753146001635	0.08213579231234974
446														9.747980910298999	0.6488948013417158	0.8185851359371314	0.017108380814681468	0.10188432189107827	0.9946491282149171	-0.8831502988135043	-0.4648663381192909	0.06280794049464578	0.46877804237348586	-0.8794992169617639	0.08202605898204574
447														9.775797479883824	0.6549134311213629	0.7978210279127271	0.017120362419021318	0.10170949676629876	0.9946668142942076	-0.8831383368274925	-0.46489839479963974	0.06273882799581526	0.46880013994901015	-0.8795025075463199	0.0818643268067592
448														9.750825147738095	0.6488542879307302	0.8503855845224112	0.017080113662389707	0.10150815875431773	0.9946880734298509	-0.883085208759701	-0.46501549855844804	0.06261868866619386	0.4689016781662394	-0.879463859295393	0.08169783599421843
449														9.753513856928391	0.6617173732122474	0.7963583377236606	0.017020041195298208	0.10132432023637727	0.9947078467200038	-0.8830934080858325	-0.46501876495964445	0.06247864299707956	0.46888842040837375	-0.8794833314873245	0.08156420074332282
450														9.725930633615373	0.5952359491494397	0.7649184464890195	0.0170169974418114	0.10115265093826648	0.9947253706457007	-0.8830731022110831	-0.46506798466346266	0.062399245126515235	0.46892677248090564	-0.8794770666988574	0.08141112455564326
451														9.685736515497274	0.6282829218384617	0.7484475252026397	0.01700634657368616	0.10110989553909255	0.9947298996211437	-0.8829481489847125	-0.46530619524117556	0.06239159298056085	0.4691623923341327	-0.879355976663749	0.08136163669112462
452														9.695912433057705	0.6462489013430934	0.798421336584344	0.0170236339421439	0.10103054074566364	0.9947376667865971	-0.8828761031664136	-0.4654441522678274	0.06238210943349104	0.4692973282952849	-0.8792920851209356	0.08127389924560813
453														9.67840300782789	0.6580248551178254	0.8679461259823762	0.017072235857362617	0.10099498023369441	0.9947404449053163	-0.8827998499720198	-0.46558351509798046	0.06242127328393837	0.4694389882106194	-0.8792223862235335	0.0812098018171798
454														9.663286723879512	0.6251105313113571	0.8348245946893205	0.017170196207512367	0.10089672708453934	0.9947487294919375	-0.882790486751334	-0.4655957022483466	0.062462777309468476	0.46945302306358494	-0.8792272132455281	0.08107630125359838
455														9.698538299419457	0.5894964376543785	0.7803828307816176	0.017252055914821596	0.10078555826970043	0.994758582677715	-0.8827773906136236	-0.46561758255838337	0.062484761613441075	0.46947464807816125	-0.8792283765079194	0.08093835157164214
456														9.708656978233106	0.6204160996459498	0.7427259193426516	0.017302542022627987	0.10068543855591228	0.994767844525726	-0.8827727365891604	-0.46562664841897633	0.06248295621204214	0.4694815412499624	-0.8792350463584324	0.08082583547755767
457														9.721331423793366	0.5806169711862761	0.7772470777675864	0.017320226139732164	0.10063409450678018	0.9947727322304677	-0.8827620468334817	-0.46564781225574925	0.062476264387341995	0.4695009887495777	-0.8792297162654568	0.0807708338382982
458														9.721251266799344	0.5213240528752142	0.727426786955947	0.017263774090091444	0.10062218472597007	0.9947749182830952	-0.8827207765833964	-0.4657324741036337	0.062428304104096444	0.46958065621591744	-0.8791862365314194	0.08078099282348183
459														9.73903518311883	0.5556638260081793	0.7937731850160317	0.01724761023820126	0.10052616991542002	0.9947849059486213	-0.8825772756775778	-0.4660089717272511	0.0623938356510908	0.46985090443524347	-0.879050696735886	0.08068457206639612
460														9.729105600958508	0.5961117104771064	0.7919545210316457	0.017195351731665143	0.10036115254743794	0.9948024723221064	-0.8824970610989924	-0.46617548254727265	0.06228448140154813	0.4700034649132564	-0.8789812617633941	0.0805523707805425
461														9.729255496768323	0.5952033283352329	0.7907954036794366	0.01717361168068754	0.10020403538077466	0.9948186861711278	-0.8824284705739351	-0.46631610999430617	0.06220353591495531	0.47013302519859834	-0.8789245911073293	0.08041456189290247
462														9.764665061185273	0.6175613208708242	0.7860422896426629	0.01715846265169091	0.10004695072955588	0.9948347575397373	-0.8823183726710142	-0.46653346988732386	0.06213542244216674	0.47034017094715985	-0.8788271326743451	0.08026826563957351
463														9.762347631912652	0.6747767441316925	0.8002706900687963	0.01713365245112569	0.09994197468956312	0.9948457366088654	-0.8822119020478276	-0.46674180304027363	0.06208259965457219	0.47054075045509025	-0.8787284512236225	0.08017300774759145
464														9.73218958032745	0.6667558004549875	0.7846312569703877	0.017142462665254765	0.09983837424002018	0.9948559870669126	-0.8821163629924875	-0.4669256158377952	0.06205796818622589	0.4707195110834873	-0.8786425714154796	0.08006480863473897
465														9.709631407988518	0.6755075555839495	0.7850463641261922	0.017150171298260186	0.09972927007593091	0.9948667972721587	-0.882053415455884	-0.46704900187006904	0.06202420603911013	0.4708371734549536	-0.8785893822157733	0.07995657290464403
466														9.717309422241762	0.6919640148091643	0.8004579577351667	0.017154352374291693	0.09966767430208406	0.9948728978587325	-0.8820352047113471	-0.46708633507047836	0.06200204222636929	0.4708711350724637	-0.8785765250048752	0.07989783392512712
467														9.687104815575609	0.6841200784495763	0.7852064497544307	0.017197702745779253	0.0995945759784746	0.9948794698132712	-0.8821102420735065	-0.4669458123308792	0.061992976825405555	0.47072896644384193	-0.8786595067387157	0.07982300024672756
468														9.707227979481262	0.6015406152960167	0.7864765207714663	0.017162845414506578	0.0995215423780349	0.9948873802295286	-0.8822020037635645	-0.46678309079376373	0.06191260537703569	0.470558244315015	-0.8787542368328689	0.07978677807414386
469														9.687077882471517	0.551930303179289	0.7721955165554911	0.017124053890641644	0.09941985091791944	0.9948982159104568	-0.8822822371158532	-0.4666440552607448	0.06181730954719056	0.470409205743464	-0.8788395865761092	0.07972553053155401
470														9.679574901196668	0.5340731284269029	0.7555446857018294	0.017025458349002376	0.09928727099648571	0.9949131477601842	-0.8822607195314489	-0.466703912189674	0.06167236916727303	0.4704531395791272	-0.87882278996674	0.07965141113137164
471														9.687316266263377	0.5495832964905134	0.7708778738325959	0.01698042667152294	0.09913956607211827	0.994928646461185	-0.8822342231821644	-0.46676776284806426	0.061568100603939135	0.47050445327989887	-0.8788055541499757	0.07953840229057968
472														9.672432699963654	0.5742849329271388	0.7872681672310318	0.016945313040911014	0.09896741468560383	0.9949463840812702	-0.8822195041238443	-0.4668099524287771	0.06145905024422593	0.47053331753386485	-0.8788025484395752	0.0794007427338338
473														9.7078660492967	0.5963457950425971	0.7825471653519543	0.01692665274263666	0.09880811106977894	0.9949625347789497	-0.8822331711691398	-0.4667964098763588	0.061365653385147156	0.47050836349184455	-0.8788276673576936	0.07927049243483703
