// Start Time: 1748342924.2155054
// Update Rate: 100Hz 
// Filter Profile: 46.1 human
// Option Flags: AHS Disabled ICC Disabled 
// Firmware Version: 4.0.2 
PacketCounter	SampleTimeFine	Year	Month	Day	Second	UTC_Nano	UTC_Year	UTC_Month	UTC_Day	UTC_Hour	UTC_Minute	UTC_Second	UTC_Valid	Acc_X	Acc_Y	Acc_Z	Mat[1][1]	Mat[2][1]	Mat[3][1]	Mat[1][2]	Mat[2][2]	Mat[3][2]	Mat[1][3]	Mat[2][3]	Mat[3][3]
0														8.856752957116122	3.5033295938965727	-2.3581796574128413	-0.3864699370855077	0.19993300289350213	0.900370913614556	0.9197117753420824	0.15665449140046545	0.359985583907434	-0.06907414875507667	0.967205337391212	-0.24442298847635663
1														8.877787750119278	3.574452273639021	-2.317590040214197	-0.3865043805424609	0.19987839168565702	0.9003682537487889	0.9196968732401742	0.15664847977709534	0.3600262700634104	-0.06907984636444536	0.9672175982273481	-0.244372855500738
2														8.83820774442796	3.5181045377905837	-2.314877460357126	-0.38651891028001706	0.19976019831150216	0.9003882469060205	0.9196878602346353	0.15664605098027212	0.3600503498808513	-0.0691185339325538	0.9672424090592983	-0.24426369026971465
3														8.804271933425438	3.5420728467832454	-2.309408051935503	-0.3864544204319118	0.19968757426391465	0.9004320371983823	0.9197086700539159	0.15668659772246024	0.3599795443102531	-0.06920219040097447	0.9672508375694246	-0.24420662166483895
4														8.80102340425669	3.521079001599477	-2.359165463618746	-0.38639512787525104	0.1996150638894727	0.9004735595355757	0.9197325293743246	0.15665541566208777	0.3599321535434776	-0.06921617993630858	0.967270855041203	-0.2441233569793852
5														8.795683828832253	3.548118300473963	-2.2871921554212444	-0.38635403422656034	0.1996918614846892	0.9004741643676635	0.9197658193656373	0.15645007634775548	0.3599363987393327	-0.06900288228414958	0.9672882373251324	-0.24411486675112312
6														8.81814826679077	3.553310489179174	-2.279790819657901	-0.3863316682439608	0.19976147097829178	0.900468320833347	0.9197816191779373	0.1563816794043025	0.35992574702166297	-0.06891745159428314	0.967284924445367	-0.2441521243128362
7														8.810624217029206	3.5124718379316517	-2.381406116566139	-0.3863282970464955	0.19987220125362065	0.9004451954823163	0.9197983854299894	0.156209211233878	0.3599577926452963	-0.06871227737121799	0.9672899180140986	-0.2441901665643786
8														8.872009392144795	3.557024095358607	-2.2868581756275796	-0.38638999741172475	0.19994322190580482	0.9004029530793938	0.9197671674737677	0.1563297811288595	0.3599852179874676	-0.06878319225980267	0.9672557611852868	-0.2443054745936367
9														8.901021042048832	3.5781452981245945	-2.3095627273963246	-0.38643456933317866	0.19989418721457936	0.9003947120802647	0.9197633469290221	0.15611297936482996	0.3600890491527878	-0.06858359330192115	0.9673009105710892	-0.24418279861230566
10														8.877295662885652	3.530067288510722	-2.3588481188247026	-0.38650143618933785	0.19990295093745608	0.900364065270308	0.9197392774999982	0.15607873463903846	0.360165364821851	-0.06852956476849681	0.9673046256479769	-0.2441832507619366
11														8.89456042799394	3.58100884241763	-2.3687422866564782	-0.38647145386109194	0.1999361759261018	0.9003695579630291	0.9197606837577017	0.15595904727896462	0.36016254689431887	-0.0684112561210411	0.9673170633912567	-0.24416715362238384
12														8.830132169110664	3.5411506884312285	-2.3830638874533743	-0.38642141245397577	0.19990084459646484	0.900398880678277	0.919786927096594	0.1558568216203216	0.360139778275902	-0.06834106188287503	0.9673408414225211	-0.24409259672650824
13														8.880384329951287	3.50681028816434	-2.348915799559128	-0.3863801555525257	0.1998594864607483	0.9004257665498313	0.9197959537745617	0.15594597895199594	0.3600781235629946	-0.06845274877716478	0.9673350181402247	-0.2440843785753213
14														8.868715268812137	3.5362330272445615	-2.336425171139122	-0.38634612735264867	0.1998904972153464	0.9004334839412693	0.9198093139357213	0.1559618666461606	0.3600371121833728	-0.06846528957587422	0.9673260491040476	-0.24411640429935239
15														8.88191334425575	3.548570473777805	-2.307715491904381	-0.3863019006975124	0.19995962949040408	0.9004371094593724	0.9198441404411883	0.1557469182320415	0.36004118480700725	-0.06824660294476947	0.9673463929923356	-0.24409702405235684
16														8.82786393585546	3.544143238231523	-2.3024925400332554	-0.38627939124616584	0.19998091266929113	0.9004420394819697	0.9198566517212079	0.15570564657132338	0.3600270710794602	-0.06820536769741892	0.9673486373556142	-0.24409965510728687
17														8.83737227129704	3.5362483708134036	-2.3240052076496287	-0.38621285587520515	0.20005273356984	0.9004546261461217	0.9198891654894829	0.155650458498667	0.35996785687643956	-0.06814362165148097	0.9673426686342275	-0.24414055023250536
18														8.871890025748508	3.5110903825556123	-2.328987066394758	-0.38616398943979124	0.20007554097311075	0.9004705165435798	0.9199022461697739	0.1557510972359358	0.3598908906899511	-0.06824390633418581	0.9673217528899671	-0.24419540461305111
19														8.811163984025542	3.491380945282806	-2.2931537236201565	-0.38613949057325236	0.20002746048721143	0.9004917039433872	0.9199187403223505	0.15563681378229108	0.3598981708753672	-0.06816014248494284	0.967350090322388	-0.2441065294696124
20														8.83382793653967	3.496499230147949	-2.2850903432748546	-0.3860883305447624	0.20004053772926317	0.9005107352398113	0.9199368922593085	0.15567457362521087	0.3598354365357785	-0.06820495053472142	0.9673413101856014	-0.2441288068437647
21														8.804030039184129	3.5579132314272988	-2.319896235209	-0.3860489349171623	0.20002980171531481	0.9005300096471283	0.919953704152757	0.15565509776843736	0.35980087931287835	-0.0682011881490846	0.9673466643165884	-0.24410864173687724
22														8.829250113640326	3.5403871566082747	-2.302955951018148	-0.38601168007767506	0.19998619454670247	0.9005556644840671	0.9199677606300358	0.15564941177759611	0.35976739709796646	-0.06822244678233258	0.967356595369059	-0.24406334249742426
23														8.841435660395543	3.5099743184553684	-2.314892870264417	-0.3859779449357131	0.19994178294311915	0.9005799850411569	0.9199889528889686	0.15552219168475276	0.3597682232435631	-0.06812747305942646	0.9673862368915003	-0.24397236746697254
24														8.809960038621766	3.511289674589036	-2.301028168034542	-0.3859520272248483	0.19989679809240551	0.9006010786099662	0.9199970344818713	0.15553646943949131	0.35974138380072557	-0.06816516137729567	0.9673932379269057	-0.24393407713500181
25														8.8169610219219	3.5261457052597445	-2.331081525216668	-0.38594535779110606	0.19989658712335623	0.9006039835887527	0.9200125109130683	0.1553543239441496	0.3597805078034221	-0.06799382738842658	0.9674225490902574	-0.243865641181332
26														8.846303097443021	3.5466036926458364	-2.353566212426403	-0.38592428494465825	0.19991100184954336	0.9006098143088747	0.9200188723171185	0.15538933564747648	0.35974911945322813	-0.06802735383866731	0.9674139474426382	-0.2438904127331802
27														8.873785788117614	3.5067899659030917	-2.3282437419748234	-0.38594898231173236	0.19993488424685402	0.9005939290899845	0.9199955427527862	0.1555901029624043	0.3597220054085594	-0.06820252464202037	0.967376742495573	-0.24398904424401738
28														8.852515615696761	3.5439177085111515	-2.295030846233828	-0.38595055673842954	0.19994656455977267	0.9005906612185375	0.9199899338157786	0.15566537014342152	0.3597037867687142	-0.06826924220274694	0.9673622195738564	-0.24402796296778462
29														8.862044501020339	3.536078144283288	-2.316347808627149	-0.38589366813555526	0.1999494397656627	0.9006144005234888	0.9200232465464127	0.155516291512336	0.35968306728069455	-0.06814178385604863	0.9673856028552665	-0.24397088490487503
30														8.81056423632035	3.509134415661916	-2.3020024300439896	-0.3858919859503459	0.19999152728039277	0.900605776239168	0.9200197766553124	0.15559187304037506	0.3596592548606212	-0.06819813591592938	0.9673647492336301	-0.24403781714674613
31														8.830321436983711	3.537212170262731	-2.303727041798163	-0.3859252931677303	0.20006903319383568	0.9005742890235573	0.9200049738308542	0.15564411532386427	0.35967451604407746	-0.06820935580909032	0.9673403182551299	-0.24413150648405338
32														8.868615370029259	3.550862143233188	-2.3481347537636426	-0.3859870847173159	0.2001318371549981	0.900533851772599	0.9199790510929067	0.15568681444568389	0.35972233925341757	-0.06820935406249762	0.9673204554669156	-0.24421019727615037
33														8.886464866078597	3.5189998527554716	-2.3017606106771193	-0.3860472918676	0.20013434440925765	0.900507486159648	0.9199427485460889	0.15586137197192826	0.35973958932051914	-0.06835808539711724	0.9672918261387848	-0.24428199943085357
34														8.833805208989395	3.5756484111750697	-2.344896129146864	-0.3860960596378129	0.2001653374869059	0.9004796890551763	0.9199205614570869	0.15591200751699424	0.35977438280191415	-0.0683812352961829	0.9672772526947861	-0.24433322139773445
35														8.805718002951618	3.489448952639294	-2.355669808972306	-0.38615171638154056	0.2001870243239408	0.9004510021249996	0.9198894793188546	0.15604568081078168	0.3597959023374035	-0.06848501861047424	0.9672512087315401	-0.24440724505075012
36														8.858350183625866	3.558889935913792	-2.3293439470284265	-0.38617268830962825	0.2002263124871848	0.9004332727034794	0.9198740012372848	0.15616156556497543	0.35978519603786285	-0.06857460646202967	0.9672243737768811	-0.24448831080544042
37														8.852777796997605	3.4781065863085363	-2.3321975975009632	-0.386224744158983	0.20019992380478308	0.9004168132081316	0.9198403110923368	0.15633261467650822	0.3597970479005622	-0.06873317313263788	0.9672022043486902	-0.244531484300393
38														8.85006079635812	3.5007975748441758	-2.3416366240217354	-0.38626693719072	0.20024328017048737	0.9003890725568946	0.9198190405065549	0.15641197441169777	0.35981693537441445	-0.06878070917707624	0.9671803983782956	-0.24460435613026257
39														8.847342686002412	3.5233422545888935	-2.3512925643798535	-0.38630132567349806	0.20026382701323814	0.9003697492546656	0.9198052960901522	0.15642020286828354	0.3598484923119064	-0.06877138261955423	0.967174813425503	-0.24462906043219393
40														8.857701759145387	3.558881457920324	-2.3318214094049936	-0.3863385815788183	0.2003044052557963	0.9003447370972902	0.9197839019606999	0.1565278356023813	0.3598563746490864	-0.06884819589224167	0.96714899675115	-0.24470950943032002
41														8.844413253218994	3.5459368649515577	-2.361659615009673	-0.3863939597266541	0.20036296333407927	0.9003079422124094	0.919756705657341	0.15662230897069934	0.35988477979909317	-0.06890072775458761	0.9671215721183521	-0.24480309323661537
42														8.866565267035575	3.5517931445865583	-2.3544602731928794	-0.38644747863998863	0.20040493023274347	0.9002756301218007	0.9197294232693038	0.15672169024906707	0.3599112387494861	-0.06896473175116147	0.9670967768242666	-0.24488301294823547
43														8.873162566467503	3.5669506554640877	-2.385472579377219	-0.386467456191145	0.2004824188096206	0.9002498014736744	0.9197247413368892	0.15670630734396998	0.35992990069096825	-0.06891520498364972	0.9670832089261305	-0.24495052875060389
44														8.863652981864197	3.5742790423949566	-2.364917505102217	-0.3865046994609388	0.2005230305554721	0.9002247672173094	0.9197033383320583	0.15681388031052754	0.35993773962009473	-0.06899193253907981	0.9670573515354739	-0.24503100229505315
45														8.846319546939322	3.523470123390895	-2.3549477079905774	-0.3865147545068016	0.20047546830989244	0.9002310432075069	0.9197145334336059	0.15658125817943444	0.3600103978747696	-0.06878605628724105	0.967104904440503	-0.2449011683671066
46														8.81208152158361	3.547726286412214	-2.3503327298305634	-0.3865422429746738	0.20045394870271993	0.9002240325861083	0.9196947570589913	0.15669604452808963	0.3600109768707796	-0.06889592320529792	0.9670907734430814	-0.2449260861708108
47														8.860510094519132	3.5794942406166617	-2.2846507391953583	-0.38657053904318905	0.20052282537675858	0.9001965423432712	0.919697671501305	0.15652353420965648	0.36007856958391277	-0.06869797216029344	0.9671044306285856	-0.24492776257423962
48														8.834141167951927	3.553518157463503	-2.3435912864801725	-0.38663557345853206	0.20055512610067278	0.9001614159311295	0.9196695870108966	0.15656556999335092	0.3601320216529828	-0.06870796215577485	0.967090928345107	-0.24497826893216515
49														8.88565607107653	3.580086306620893	-2.3583653444018773	-0.3866262256608798	0.20056679972421954	0.9001628299811136	0.9196695272042577	0.15662369837617146	0.3601068977940679	-0.06876134352323005	0.967079094984146	-0.2450100032274713
50														8.839313967236063	3.5083065467877472	-2.3254993068046357	-0.3865988983008569	0.20052862097514523	0.9001830724926847	0.9196838453546935	0.15656078741291382	0.3600976873547685	-0.06872347798364015	0.967097198845315	-0.2449491611730425
51														8.817061297980844	3.5025748407523523	-2.3328689862086347	-0.38662944961188217	0.20045650938175535	0.9001860121882008	0.919668131252783	0.15658106995928103	0.3601290003435171	-0.06876188661480442	0.9671088648011088	-0.24489231627857136
52														8.785193159968443	3.5045781539295078	-2.319489558391544	-0.3866944632684607	0.20048879351373206	0.9001508961018283	0.9196400445293773	0.15662316683300617	0.36018241504715975	-0.06877194613736931	0.967095355839644	-0.24494283442850567
53														8.856377765473214	3.5595236355950117	-2.3358666846686056	-0.3867432052198224	0.2005594248369777	0.900114220710549	0.9196232174730887	0.15661375912600525	0.3602294662251629	-0.06872285719280374	0.9670822341256624	-0.24500841074904997
54														8.861777713353618	3.5318031527536475	-2.4081457266605297	-0.3867896662794562	0.20058063134138604	0.9000895313190334	0.919606113534678	0.15660125319080517	0.3602785636819289	-0.06869024682639607	0.9670798611437216	-0.2450269212988003
55														8.836253030178089	3.5317676488185317	-2.335048400312965	-0.38680352172192933	0.20053968725654114	0.9000927004584368	0.9196113872055164	0.15643236150675668	0.3603384697688615	-0.06854146267375893	0.9671156860006292	-0.24492716832983977
56														8.804516366711876	3.533722028031971	-2.321238885126453	-0.3868394580896889	0.2005305244888515	0.9000792978471965	0.9195980836487629	0.15641339555173506	0.36038065186896406	-0.0685171381071839	0.9671206535072048	-0.24491435920623048
57														8.841247401316808	3.4869940140129048	-2.3169968446876634	-0.3868635124546177	0.20061589794642914	0.900049934293883	0.9196018159215431	0.15625868707862367	0.36043823724219964	-0.06833098041939173	0.9671279564791888	-0.24493752858905068
58														8.83598557574061	3.532091323682073	-2.3355708379517437	-0.3868766259770178	0.20066609456174306	0.9000331075943689	0.9195986889248295	0.15624871130817786	0.3604505396615031	-0.06829881111976821	0.967119154348559	-0.24498125171480967
59														8.867645462908087	3.5302165968337618	-2.3495471598935946	-0.38687889946672227	0.20074735695632384	0.9000140086812358	0.9196019966864473	0.15622150022139392	0.3604538951917095	-0.06824137189210588	0.9671066857093	-0.2450464723652556
60														8.887499651564395	3.5582324384511472	-2.3509930725023183	-0.38687737462164984	0.2007326618280787	0.9000179417552039	0.9196003765629241	0.15624722261102378	0.3604468793756842	-0.06827184215463528	0.9671055805349048	-0.2450423466812567
61														8.854753281858109	3.5167439038352546	-2.3786187737734057	-0.38687091965040366	0.2006837281763147	0.9000316287631819	0.9196078404638575	0.15615848217958964	0.3604662927386794	-0.0682078535525894	0.9671300686508624	-0.24496350549648552
62														8.845548947516933	3.524104833028926	-2.3568917813168575	-0.3868848303852318	0.20065388198819167	0.9000323036762954	0.9195992144830575	0.15618982852299726	0.3604747178209595	-0.06824523968698526	0.9671311995324241	-0.24494862757533545
63														8.8232382371	3.518225034500819	-2.3646975443452147	-0.3868738550751222	0.20063682480679718	0.9000408239578692	0.9195942067200993	0.15631612696464045	0.3604327446523219	-0.06837481426771691	0.9671143329421921	-0.24497908439626892
64														8.845742850223166	3.5236806415098996	-2.3567982709722104	-0.3868772518051198	0.20062489980527248	0.9000420221377676	0.9195926938756196	0.1563135094334024	0.36043773961558767	-0.06837594172147438	0.9671172298882579	-0.2449673330200652
65														8.865719421945148	3.5515623352889634	-2.357990977164388	-0.38683510372081426	0.2006609068012694	0.9000521112752302	0.9196197361577838	0.15618403883265292	0.3604248699562903	-0.06825059265966299	0.967130677052286	-0.24494919903112994
66														8.849769194264875	3.5434009136660674	-2.3063926852584475	-0.3867995898145395	0.20065030328834238	0.9000697379145686	0.9196361007158083	0.15614941132256818	0.36039811820241097	-0.06823136800275648	0.9671384684386779	-0.24492379077288673
67														8.875445394090606	3.5432963005426354	-2.379117139971606	-0.3867915744338909	0.20065300211799864	0.9000725807888975	0.9196462092628566	0.1560526364623702	0.36041424006495865	-0.06814049996448612	0.9671535283470656	-0.24488961772686912
68														8.878130769589916	3.520507588930578	-2.369965850763059	-0.3867803653342422	0.20062448056915771	0.9000837554296075	0.9196495233272064	0.15605788074895688	0.3604035128854687	-0.06815939580096003	0.9671585990169863	-0.24486433205256344
69														8.828425893746129	3.5539748957624107	-2.4033490698437756	-0.38676482562370784	0.20058389349524858	0.9000994785747574	0.9196539346661006	0.15606731829248793	0.36038816935930496	-0.06818804963791464	0.9671654945412798	-0.24482911602850516
70														8.83742367275308	3.5292451576305215	-2.3344320104137264	-0.38676823010261385	0.2005236542003559	0.9001114377061477	0.9196491158223103	0.1560921987028255	0.36038969085055816	-0.06823371564362335	0.9671739707055056	-0.2447829047119333
71														8.844490619469378	3.5439016844162756	-2.364423127107804	-0.38671149800320903	0.20050363666116755	0.9001402718453164	0.9196616703615889	0.15622799066429138	0.3602988023859224	-0.06838588582336202	0.9671561955644208	-0.24481066970520204
72														8.826035178116944	3.5583952079540935	-2.3214848016292122	-0.3867084990004128	0.2004475245675731	0.9001540572010882	0.9196629416377812	0.15620452843986748	0.36030573000303745	-0.06838574836170819	0.9671716162034589	-0.24474977881787416
73														8.813308166063837	3.5449026159509875	-2.3499938671913823	-0.3866388609801765	0.20040965010993056	0.9001924035020328	0.9196904731731685	0.1561941696542716	0.36023994076243887	-0.06840924451026059	0.9671811378996322	-0.2447055817849433
74														8.835938498930897	3.550118873563558	-2.3419667798622816	-0.386624311561683	0.2004598641567067	0.9001874719033416	0.9196992676744687	0.1561722318560794	0.3602269993158993	-0.06837323122758338	0.967174274295675	-0.24474277188945487
75														8.846527922594069	3.585525287972352	-2.321899368089841	-0.3866010811074213	0.2004640563724217	0.900196515317232	0.9197106664027824	0.15614415812664312	0.3602100664721511	-0.06835125596155994	0.9671779381197838	-0.24473443121645327
76														8.86103383897462	3.5330073136815265	-2.3248843300294904	-0.38663060341658095	0.20045910868585415	0.9001849378025621	0.9197034926821733	0.15607648212277916	0.3602577095308145	-0.06828075900238229	0.9671898869782759	-0.24470688686060277
77														8.845472922216555	3.5425376772615773	-2.3627919351919755	-0.3866241781100847	0.20047314874759842	0.9001845708141885	0.9197233509828726	0.15583681712119749	0.36031076043655713	-0.06804926566493613	0.9672256215903079	-0.2446301174870037
78														8.868091419641837	3.548093961911006	-2.3542899611638104	-0.3866018508813538	0.20038939329660527	0.9002128081455687	0.919734444631942	0.15577262865340244	0.360310199022985	-0.06802617329150118	0.9672533169840402	-0.2445270139078442
79														8.816772945544917	3.5213765424572627	-2.33898875015025	-0.38655770286054747	0.20035236797814798	0.9002400074450848	0.9197479175335848	0.15581743933992856	0.360256427826323	-0.06809486435709866	0.9672537693093253	-0.24450610463767955
80														8.826422278975704	3.513481322642751	-2.35986305444129	-0.38651081880830135	0.2003431201359917	0.9002621957842685	0.9197702716966045	0.15576268418861822	0.36022303301914393	-0.06805904970899129	0.9672645038605173	-0.2444736086455483
81														8.838245418948963	3.591880842391997	-2.2981884352464164	-0.3864789151632227	0.2003633214997016	0.9002713965976405	0.9197869515375887	0.15571511334403948	0.3602010095175233	-0.06801479188712173	0.9672679788320612	-0.24447217676187888
82														8.830419999576334	3.5334638112947627	-2.309095277755736	-0.3864581964310717	0.20036097706868766	0.9002808124576043	0.919803585273137	0.15559541603539698	0.3602102594700143	-0.0679074880254486	0.9672877262618671	-0.24442386891058954
83														8.858609057653371	3.5110386078705322	-2.372682881087038	-0.3864415238540616	0.2004209217427576	0.9002746263052928	0.9198188843198388	0.1554963975661937	0.36021395085774166	-0.06779504915521528	0.9672912304325517	-0.24444121346107392
84														8.927035840147365	3.571056902337861	-2.3074848868119977	-0.38642469317204525	0.20041309948745428	0.9002835920201602	0.9198293988541675	0.15543931104730896	0.3602117399318335	-0.06774831001930276	0.9673020263263019	-0.24441144890237604
85														8.936708289540045	3.563481879433833	-2.3277743537603777	-0.38639679258917214	0.2002743069658235	0.9003264522639319	0.9198472359555261	0.15528843013969218	0.3602312673404786	-0.0676652139712699	0.9673550048633168	-0.24422471902760623
86														8.888797118801357	3.531488976226452	-2.3920122508073627	-0.38635459064671507	0.20008955800756173	0.9003856390805818	0.9198687395425718	0.15514845738885388	0.36023666968011336	-0.06761384694401973	0.9674156939734839	-0.24399844826398612
87														8.842247174245019	3.5426358569113745	-2.414021099645554	-0.3862950259897805	0.19981569938929272	0.9004720091002956	0.9199036555738724	0.1548801201708397	0.36026297733418644	-0.06747901419983182	0.9675152891057764	-0.2436406123559553
88														8.784550925990713	3.5007606498488912	-2.366778652244039	-0.3862191993838057	0.19966813812359807	0.9005372644402828	0.9199340717792901	0.15481990576525334	0.36021118855251283	-0.06749839706917504	0.9675553893173734	-0.2434759433619637
89														8.845384106954151	3.501990189413376	-2.3118992136565675	-0.38615930849057745	0.19965222560358853	0.9005664757682318	0.9199478337635986	0.15495944959452987	0.36011602593473	-0.06765331935494223	0.9675363340944332	-0.24350866634960672
90														8.88928353093754	3.4696530713873432	-2.3375456149407596	-0.3861300367957061	0.19968580058269153	0.9005715827905056	0.9199614463099546	0.15494558479213982	0.36008721590292325	-0.06763528655549017	0.9675316257358576	-0.2435323822687352
91														8.91479641777551	3.5781978770680105	-2.336455656234916	-0.3861006216014637	0.19964243560622685	0.9005938084975804	0.9199753786850943	0.1548971801839306	0.36007244574430314	-0.0676137013642984	0.9675483251374477	-0.24347202285178265
92														8.876581020292459	3.5645471501825665	-2.2916729359415076	-0.3860501490327821	0.19948519976059792	0.9006502859091542	0.9199989280492338	0.1547860723262463	0.36006005638236904	-0.06758146802213971	0.9675985360108232	-0.24328135623118383
93														8.876122991395443	3.5211817136993284	-2.3310207044650713	-0.3860014124184664	0.19928970075692876	0.9007144524116191	0.9200164399460604	0.15473612790268831	0.36003677721957755	-0.06762144511858553	0.9676468084450527	-0.2430781649309075
94														8.869805963920701	3.5059197678766587	-2.298836521600328	-0.3859832046388772	0.1991436442106046	0.9007545585270295	0.9200231746544995	0.15468551987046006	0.36004131435303754	-0.06763374775480047	0.9676849688369281	-0.24292278042973736
95														8.864222932941756	3.5079963238913936	-2.3561589129433216	-0.38598653609404254	0.19887191833198625	0.9008131626775211	0.9200293701645523	0.15446911511514633	0.360118384021367	-0.06753037826592889	0.9677754143263299	-0.24259100444320084
96														8.801361960537983	3.5114809501694624	-2.3268891371048723	-0.3859206365929817	0.1986330366949673	0.9008940997614557	0.9200533285697783	0.15440777674215375	0.3600834779175754	-0.06758058034183723	0.9678342601989667	-0.24234213407036653
97														8.81617129082601	3.567354868710613	-2.253852675330971	-0.3858788374370563	0.1984145479445053	0.9009601489423399	0.9200788265089431	0.15419444386041037	0.3601097422904642	-0.06747203737958185	0.9679130852749931	-0.24205739717119157
98														8.827733270951969	3.493974214207668	-2.3052436088728263	-0.3858179445451456	0.19822671200794506	0.9010275713392337	0.9201061234268044	0.15407690221209805	0.3600903078912588	-0.06744801924042648	0.967970288206845	-0.24183524525862699
99														8.835293843196084	3.5086764027907376	-2.3336682870749588	-0.3857530147181947	0.19811693796809066	0.901079513986403	0.9201450575894279	0.15384643759555194	0.36008935923310215	-0.06728807197098535	0.9680294171817846	-0.24164304840222872
100														8.84197195211027	3.5062043269271075	-2.272465697463145	-0.3856855081103159	0.19794149192530325	0.9011469661537309	0.9201733489397399	0.1537573894794267	0.3600550972858132	-0.06728816192103881	0.9680794548769527	-0.24144248240612312
101														8.84957665861416	3.5210264830093965	-2.3005580399287866	-0.3856634962627574	0.19770200800487936	0.9012089567249235	0.9201891886013743	0.1535602778065074	0.3600987340454463	-0.06719765495559221	0.968159675420758	-0.2411458439568102
102														8.821801704000725	3.543371569375941	-2.234797757731518	-0.38565286556522294	0.19755991179600396	0.9012446662990506	0.9201959870991426	0.15346674003211436	0.3601212365725603	-0.0671655611751032	0.9682035121579917	-0.2409787261086815
103														8.847939188726226	3.5435471011000486	-2.3063407517991683	-0.3856326192639328	0.19751579028018784	0.9012630002111663	0.9202163967056569	0.15327130449277485	0.36015231562929245	-0.06700198649067807	0.9682434713485433	-0.24086368343365308
104														8.902344226354536	3.5473483301808995	-2.3109356783682804	-0.3856345988838584	0.1974622810105195	0.9012738783088129	0.920217741493075	0.15321904864469954	0.3601711140191534	-0.0669721164744731	0.9682626558483687	-0.24079486062703617
105														8.860551704769065	3.5133618551763752	-2.3162259097200097	-0.3855675870441631	0.1972420820287521	0.9013507624104534	0.9202539232688896	0.15299498710298667	0.36017391719775393	-0.06686069494971814	0.9683429635198063	-0.2405027078278345
106														8.797693574991982	3.516618793409748	-2.2871964001848504	-0.38549722513670137	0.19704011539943217	0.9014250286825198	0.9202860016963437	0.15285685582019012	0.3601506028184915	-0.06682487930150405	0.9684058934930868	-0.24025915373653373
107														8.79820839113939	3.5162926293860757	-2.2857169731382023	-0.3854751296802447	0.19696960413213194	0.9014498873736855	0.9202858328228584	0.15295892887363066	0.3601076949793909	-0.06695453908090876	0.9684041207707985	-0.24023019912284188
108														8.877345011268831	3.5031875302206763	-2.273764074279925	-0.3854988435759111	0.19699359303391661	0.9014345045011439	0.920280725109516	0.15290533327807182	0.36014350757305796	-0.06688817977444672	0.9684077051318363	-0.24023423579446762
109														8.929207913055626	3.5294942352655125	-2.2876460105920304	-0.38546761013250674	0.19691551366600502	0.9014649200142997	0.9202861963210704	0.1529754992903491	0.3600997271281459	-0.06699282349349495	0.9684125035822919	-0.24018572918857534
110														8.807772949232156	3.591333471950614	-2.3624828063503096	-0.38544654742178586	0.1968396093480338	0.9014905031514966	0.9203032548267798	0.1528201074000051	0.3601221097481882	-0.0668795801112732	0.9684524680984423	-0.24005611593578582
111														8.903943305177506	3.5029188814789696	-2.3444495059584205	-0.3854098718857613	0.19686517562171435	0.9015006008208941	0.9203250925188047	0.1527261760790886	0.3601061499343121	-0.06679037904709828	0.9684620889677051	-0.2400421369240287
112														8.886360235276465	3.560312748189453	-2.2601386098224316	-0.38535793424584075	0.19675613251151902	0.9015466082421297	0.9203408411680825	0.1527550194261395	0.36005366283117646	-0.06687300346032793	0.9684796995080639	-0.23994806323237047
113														8.872995613968353	3.5034217221133743	-2.329797379543288	-0.38527899738709304	0.19666243676288975	0.9016007875655827	0.9203720379464433	0.15272230548943666	0.3599877903100358	-0.06689847486084777	0.9685038891880992	-0.23984330444858984
114														8.849813131871299	3.562628834239686	-2.303995991371287	-0.38519484091976464	0.1964936893581587	0.9016735354723555	0.9204012397262059	0.1527185293189901	0.35991472422382	-0.06698128424612965	0.9685387348191422	-0.23967942489015404
115														8.822543220380286	3.475788602506449	-2.3125156648494745	-0.38517017843846435	0.19634645509303195	0.9017161433700085	0.9204020827393745	0.15278978597861448	0.3598823243639941	-0.06711139791945431	0.968557355489601	-0.23956775533507738
116														8.813486865422107	3.4831404415217997	-2.2898683875378456	-0.38516539149472273	0.19620859679104063	0.9017481953073199	0.9203979551709999	0.1528218547469052	0.3598792642383807	-0.06719542627113434	0.9685802327412051	-0.23945168078598641
117														8.818314582913098	3.5204884386518382	-2.328501915671975	-0.3851377818898951	0.19619812671728626	0.9017622658071018	0.920409509119376	0.1528099549824303	0.35985476678918094	-0.06719542010851443	0.9685842310975821	-0.23943550861462667
118														8.878645994371553	3.5216132400001077	-2.2744305003762118	-0.38507698973215904	0.19622190644376214	0.90178305340608	0.9204289223033869	0.15288921296317287	0.3597714379254224	-0.06727786386504248	0.9685669063059483	-0.23948243577072575
119														8.934168191637546	3.5675453787862894	-2.2384291554877596	-0.38500525487743087	0.1961820736338743	0.9018223481936327	0.9204563713978496	0.15289011256153062	0.35970082267632697	-0.06731286704537598	0.96857483317792	-0.23944053638533283
120														8.896863508480259	3.5705840442305217	-2.2842394098102146	-0.3849678653169302	0.19608965807228246	0.9018584083271732	0.9204672714624822	0.15291095734076957	0.3596640672788202	-0.06737762862954044	0.9685902565699418	-0.23935991735884898
121														8.865523584500295	3.5718992517691217	-2.269866091317763	-0.3849295258014807	0.19590693572902063	0.9019144819213802	0.9204790517976675	0.15288850987218142	0.3596434605977562	-0.06743571285241318	0.9686307738670749	-0.23917953204602949
122														8.888375315657184	3.577144979017761	-2.2605800080226164	-0.38491177483782546	0.19578552949245148	0.9019484198292911	0.9204819154839716	0.1529006070001733	0.3596309881613883	-0.06749791743567485	0.9686534110920885	-0.23907028322547288
123														8.814725077261697	3.544948555576647	-2.2528132378713868	-0.38490071816918175	0.19555052986302174	0.9020041171874655	0.9204770479882094	0.15293990276374872	0.35962673742302054	-0.06762722291917062	0.9686946765688899	-0.23886645287133623
124														8.792776565841878	3.539292348660025	-2.2592327651665247	-0.3849251417784329	0.1953975396250861	0.9020268492319483	0.9204600054067117	0.152983467334324	0.3596518277015204	-0.06772011276961648	0.9687186692899186	-0.23874280323318586
125														8.805843770500354	3.5525536916610254	-2.2290067523194153	-0.3849553426136614	0.19530628664673594	0.9020337236431144	0.920449491908917	0.15292520608890814	0.3597035087225067	-0.06769133650487386	0.9687462700516214	-0.23863894741482564
126														8.812012038703156	3.52479737239991	-2.2999762742980234	-0.3850169942169067	0.1952157633219705	0.9020270062003679	0.9204190451443188	0.15297292913978938	0.3597611211429236	-0.06775467142418151	0.9687569812398841	-0.23857748384788496
127														8.819039813472338	3.540388043170184	-2.3295007520286464	-0.3850951336525144	0.19509802732086207	0.9020191227311429	0.9203756259746172	0.15310095562836312	0.359817737886161	-0.06790025882855072	0.9687604745865671	-0.2385219019918835
128														8.840165490363928	3.529640972360049	-2.2307642864128425	-0.38516678816882927	0.1949646020878737	0.9020173774514686	0.920341991422021	0.15311972630927437	0.35989577413512586	-0.06794971756421625	0.9687843688601143	-0.23841074333018897
129														8.79297962430951	3.541333496127326	-2.255240346486181	-0.38521764208754466	0.1949022678089502	0.9020091320088957	0.920305871879401	0.1533202010056768	0.35990278985842106	-0.06815035149438559	0.9687652047666182	-0.23843134782298353
130														8.856625315676851	3.537866687782072	-2.2815891114697684	-0.3852545871777089	0.19488631073563512	0.9019968009623909	0.9202866571005024	0.1533773947430658	0.35992755318898867	-0.06820096642508505	0.9687593615907324	-0.23844061631567973
131														8.87897467571264	3.5436251261419196	-2.2734199801969326	-0.3852904770137379	0.19479947025116995	0.9020002298848869	0.9202716334342642	0.15335270395921863	0.35997648379390895	-0.06820094587875192	0.9687807360689304	-0.2383537631399676
132														8.824817774104025	3.5399652401225516	-2.267784685820372	-0.3853174436478916	0.19474454855782586	0.9020005700816727	0.9202611710744188	0.15332651911540596	0.36001438241921974	-0.06818976927217918	0.9687959224434017	-0.23829522870516162
133														8.84720970478851	3.5456594028632353	-2.2595452881594187	-0.38533361247119724	0.19473095639437932	0.9019965974002502	0.9202576814214873	0.15327896844411765	0.36004354961234464	-0.06814548322997532	0.9688061789927018	-0.23826619705891056
134														8.85996013222414	3.558765688804941	-2.2307400351470412	-0.3853672837284997	0.19479377723097036	0.9019686474505696	0.9202439174486382	0.1533086378792635	0.36006609664114386	-0.0681409497329084	0.9687888551710825	-0.23833792200529336
135														8.901217917535739	3.5494806518166877	-2.265514217420057	-0.38538453548436774	0.19479089125085708	0.9019618996915529	0.9202377383184144	0.1532974188048149	0.36008666507160575	-0.06812682866615549	0.9687912107742711	-0.23833238374676308
136														8.933109617285787	3.5475893938334018	-2.2786684659585803	-0.38538768097198484	0.1947787541723951	0.9019631767861067	0.9202363652522174	0.15329424135773947	0.3600915267455521	-0.06812758195050855	0.9687941538271198	-0.23832020495117898
137														8.90145670166137	3.5493786144010837	-2.2647357860242296	-0.38539015270691823	0.19460989382115168	0.9019985695240647	0.9202225291709568	0.153409321074639	0.3600778763179247	-0.06830027088340523	0.9688098726965675	-0.23820685036941122
138														8.857116000918332	3.5380815596855304	-2.279350080703354	-0.38538572673136384	0.1944633668442607	0.9020320618400066	0.9202233449460412	0.15336431678179444	0.3600949621341197	-0.06831425215910847	0.9688464198693456	-0.2380541485845056
139														8.850316456879359	3.523071022789144	-2.2479933428761854	-0.385394754350804	0.19438647670501846	0.9020447777095617	0.9202167024702723	0.15337670352392666	0.36010666101985905	-0.06835278936240702	0.9688598889882596	-0.2379882595760464
140														8.86951791993254	3.5080345708304788	-2.2898330211438704	-0.3853952839970719	0.19432450013825525	0.9020579048591242	0.9202119941037414	0.1534156754406788	0.36010209168608776	-0.06841316379492696	0.9688661513207575	-0.2379454135814997
141														8.867959121421112	3.573700119102303	-2.257483784337973	-0.38542288120663093	0.19437879746327857	0.9020344149416417	0.9202157638459351	0.1532276103980353	0.36017252446730447	-0.06820667571302963	0.9688850202724979	-0.23792786066314295
142														8.886975140207182	3.5586900625121056	-2.300010329008147	-0.3854234821043976	0.1943652419482751	0.9020370791519106	0.9202143676699104	0.1532386206077581	0.36017140737168357	-0.06822211500964187	0.9688859983902238	-0.23791945096395786
143														8.870584550744981	3.5509309792839323	-2.248095016863826	-0.3853973502033229	0.19429392426021735	0.9020636083180731	0.9202353568584478	0.15306009152687564	0.3601936928506514	-0.06808649237449554	0.9689285212941917	-0.23778509242336535
144														8.882823501231378	3.5207746374871625	-2.259367429510353	-0.3853896897615789	0.19422619775201866	0.9020814659066372	0.9202416173396849	0.15298747166022378	0.360208549636253	-0.06804522570698607	0.9689535683518615	-0.23769482458959723
145														8.907931657565278	3.5036296734641503	-2.241439808447357	-0.385328208920551	0.19418771512785654	0.90211601399349	0.9202767720048113	0.15282093425243004	0.36018942927662206	-0.06791784977812942	0.9689875609870524	-0.2375926605219079
146														8.873044406742332	3.484501209233296	-2.278103619993813	-0.3853234248914478	0.19414636664817275	0.9021269570006423	0.9202791937835225	0.15279712486276217	0.3601933426964244	-0.06791217651551984	0.9689996011098185	-0.23754517324066624
147														8.868446915948057	3.5292269795866456	-2.295638569401245	-0.385262786551971	0.1940954885460836	0.9021638025460049	0.9203124066010621	0.1526482518963856	0.36017160555648814	-0.06780604364192977	0.9690332566630695	-0.2374381770621439
148														8.884125214875954	3.5193277976298685	-2.256501637532195	-0.38521125245576315	0.19402605703380504	0.902200742724909	0.9203363676335563	0.1525720993719683	0.360142645217561	-0.06777360395120047	0.9690591538627275	-0.23734172604563444
149														8.837462897857758	3.5300809577570615	-2.280566728400061	-0.3851486320747324	0.19389615452382514	0.9022554031269835	0.9203514540888913	0.1526617512334933	0.36006609208142115	-0.06792445927223767	0.9690710350491321	-0.23725007241595988
150														8.843553330180608	3.5277488664349255	-2.2203046889650913	-0.3851154324233619	0.19388638276792314	0.9022716743235033	0.9203678823016608	0.15261247666973557	0.3600449877338753	-0.06789009454201655	0.9690807513008916	-0.23722021946110797
151														8.886021530173968	3.5612328791459147	-2.212981893264926	-0.38507885048189716	0.19389176606862374	0.9022861308710952	0.9203972426213975	0.15240360248785462	0.360058408766762	-0.06769929605593689	0.969112545063531	-0.23714485091187726
152														8.933942932078775	3.523385110855332	-2.318493284996267	-0.3850273437814042	0.19387069057638334	0.9023126397629999	0.9204244641305193	0.15229967467991393	0.36003279700943847	-0.06762211450911254	0.9691330994387867	-0.23708286568516052
153														8.912896717881628	3.5605992869664336	-2.283898862651507	-0.38499547067326845	0.1936689929694831	0.9023695521920354	0.9204326212774365	0.15228451765669365	0.36001835421324724	-0.06769251989264052	0.9691758080164065	-0.23688810841055322
154														8.888969867416295	3.49457328475588	-2.2413730654987405	-0.38493817278071485	0.19344979352252023	0.9024410122120665	0.9204576244547763	0.1521663627381857	0.36000438835394954	-0.06767839181980406	0.9692381417572905	-0.2366369790281305
155														8.780402689855585	3.443288390010366	-2.2706129980563174	-0.3848489424356718	0.19331956832614305	0.9025069728308691	0.920490951878604	0.15214682399234788	0.35992742526607163	-0.06773255506598785	0.9692671914654059	-0.23650245777369355
156														8.776794283742822	3.5309793542951415	-2.2466282838134304	-0.38482109607087595	0.19333754888947385	0.902514995004637	0.920503580587933	0.15213218652250848	0.3599013141802562	-0.06771914163369508	0.9692659026362638	-0.23651158078010592
157														8.808731658817212	3.528763606612632	-2.260115269701006	-0.3847935689381219	0.19345517180367672	0.9025015267611871	0.9205317773917532	0.15193221628335413	0.35991366807501024	-0.06749189666799538	0.9692737993764399	-0.23654417288641588
158														8.838021911537485	3.5492602118650853	-2.2832607306796437	-0.38480210704000617	0.19361599659678008	0.9024633977505168	0.9205364692890934	0.15187997559795197	0.3599237165305113	-0.0673791297535214	0.96924987432251	-0.23667432053236567
159														8.946293657505857	3.556746431143921	-2.294228745398732	-0.3847940296554759	0.19368735934366516	0.9024515286551291	0.9205495848559764	0.1517659706707573	0.3599382613280405	-0.06724594086627617	0.9692534740597226	-0.23669745765463673
160														8.939310789459217	3.541588334034441	-2.263634845695667	-0.38478471777912177	0.1935863251901298	0.9024771773640723	0.9205536091608366	0.15172120088455315	0.3599468431075722	-0.06724413449959582	0.9692806672484141	-0.2365865898014295
161														8.969102681254885	3.5622182221577257	-2.284605638457754	-0.3847674186683119	0.193479838287349	0.9025073881734296	0.9205732490047542	0.1514948520961551	0.3599919485282897	-0.0670740393010198	0.9693373313582148	-0.23640264653167453
162														8.853226966265385	3.4960815498338857	-2.284079962993599	-0.3846855108952471	0.19333516751957086	0.9025733048940912	0.9206094700885634	0.1513857923256631	0.35994519786376583	-0.0670467097665281	0.9693832342691464	-0.23622210698275525
163														8.83789804698291	3.4615163430120965	-2.3622621033448943	-0.3845656924621511	0.19326429982305243	0.9026395396807145	0.9206647610801093	0.15124882217847846	0.35986135037668165	-0.0669748153145045	0.969418745539578	-0.2360967384570564
164														8.869725993874239	3.484792646268846	-2.243616356922674	-0.3844716663435667	0.1932596785704372	0.9026805827189663	0.920699871090231	0.151281266349674	0.3597578711106558	-0.06703197112895681	0.9694146043311348	-0.23609752170676512
165														8.887500216302806	3.534498282001129	-2.254233948504979	-0.38441866381482614	0.19336793981734557	0.9026799713971831	0.9207264799193569	0.151245028111319	0.35970500503456554	-0.06697044188396978	0.969398669961127	-0.2361803941724716
166														8.917071838728964	3.5544236543221683	-2.2772112843823815	-0.384379818727245	0.193412207373511	0.9026870293707097	0.920741241761633	0.1512730327875745	0.35965543965091906	-0.06699045211413879	0.9693854690421946	-0.23622889691015334
167														8.850353238614273	3.5368496298797205	-2.30128001778542	-0.38432851622127434	0.1933023811648254	0.9027323972557773	0.9207596393859554	0.15125880453284904	0.35961432191882886	-0.06703191849409812	0.9694095953142317	-0.23611810268528471
168														8.878140762466025	3.496632618352413	-2.2738001764496776	-0.38425391339316595	0.19309841874919842	0.9028078038644749	0.9207806753636394	0.1513029486976693	0.35954188294588185	-0.06717051376100297	0.9694433549165982	-0.23594004257254267
169														8.747963553167217	3.48280144729307	-2.270457723904747	-0.3842010448305312	0.19301863754478044	0.9028473640164683	0.9208069279054096	0.1511961117832637	0.3595195923771401	-0.06711302908176847	0.9694759106558448	-0.23582260278754066
170														8.862106891267494	3.487839990302839	-2.22172701735139	-0.38420351649247686	0.19321870393973223	0.9028035170305141	0.9207980867459447	0.15138917782793632	0.3594609857572724	-0.06722009639850002	0.9694059259590031	-0.2360796673916345
171														8.90899291989633	3.558512142356378	-2.2556233872010325	-0.38417955440491036	0.19324590895071286	0.9028078913318479	0.920801829616875	0.15148355873513134	0.35941163309937	-0.06730572450736017	0.9693857591829753	-0.23613807262232514
172														8.883584305530011	3.5316601913015786	-2.314301047382691	-0.3841533820117384	0.1932001611485462	0.9028288192238438	0.9208101080790149	0.15149616626809348	0.35938510885341945	-0.06734184396389348	0.9693929076170544	-0.23609842590177654
173														8.845723006127375	3.5612401494468364	-2.229050505382374	-0.3841186327594955	0.19309808022417935	0.9028654425664507	0.9208239764638211	0.15145500734602113	0.35936692268372966	-0.06735042937007107	0.969419678036068	-0.23598603242589167
174														8.803787845876984	3.5269843162671535	-2.2354739676731	-0.3840966935359126	0.19303846810494968	0.9028875233640532	0.9208311891059919	0.15145314772240256	0.3593492245916513	-0.06737693362289632	0.9694318407586325	-0.23592849539406088
175														8.78158353866574	3.52103241813873	-2.243522458941215	-0.3841017288326799	0.19304596829351223	0.9028837776997475	0.9208199816629661	0.15158843028986146	0.3593208999939624	-0.06750128352825424	0.9694092025186662	-0.23598596312950934
176														8.870825415768145	3.5433709788977192	-2.2119869975598707	-0.38413464199231506	0.19311722802602793	0.9028545359364258	0.9208014684997364	0.15169451001482767	0.35932357456767305	-0.06756650375862794	0.969378415207861	-0.23609374345571052
177														8.912136807325457	3.533978660498777	-2.2467443866792456	-0.3841711822540204	0.19309908259794478	0.9028428695101822	0.920781945278963	0.15175870735395008	0.3593464957259867	-0.067624788161122	0.9693719817707185	-0.23610347092762768
178														8.88734722580388	3.5509876301227816	-2.263936211557284	-0.3842159118234187	0.19306377315787748	0.9028313865809838	0.9207558446622168	0.1518634950476375	0.3593691046713439	-0.06772597450067513	0.9693626041714005	-0.23611296875007537
179														8.848274606904699	3.538060242638415	-2.2203889059377047	-0.3842635933567281	0.1929819646300499	0.9028285840335919	0.9207377968849904	0.15181756506145483	0.3594347455744705	-0.06770081393859756	0.9693860883395925	-0.23602375203719292
180														8.848215891116055	3.538265090949479	-2.220296459638271	-0.38431002295049843	0.19297982922218465	0.9028092776290924	0.9207138940006645	0.1518942486583083	0.3594635762057971	-0.06776231735943061	0.9693745007673269	-0.23605369221466413
181														8.832852820536774	3.5477771938284945	-2.259103889053587	-0.3843537762560537	0.1930482322241427	0.9027760268819975	0.9206984452350189	0.15189324795941014	0.3595035662773882	-0.0677240549548736	0.9693610376219353	-0.23611995070513345
182														8.832637903209404	3.5478758324955915	-2.2597891701972963	-0.3843925891347895	0.19309040150801016	0.9027504828377153	0.9206777731906688	0.1519846576419904	0.35951787409545866	-0.06778477241183328	0.9693383107496175	-0.23619581694465636
183														8.87949056319987	3.536856182387376	-2.2350856698311197	-0.3844532106839005	0.1930999012924205	0.9027226356504516	0.9206443476809428	0.1521210642702839	0.35954577857125153	-0.06789487372380726	0.9693150209947918	-0.23625976423397752
184														8.869666431811904	3.5446605895264236	-2.2145669102305363	-0.3844962528676876	0.19317662838800814	0.9026878872430655	0.9206258950313853	0.15217030418146313	0.35957219014126024	-0.0679013470291191	0.9692920038718791	-0.23635231816436406
185														8.841610699213177	3.5407517122468293	-2.282576690749286	-0.3845006967893898	0.19314500001350293	0.9026927623163142	0.92061997508802	0.15221691982631905	0.35956761643329554	-0.06795642454843676	0.9692909874172833	-0.2363406568371611
186														8.819250675671675	3.535082436297697	-2.290765266475643	-0.38453924241042003	0.19316207147643671	0.9026726899543112	0.9206031040508312	0.15224534766247802	0.3595987749243669	-0.0679668732427387	0.9692831207949837	-0.23636991323673642
187														8.879025486764414	3.5369164831954545	-2.2368371674201084	-0.3845325249568028	0.19321925730751788	0.9026633125678021	0.9206024917530818	0.15231500564461947	0.35957084313594867	-0.06801315628878968	0.9692607789759221	-0.23644820344131592
188														8.901210795329353	3.542463247421743	-2.2295407726515974	-0.38458232518127505	0.19328350280055212	0.9026283414026581	0.9205830019965422	0.15233561947047178	0.35961200685681005	-0.06799537920475796	0.9692447299757152	-0.2365190939884232
189														8.889765642827133	3.5461494309912727	-2.349019226433738	-0.38461298499343566	0.19330554812856232	0.9026105565730741	0.9205683492448118	0.15237913845996864	0.35963107837182123	-0.06802033624674697	0.9692334926244104	-0.23655796463439083
190														8.898449550857922	3.5654386454475038	-2.2393406794543735	-0.3846807912322544	0.1933076565099524	0.9025812089732193	0.920538585865461	0.15241907800288731	0.3596903343065644	-0.06803970010034605	0.9692267921365881	-0.23657984828567913
191														8.895103986301004	3.5450517036140026	-2.2896251059729162	-0.384729051297516	0.19326254916845703	0.9025702987449911	0.920522039645115	0.1523627966400383	0.3597565186728703	-0.06799067300233319	0.9692446364509507	-0.23652083015192074
192														8.907841610422544	3.5586470128202756	-2.259953452510364	-0.38478112090809014	0.19320629397288847	0.9025601458972006	0.9204997826748118	0.1523617644768502	0.35981390026112864	-0.06799734618599762	0.9692560140101081	-0.2364722821323864
193														8.887938094551401	3.53072834623593	-2.2584115020447206	-0.3847871601579473	0.1931886222528862	0.9025613539309185	0.9204982852041037	0.1523417441215149	0.35982620795922915	-0.06798344146838814	0.9692626832959399	-0.2364489425987516
194														8.865623401973606	3.5253925199278533	-2.2658973716947095	-0.3848459867183581	0.19311993548679968	0.902550971981277	0.9204749880083549	0.15231210744755608	0.3598983445028655	-0.06796589554910909	0.9692810286199037	-0.2363787735811935
195														8.858431826422603	3.510749290753434	-2.2352695241981637	-0.3848744620210225	0.19310917299708175	0.9025411324634529	0.9204643262848087	0.15229792296217254	0.35993161391917466	-0.06794904356267417	0.9692854017088011	-0.23636568598916066
196														8.865520012934912	3.5258203658690905	-2.265636159444247	-0.3849225222863646	0.19309181210270765	0.9025243508823438	0.9204393150976409	0.15237431949145605	0.3599632397649818	-0.0680155795335835	0.9692768535657955	-0.23638160267309813
197														8.862981643110519	3.548570395497022	-2.2748886606898613	-0.3849894925051064	0.19305133064182467	0.9025044456389574	0.9204136717987528	0.15234291478241666	0.36004209348565835	-0.06798355261825328	0.9692898534767702	-0.2363375055305081
198														8.830942448594696	3.55075397691803	-2.261893890906452	-0.3850426398021469	0.19303670887002405	0.9024848999084822	0.9203886977096332	0.15239082043978944	0.36008566060599106	-0.06802066349690589	0.9692852350440075	-0.23634576887078648
199														8.833251590165753	3.5285944942828853	-2.252620087164306	-0.3851015087233308	0.19300839436425826	0.9024658374054644	0.920380607352904	0.1521596766938411	0.3602040677131871	-0.06779650129405523	0.9693271854711172	-0.2362381042908371
200														8.833098256208851	3.529020417827463	-2.2525541281999075	-0.38516929672520017	0.19301052188996004	0.9024364527765818	0.9203508392504172	0.15219925245981905	0.3602634039723225	-0.06781552588653506	0.9693205486269427	-0.23625987483763547
201														8.867110389542496	3.5051396295388	-2.2568896595859673	-0.3852399762002046	0.19309699414931442	0.9023877833768397	0.9203308196253179	0.15211645099284962	0.3603495078186331	-0.06768562022362623	0.969316324110886	-0.23631445285276864
202														8.909051402500909	3.539537592743488	-2.2502277081212414	-0.3853094600187298	0.19308391078657683	0.9023609163829273	0.9202999577068919	0.15215578747038702	0.36041171482619644	-0.06770973242280587	0.9693127564076662	-0.23632217923970733
203														8.886646183664869	3.5340107532000493	-2.2583614251725646	-0.3853071439586513	0.19310731038058931	0.9023568980686092	0.9203063676262384	0.15208657108703658	0.3604245615958865	-0.06763574883910467	0.9693189576050614	-0.23631792971844318
204														8.851629176487473	3.5150077330848815	-2.295512281438477	-0.3853248914474014	0.19306327257700845	0.9023587428583517	0.920296975657499	0.15210197980264073	0.3604420401892352	-0.06766243142770983	0.9693253120196406	-0.23628422471954758
205														8.884384533873346	3.5565002610403025	-2.2669094389566222	-0.3853382896574957	0.1930052217071886	0.9023654397845671	0.9202912780180973	0.15208374290821158	0.36046428220677634	-0.06766362484860994	0.9693397338068777	-0.23622471152603522
206														8.847158165485288	3.477697646613618	-2.254836957340943	-0.3853437340326422	0.19292080713212229	0.9023811660364323	0.9202905010903746	0.15202999088347874	0.36048893946249877	-0.06764318328263369	0.9693649694761308	-0.23612699063836845
207														8.788154431191021	3.5189482176198448	-2.2678230242142874	-0.38536886738425097	0.19294676323940796	0.902364883296339	0.9202847556318359	0.15197877300210755	0.36052520176601527	-0.06757813701658044	0.9693678347831693	-0.23613385247600266
208														8.842231868696636	3.5227089095617354	-2.2734696149962055	-0.38539373924837106	0.1930372374972006	0.9023349104892308	0.920273351373816	0.15203596043192827	0.36053020051966006	-0.06759160080486126	0.9693408542277535	-0.2362407327825702
209														8.918507364919746	3.532190850701239	-2.271495294945285	-0.3854461369425062	0.19312089804120586	0.9022946271899531	0.9202500328765839	0.1521035375967768	0.3605612164961613	-0.06761029882158842	0.9693135883656556	-0.23634723375354208
210														8.913416611736874	3.577353073154629	-2.290520154473344	-0.3854975784843956	0.19312153736747112	0.9022725135941425	0.9202261655986668	0.15215123051902854	0.36060200664877196	-0.0676418593050398	0.969305975869524	-0.23636942275469408
211														8.893535697081697	3.5492144949132967	-2.2892682045101407	-0.38548997479069447	0.19309710994064916	0.9022809903064781	0.920247585296577	0.15187758280921732	0.3606626978159078	-0.06739333121080526	0.9693537568775388	-0.23624443471902676
212														8.90890730912129	3.539834997014506	-2.2503303691135854	-0.385492315118117	0.19301969441899658	0.9022965546599808	0.9202419035002527	0.15191487505288515	0.3606614891832754	-0.06745749793096362	0.9693633314212291	-0.23618682789019071
213														8.85732228720466	3.5133518498463525	-2.235577233656572	-0.3854910565978945	0.1929441471439708	0.9023132501331926	0.9202467167630586	0.15182271152398427	0.3606880155374129	-0.06739900273632293	0.9693928101385897	-0.2360825154088255
214														8.86944417829147	3.4832379088266183	-2.2471419314006353	-0.3855209115827958	0.19291546825144257	0.9023066268412844	0.9202325182492993	0.15184380256779226	0.3607153614393298	-0.06742209644414199	0.9693952144151939	-0.23606604834240105
215														8.84228990353091	3.5225656464512043	-2.2734658586554133	-0.38553173917856726	0.19291051719232732	0.9023030590896481	0.920226299373033	0.15186899712501056	0.3607206199463173	-0.06744505933099304	0.9693922529445091	-0.23607164993494356
216														8.862247976932956	3.550658288336813	-2.274489037949908	-0.3855505944806079	0.19285964109723291	0.9023058782538744	0.9202109429692134	0.1519609486937651	0.36072107023544026	-0.06754672112960297	0.9693879661456175	-0.23606018630150707
217														8.840000025953648	3.5449867205998613	-2.2822417724986237	-0.38557206012568235	0.19282231554014134	0.9023046830645265	0.9202036509643508	0.15192751156579304	0.36075375532529846	-0.06752353073052941	0.9694006322770603	-0.23601480237162928
218														8.839990298166414	3.5451810772478676	-2.281977530859058	-0.3856218327672897	0.1927897510904817	0.9022903712041195	0.9201775850656018	0.1520029521505636	0.36078846223285965	-0.06759448228986337	0.9693952828500789	-0.23601646457817674
219														8.843046887250775	3.566234946600811	-2.2316816616492368	-0.38565131179555995	0.19279044781415539	0.9022776229863962	0.9201621295577735	0.15205581389990852	0.3608056052598685	-0.06763668411496387	0.9693868539911474	-0.2360389931157112
220														8.871794599746407	3.54359562070425	-2.29497126594277	-0.38567243540158136	0.19276444050021319	0.9022741507158746	0.9201538786053263	0.15204259930162528	0.3608322154203804	-0.06762848703754598	0.9693940986390648	-0.2360115871409014
221														8.876715346963024	3.49863220953633	-2.276288040546761	-0.38567586581540564	0.19271129269103154	0.9022840374277321	0.9201430603207099	0.15215662400406177	0.36081173805091943	-0.0677559965698677	0.9693867749464289	-0.23600509631740146
222														8.872091473403184	3.5433857312890145	-2.2941475441128345	-0.3856427275289337	0.19265287048430235	0.9023106772050317	0.9201562722268429	0.15213382119794963	0.36078765933622237	-0.06776519302447526	0.9694019661326608	-0.23594004889481282
223														8.84288095058918	3.52241265578759	-2.271403108864775	-0.3856118534691857	0.19263745900081192	0.902327162316291	0.9201767411621646	0.1520113519757065	0.3607870755649331	-0.06766286639093955	0.9694242405986291	-0.2358778884328361
224														8.834170644113328	3.5731850754017125	-2.208727719939512	-0.3856262156483995	0.19257541436629855	0.9023342682101481	0.9201662456859003	0.15205460874188192	0.36079561563393414	-0.0677237189248377	0.9694297838121143	-0.23583763938987337
225														8.878181846109394	3.5412034219488504	-2.2334004718186202	-0.3856327633027731	0.1925878221093818	0.9023288217953767	0.9201709570877565	0.15195457175757546	0.3608257444448417	-0.06762234541680562	0.9694430044603639	-0.2358123819971998
226														8.905161358731176	3.5844632197872364	-2.2649214810699867	-0.3856936668254894	0.19260250444220423	0.9022996567955122	0.9201422916052182	0.1520222024038687	0.36087035508029036	-0.06766504688689723	0.9694294844179581	-0.23585571049038884
227														8.917217225138675	3.554435770852998	-2.2766229928991892	-0.38567955043139146	0.19250894748883218	0.9023256560221384	0.9201443032860706	0.15203682884432276	0.36085906363171	-0.0677181327949331	0.9694457735282076	-0.23577350716113887
228														8.897788286454038	3.5258558116809984	-2.274291535956596	-0.3856153630205618	0.19235872593843512	0.902385124189147	0.9201686837277803	0.15199517837247906	0.36081443878841957	-0.06775238216626916	0.9694821227371138	-0.23561415153580129
229														8.880931514654435	3.474607929884547	-2.2624272837881336	-0.38555804624665513	0.19219422328146074	0.9024446650691103	0.9201946840292256	0.1518852694131661	0.3607944129551399	-0.06772544912229256	0.9695319723828226	-0.23541669029331339
230														8.743429372642025	3.528162111781808	-2.287133129304112	-0.38549734541547065	0.1921354655377946	0.9024831076314945	0.9202197310388517	0.15185059745823218	0.36074512146162246	-0.06773066723728743	0.9695490492667982	-0.23534484864011565
231														8.848054247485834	3.5412630341695497	-2.2161572274479724	-0.38545502568071943	0.1922098396442239	0.9024853465411046	0.9202472695394704	0.15172811401582617	0.3607264092388436	-0.0675972342823663	0.9695534832907065	-0.23536494419567386
232														8.77870551438602	3.546560570735821	-2.2497692450141074	-0.3854828794105897	0.19221986715055384	0.9024713138676184	0.9202412790173539	0.15165830631514038	0.36077104445635433	-0.06751990872199531	0.9695624171750097	-0.23535033700406496
233														8.83034135906233	3.5729554972063884	-2.264457409408265	-0.3854850680662425	0.1923942444099337	0.9024332202528313	0.920247727069578	0.15162278402864743	0.36076952779673294	-0.06741945654809084	0.9695333857486976	-0.23549868534118665
234														8.938675829630931	3.58050944717369	-2.274926622579578	-0.3854993506946969	0.19238067417524923	0.9024300121437916	0.9202405762795114	0.15163807690965928	0.36078134014925634	-0.06743539413928118	0.96953368679743	-0.2354928826573384
235														8.9888054073733	3.590648521036293	-2.1987501918979584	-0.385547781565022	0.19235797148996797	0.9024141615325831	0.9202356899726205	0.15142050523174103	0.36088516940431303	-0.06722486914011461	0.9695721950425503	-0.2353945104913568
236														8.908617957037219	3.5173491647306463	-2.2920425943243496	-0.3855608914740901	0.19220427562645293	0.9024413085606267	0.9202353498645072	0.15128828239895245	0.3609414862114405	-0.06715429863719496	0.9696233145091376	-0.23520401385788695
237														8.811875593696588	3.5187753541377016	-2.391352381975184	-0.3855385056918324	0.1920487452002268	0.9024839832905225	0.9202480683553482	0.15117169376963205	0.36095790847558906	-0.06710851896115738	0.9696723149960712	-0.23501499571942425
238														8.826300575228283	3.536356826107362	-2.2207665788741373	-0.3855191588614505	0.19199044983325314	0.9025046511368155	0.9202553852072566	0.15115445989569742	0.36094647144789205	-0.0671193276769339	0.9696865454498507	-0.2349531856045609
239														8.865549939679298	3.548995268875257	-2.264193187951737	-0.38549175042973216	0.19210812465523308	0.9024913178485823	0.9202744921380409	0.15108375169200383	0.3609273598589335	-0.06701469593076037	0.9696742589220972	-0.23503374675392766
240														8.895053149385202	3.5691967317400177	-2.2870632264670525	-0.3854827728294169	0.19215397333153356	0.9024853917846254	0.9202776787340861	0.15110792789938815	0.3609091134202016	-0.06702257735678935	0.969661407223603	-0.23508451558023885
241														8.890332019650995	3.5316851374944793	-2.2474664466498666	-0.3854959356162156	0.19208230365336088	0.902495026161694	0.9202726792076709	0.15107543877318402	0.3609354619643588	-0.06701551706369008	0.9696806693044406	-0.23500706382995867
242														8.841844918911859	3.5262868821265303	-2.1819870761211884	-0.3854869675231214	0.19193264268006327	0.9025306967320696	0.920273402010059	0.1510570106025645	0.3609413319372678	-0.06705716533421446	0.9697131742023843	-0.23486101497625345
243														8.839004234899445	3.5051050877621828	-2.231836076447931	-0.3854785029213752	0.19195638293720413	0.9025292631461657	0.9202768055452502	0.15106623837290947	0.3609287918679929	-0.06705911542009013	0.9697070375497565	-0.23488579430342374
244														8.85655914503824	3.5553477266976454	-2.242583344976481	-0.385474001353916	0.19196492878192523	0.9025293681636911	0.9202718747062373	0.1511669203060033	0.36089920868556385	-0.06715259417825081	0.9696896556749222	-0.23493084253069524
245														8.87356881401815	3.5622154229382157	-2.2939582965907985	-0.3854605261899451	0.19190298575785275	0.9025482961075229	0.9202842145982093	0.15104170108737494	0.36092016969683205	-0.06706077177253905	0.9697214283441684	-0.2348259021049807
246														8.83479990489872	3.548841562058085	-2.2497992517053116	-0.38542587830487274	0.19176275813069094	0.902592896563577	0.9202919321456906	0.15107430931502286	0.360886841949857	-0.067153942255609	0.9697440887466648	-0.23470566755072486
247														8.840742821227039	3.5467878548568135	-2.189134711232594	-0.3853630272251909	0.19170011237090012	0.9026330395929576	0.9203300329302415	0.1508617133807272	0.36087861383358905	-0.0669922960828937	0.9697895701402528	-0.2345638972918175
248														8.86033480341727	3.531141416709429	-2.230666391455746	-0.38535932887636304	0.191651779224153	0.9026448820927173	0.9203266363057809	0.1509129284908359	0.3608658622264052	-0.0670601979869287	0.9697911545969764	-0.2345379421573779
249														8.867789377523243	3.545633254284597	-2.2606880093749924	-0.38531934907633997	0.19162951752850166	0.9026666756002351	0.9203422709233826	0.15090905762151194	0.360827605206945	-0.06707535746440291	0.969796156075895	-0.2345129251905781
250														8.84880997483757	3.5606722628249066	-2.217676306838974	-0.38532503008292446	0.19149663200138423	0.902692451017355	0.9203381820359089	0.15088221811888086	0.3608492579213162	-0.0670988217365368	0.9698265804707833	-0.23438035739778956
251														8.837092342268553	3.590572868362122	-2.2048651969046884	-0.3852963026722042	0.19141640279502048	0.902721728933199	0.9203478666332527	0.15087613834444832	0.36082709884636954	-0.06713094316892954	0.9698433644765951	-0.23430169621658437
252														8.893855974869759	3.5716725248619707	-2.2003364930457345	-0.3853208702428135	0.19143353097676868	0.9027076105656177	0.9203370664522477	0.15089714132242857	0.36084586301465255	-0.06713800018909755	0.969836716132404	-0.2343271921312659
253														8.920316048581604	3.5714120035240517	-2.272864090904021	-0.3853490372781349	0.1914480841854065	0.9026925005396649	0.9203391391415976	0.1507100777589878	0.3609187462933779	-0.06694765442432193	0.9698629302760355	-0.23427314836204383
254														8.878257595983412	3.5376552317794703	-2.2790875699674036	-0.38534608842302687	0.19131781218784072	0.9027213783204269	0.9203409527457596	0.15064879755450739	0.36093970479071585	-0.06693969551843498	0.9698981567850511	-0.23412954240945344
255														8.829720213980737	3.5324281926974117	-2.2134131385295297	-0.38535812504772926	0.1912299507435104	0.902734856643042	0.9203502060745126	0.15040954734597833	0.3610158808775319	-0.06674289204328115	0.9699526143094892	-0.23396006572893246
256														8.852086652122729	3.5383041410151828	-2.2047508667105307	-0.3853903591331655	0.19125133144744372	0.90271656642979	0.9203394109335343	0.15038762218771584	0.36105253326245945	-0.06670562022591753	0.9699517984478943	-0.23397407744870113
257														8.861564197553244	3.530837170195963	-2.226260085246155	-0.38542007201596934	0.19131739221647043	0.9026898822534203	0.9203233037563685	0.1504754246773957	0.3610570081456944	-0.06675615814415659	0.9699251527842992	-0.23407010348651047
258														8.878931620810977	3.581486781547528	-2.2371711311062867	-0.38542736295281227	0.19136485392425667	0.9026767087777267	0.9203206432150761	0.15049069317554226	0.36105742609692	-0.06675074201407194	0.9699134208526514	-0.23412025647192108
259														8.920636945033033	3.5718376538320573	-2.2709349703545545	-0.38541450445269215	0.19124764687780577	0.9027070384799207	0.9203206081402175	0.15051901226156475	0.3610457106520233	-0.06682542921603535	0.9699321442820144	-0.23402136120146727
260														8.852245491078211	3.5382046772778786	-2.2042727317456796	-0.38537443421697065	0.19115149740800202	0.90274451008612	0.9203423346809083	0.15039777372653196	0.3610408517774665	-0.06675726511807795	0.9699699040159865	-0.2338842723595863
261														8.81534594515611	3.5411966435805833	-2.249800350449677	-0.3853040191211526	0.19108997066622374	0.9027875918287027	0.9203709520204202	0.1503665044899475	0.3609809205546744	-0.06676918096032036	0.9699868748793752	-0.2338104767448021
262														8.841029425472936	3.567225589497932	-2.1908448181639155	-0.3852415200878446	0.19109483283208095	0.902813234321078	0.920400414469476	0.15030342772924885	0.36093206654058224	-0.06672367079847746	0.9699956930201894	-0.23378688431445183
263														8.872755693933374	3.5212025290300404	-2.2443931914679713	-0.3851525166832049	0.19106280173242585	0.9028579869983706	0.9204397702370604	0.15023569014351595	0.3608598990925002	-0.06669458942479217	0.9700124964149985	-0.23372545548185636
264														8.853787826220199	3.5360291521525276	-2.2015675481334473	-0.3851365637527369	0.19102249835083557	0.9028733202307723	0.9204481989631246	0.15018972226328184	0.3608575347031266	-0.06667038537667225	0.970027552418117	-0.23366986811192136
265														8.870891871545746	3.543158946723685	-2.2523800693356346	-0.38512315736992464	0.19098914577265802	0.9028860946179489	0.9204590963769932	0.15009575445582482	0.36086883543912046	-0.06659733894286268	0.9700486640841108	-0.23360304739956267
266														8.893376408636694	3.5487005926797517	-2.2437560503541816	-0.3851003372937452	0.19096125963067373	0.9029017264002277	0.9204686418445196	0.15007841937138378	0.36085169726619537	-0.0665973692960205	0.9700568361489211	-0.23356910121759678
267														8.950821190787808	3.573440924484698	-2.197402721491291	-0.3851127759803132	0.19085683210797688	0.9029185009813703	0.920469890919519	0.14994600953977047	0.3609035523982939	-0.06650811745453417	0.9700978630328008	-0.23342409141270604
268														8.916091363936545	3.5545353798553196	-2.2337397721965484	-0.38511152635258833	0.19078481462650604	0.9029342538514693	0.9204702157165228	0.14991977149100813	0.3609136241469172	-0.06651085812976615	0.9701160840971631	-0.23334757150403018
269														8.948921656309459	3.59606317142114	-2.2044350870069827	-0.3851016172620715	0.19065039222424096	0.9029668722200608	0.9204745687005088	0.14986032043222577	0.3609272125173751	-0.06650799017974346	0.9701516955119407	-0.2332002893170535
270														8.87216565577896	3.5432972802046483	-2.2471393351769433	-0.3851004016403311	0.1904797402150188	0.9030034048795577	0.9204789149107345	0.14973577210725353	0.36096781817248075	-0.06645485581364313	0.9702044460416905	-0.23299589056402759
271														8.853235351662029	3.558735107652202	-2.203075462051428	-0.3850857815811441	0.1903549311038612	0.9030359577716068	0.9204916510568109	0.149585191576601	0.3609977711782961	-0.06636310088253317	0.9702521685961003	-0.23282325522983938
272														8.902967135216906	3.5250994652780396	-2.166826475308513	-0.38504141787294827	0.1902725222326711	0.90307224174238	0.9205144349581889	0.14947838598110416	0.36098391537309593	-0.06630446105652438	0.9702847929384969	-0.23270397297060075
273														8.866029684125563	3.528256131711069	-2.212530547346086	-0.3850120803172837	0.19022663151585584	0.9030944173628184	0.9205308197809479	0.14939184821594773	0.36097795711101166	-0.06624732329063304	0.9703071185705865	-0.232627143317525
274														8.921142699537423	3.5752273304045263	-2.1753834860772163	-0.3849883954223099	0.19015704220803786	0.9031191697051093	0.9205429266744647	0.149325357357187	0.36097459439655827	-0.06621673156964575	0.9703309935011037	-0.23253624988675337
275														8.943794268938582	3.58080299581533	-2.1659289971026308	-0.3849565270717755	0.19001804480432682	0.903162009228454	0.9205568712156958	0.14925211003601013	0.3609693262693761	-0.06620814996966723	0.9703694916363248	-0.232377990737192
276														8.896826047888217	3.5482221463506605	-2.2307996946331707	-0.3848933637029485	0.18985900828714375	0.9032223732556958	0.9205859245799147	0.14913268844882974	0.3609445895166836	-0.06617139897850655	0.9704189807543162	-0.23218171277897998
277														8.890804789052524	3.5762471877943374	-2.157274641921795	-0.38479849660969445	0.18965725844446907	0.9033051761870109	0.9206279166911189	0.1489921394396943	0.3608955269799735	-0.06613891453515908	0.9704800187044093	-0.23193571799013707
278														8.866402578049954	3.549013932529214	-2.2135318601705056	-0.3847146863697155	0.18948531923381629	0.9033769555873734	0.9206676019906225	0.1488323738243604	0.36086020997976986	-0.06607402467149381	0.9705381178998925	-0.23171099448892418
279														8.8254070838789	3.557949201053576	-2.1778735203769464	-0.38461304523536577	0.18942434258081403	0.9034330212431938	0.9207143438634404	0.14871770203405468	0.3607882233469168	-0.06601441084258147	0.9705675986450075	-0.23160447755078123
280														8.870461367078553	3.5687371875986815	-2.1604809550601463	-0.3845600357414231	0.18936953227891545	0.9034670769624203	0.9207393263499812	0.14863971748724011	0.36075660395604103	-0.06597478172103133	0.9705902403330553	-0.23152087065118782
281														8.900497841953712	3.588832331907885	-2.1816426335277876	-0.384503206978907	0.18929202758090968	0.9035075052910428	0.9207714692898225	0.14846959117863456	0.36074462135575985	-0.06585730912204979	0.9706313969728968	-0.2313817323075561
282														8.920522377527393	3.572885909215584	-2.222366284176357	-0.3843814654415416	0.18916249197896612	0.9035864323092286	0.9208262255167854	0.1483271110097992	0.3606634588366236	-0.06580236641279041	0.970678432730322	-0.2311999757929975
283														8.92881262102258	3.548094682718565	-2.1519079908371634	-0.3842986772236408	0.1890831383006591	0.9036382536693176	0.9208732526777319	0.14808886822076975	0.36064128938853635	-0.0656275794685014	0.9707302683647324	-0.2310319607622292
284														8.88254895401014	3.558630707715926	-2.1758520303536057	-0.38420709103992623	0.18895538961122232	0.9037039182893422	0.9209161577961851	0.1479438100372356	0.36059126359574917	-0.0655617381141661	0.9707772606569123	-0.23085313228741772
285														8.912931570745506	3.5783870907996906	-2.196211553194503	-0.384075473604233	0.18887154521128202	0.9037773896182552	0.9209814530283696	0.14772082706400033	0.3605159087048466	-0.06541554672581806	0.9708275318824817	-0.2306831367602148
286														8.881755257678039	3.579364726061927	-2.1816454022772502	-0.3839433869776269	0.18875972527398266	0.9038568701462856	0.9210430281835594	0.14754413164002436	0.3604309496325901	-0.06532392999971559	0.9708761482975479	-0.2305044225959894
287														8.885538802625785	3.5991873612862486	-2.129310312435815	-0.38378348205562257	0.18862609311864165	0.903952673482445	0.9211233412811541	0.1472443781276532	0.3603482804965824	-0.06513086095166137	0.9709476247999161	-0.23025785729719872
288														8.865912406702991	3.5265958115882303	-2.1676439164240593	-0.3836538765739438	0.18856410415041985	0.9040206201275142	0.9211880121922709	0.14702544957063363	0.3602723461102812	-0.06497960590091556	0.9709928402436874	-0.23010987595594196
289														8.88656322058359	3.5536900145929935	-2.167519723302633	-0.3835063924424763	0.18858127954023102	0.9040796137302989	0.9212638556632005	0.1467767000069321	0.36017982811874494	-0.06477464939566174	0.9710271372840433	-0.23002291940940311
290														8.91397747694289	3.5134324980913916	-2.1403468316313763	-0.383427341542619	0.18860769656168858	0.9041076321739865	0.9213057789877359	0.14663067489842838	0.36013206852852087	-0.06464623238333123	0.9710440679889477	-0.22998757066875358
291														8.92179551195205	3.527476238526215	-2.170236816990513	-0.3833058138376289	0.18862271080173776	0.904156029702881	0.9213583986277756	0.14657324521316575	0.3600208119897269	-0.06461698195005772	0.9710498219749001	-0.22997149581237397
292														8.92284114374454	3.5699383295120217	-2.1285123499539766	-0.38321310096393923	0.18860035735462205	0.9041999914041754	0.9214029577493839	0.14644935860232838	0.3599571846979223	-0.06453145512298053	0.9710728554391146	-0.22989823994331765
293														8.888600328326094	3.550083076466841	-2.1650761534732887	-0.3830721251616302	0.18853190039135187	0.9042740013176187	0.9214577737760834	0.14644155710147155	0.3598200126470453	-0.06458574201614259	0.9710873250581129	-0.22982186371122837
294														8.884187612846238	3.5116380726321825	-2.1245103075504046	-0.3829527725982049	0.18847717274449383	0.904335960422668	0.9215118937902715	0.14631995766106687	0.3597308710593664	-0.06452134191424158	0.9711162779730887	-0.2297175898647722
295														8.892395766935158	3.525557437722034	-2.153056134223995	-0.3828367658533572	0.18827127488421286	0.9044279616223804	0.92156213395471	0.14617632146814707	0.35966055705745836	-0.0644922008601202	0.971177846789924	-0.22946534799987517
296														8.774343248277708	3.481468361637728	-2.162498367807935	-0.38271209509564785	0.18826224321881407	0.9044826035064024	0.9216195031055727	0.14605519711043385	0.3595627495896501	-0.06441229512241375	0.9711978208250123	-0.22940324553460584
297														8.871481866250559	3.5176166730282334	-2.1594312483104012	-0.3825724073057067	0.18826657943528635	0.9045407941248715	0.92167729236413	0.146022682580533	0.35942780208591346	-0.06441523040898128	0.9712018694585187	-0.22938528037264283
298														8.825698879264099	3.5320732690413417	-2.04464120938258	-0.38248648740048635	0.18825686432673006	0.9045791507601223	0.9217170963398346	0.14593334395097893	0.3593620088965287	-0.06435589538574649	0.9712171807361892	-0.22933710247569283
299														8.877459730639	3.51393618793796	-2.099732471024247	-0.3823858285089642	0.18835209732117514	0.9046018823715916	0.9217528725806181	0.14603457947858423	0.3592290961014866	-0.0644416018181661	0.9711834991551427	-0.22945564042725408
300														8.861051715457933	3.5880785923479737	-2.107225333905375	-0.3823131559091913	0.18849004271259456	0.9046038661297879	0.9217862352417447	0.14602141059467233	0.3591488328907578	-0.06439555370990835	0.9711587158884727	-0.22957343316735912
301														8.870488139126605	3.5360210986398446	-2.17000186093422	-0.3821901599073384	0.1885254555753913	0.9046484589441885	0.9218455503787937	0.14587711290708255	0.35905521744811647	-0.06427645694049217	0.9711735275067923	-0.22954414946408813
302														8.89564583329311	3.5179377164181225	-2.152093750582191	-0.3820448086686109	0.18850334611986963	0.9047144591919472	0.9219133227188271	0.14571570724684363	0.3589467342866966	-0.06416844678575823	0.9712020496081983	-0.22945367566011782
303														8.82947094853825	3.499885075500139	-2.175980245939709	-0.38190897008262803	0.18848974097232696	0.904774643830502	0.9219822974993261	0.14548161142110497	0.35886452016907855	-0.06398579270658972	0.9712397841349498	-0.2293449368205141
304														8.798603035119333	3.5441015050646905	-2.1216652845403767	-0.38177872998702933	0.1885747903688763	0.904811886397844	0.9220459502763907	0.14533293643461956	0.3587612063283853	-0.06384564909528562	0.9712455333357395	-0.22935964568113654
305														8.843428706298331	3.554428832696265	-2.105625043035554	-0.38170843534773313	0.18871819303284537	0.9048116455941554	0.9220904211411456	0.14513682476940287	0.3587262986395069	-0.06362331038330538	0.9712470055110974	-0.22941518838471925
306														8.7618391999204	3.5460070202302805	-2.1697846399237046	-0.381585412976593	0.18892954733573275	0.904819428807206	0.9221567244028609	0.14495244301590907	0.3586304015310279	-0.06339990727177475	0.971233450519099	-0.22953439034422618
307														8.830844449567573	3.539452480163053	-2.137846707355861	-0.3815229770227573	0.18929950739991092	0.9047684314242201	0.9221999690327789	0.14481512152937365	0.3585746751966382	-0.06314614097183252	0.9711818970072413	-0.22982229614591715
308														8.964277087927623	3.5723224772673157	-2.091072974211512	-0.3814484937712638	0.18961467263207044	0.9047338407080101	0.9222448236288421	0.14470374107921707	0.3585042713936403	-0.06294070137391344	0.9711370156884721	-0.2300681743967387
309														8.931581618541982	3.5301141886932097	-2.1211576830149084	-0.38133240319255834	0.18986162092051756	0.9047309893978555	0.9223238011173713	0.14429090179267465	0.35846749023064994	-0.062485231597494306	0.9711501946461685	-0.2301366882331392
310														8.859609827713989	3.5139615206502994	-2.2065698939537004	-0.38120473537948474	0.19008667873156193	0.904737533372558	0.9223910370571932	0.14412069246195383	0.3583629455745141	-0.06227137770125424	0.9711314435096263	-0.23027373915863025
311														8.845581772465307	3.5652315908573606	-2.205322208318589	-0.38104198839772757	0.19033465316631704	0.9047539570966039	0.9224710859704996	0.1439752506381645	0.3582153301466651	-0.062081387116531495	0.9711044470126451	-0.2304388299873783
312														8.820549245431009	3.4982282350350364	-2.1667351091170994	-0.3808913838845045	0.19063553717066856	0.9047540249428004	0.9225494947487336	0.1437998434234595	0.3580838376277891	-0.06183998238521149	0.9710714170435866	-0.23064283986189033
313														8.879305650799749	3.4553140703575633	-2.155543803369426	-0.38075372287370124	0.19102249100443047	0.9047303523416679	0.922625603815624	0.14361246408082254	0.3579629245389658	-0.06155158569583352	0.9710231037885229	-0.23092322145516614
314														8.90869550956412	3.4745834774313598	-2.1808179820309013	-0.3806773044260142	0.1914429459539756	0.9046736363680591	0.9226720912866676	0.1435219183617276	0.3578794083353458	-0.06132700755483944	0.9709536844743074	-0.231274600313428
315														8.898768729273161	3.4809187773107326	-2.1629304521294017	-0.380526881900904	0.1918510402117568	0.9046504687007259	0.9227544620127024	0.1433202591392258	0.3577478248094795	-0.06102044728141809	0.9709029208370592	-0.23156861472065599
316														8.920211264724331	3.4415395142402603	-2.198912934449268	-0.38038951820311473	0.19220247060073747	0.9046336411698246	0.9228202338621414	0.1432766336851986	0.3575956126890543	-0.060882102590375686	0.970839851126235	-0.23186925852593077
317														8.90108317872084	3.455060836872659	-2.1589008332594695	-0.3802363895444275	0.19235637575723824	0.9046653042820636	0.9228835286986905	0.143293132178856	0.35742561565593844	-0.060879228993738765	0.9708069339348134	-0.23200779405273186
318														8.831938590512987	3.4591418374075693	-2.195013004358367	-0.3800862563807301	0.1927890786928249	0.9046362853916783	0.9229601569992522	0.14318729981701064	0.3572701299619515	-0.06065464782189456	0.9707367142062185	-0.2323601630867836
319														8.897775005242961	3.4305940073335246	-2.21591073110153	-0.3799330831774761	0.19330872244182046	0.904589735811306	0.9230218230900369	0.14337340075374766	0.3570361074959368	-0.060675912904561036	0.9706058962237025	-0.23290046760146627
320														8.844160652269373	3.468368009234901	-2.1740469296043563	-0.3797758299844662	0.19366562355848727	0.9045794300177908	0.9230891789704867	0.14342933128582747	0.35683945212727314	-0.06063568773586947	0.9705264824715512	-0.2332416347786035
321														8.840977395575264	3.445541862447324	-2.2277001514935337	-0.3796221166932779	0.1940394148212623	0.9045638473944988	0.9231603354879976	0.14340798321867543	0.35666391088928584	-0.06051482049055085	0.9704549736309124	-0.23357033342447886
322														8.890054256134016	3.409550491619217	-2.1967164627016844	-0.37946363052112114	0.19445330478841172	0.9045414669149203	0.9232264421867536	0.14351284138468362	0.35645055871029885	-0.060500326932336534	0.9703566234197407	-0.23398233656949557
323														8.923028775532739	3.448227059574674	-2.172097584733576	-0.3792518050326515	0.19468939305103772	0.9045795203368772	0.9232930912275333	0.14387435026235998	0.3561320527951534	-0.06081065754439691	0.9702557454454999	-0.23431997857420467
324														8.802543953905882	3.507946074651668	-2.2525327730090963	-0.37908982100256006	0.19499506342264172	0.9045815788822185	0.9233573517263608	0.14398657597079634	0.3559200288731839	-0.06084495562599257	0.9701777111338965	-0.2346339706731848
325														8.896483220366882	3.3736139349575103	-2.2791642886561627	-0.3789498189670145	0.1955739577323346	0.9045152634211204	0.9234143112388693	0.14418416277946627	0.35569219418315906	-0.06085264582672417	0.9700318315707461	-0.23523435385885258
326														8.971136560272418	3.5554002141300494	-2.1765438099841004	-0.37882630944291346	0.19602842374159868	0.9044686198864208	0.9234509603450106	0.14455223977015394	0.3554475683069305	-0.06106513826841031	0.9698853061382138	-0.23578282767293246
327														8.964464264770752	3.5109349410824002	-2.2818814292033682	-0.3786167686736106	0.1964389354481874	0.9044672946652829	0.9235377611519879	0.14464229139133966	0.35518531961137617	-0.061051995917629664	0.9697888183419341	-0.23618277162703483
328														8.923111558051067	3.51812726340437	-2.251535152082829	-0.37844723413794257	0.1967656824599931	0.9044672228330854	0.923598685267607	0.1448598780947086	0.35493814149839403	-0.06118136599724727	0.9696900958164103	-0.23655434582833504
329														8.880855361674286	3.4818279573707027	-2.261769427015162	-0.3782225034823138	0.19704667599692538	0.904500052702118	0.9236847199898139	0.1450036625974998	0.35465543262531557	-0.06127214633836875	0.9696115435120776	-0.23685265202487468
330														8.838622705368754	3.4456819166623163	-2.271579388676306	-0.378059169568852	0.19731911165002375	0.9045089454961495	0.923746644304448	0.14514364651050224	0.35443681949524797	-0.061346568291818115	0.9695351927884209	-0.23714575371179944
331														8.861042875122786	3.448935454795565	-2.2667983969041328	-0.3779247899933325	0.1976387833601821	0.9044953092307348	0.9237962777255959	0.1453164063142485	0.3542366148723845	-0.0614271142804978	0.9694441981712094	-0.2374966447412497
332														8.881013595838228	3.4747833940171167	-2.2719588683537104	-0.3778083140539973	0.1980301438991593	0.9044583682729432	0.9238380961659852	0.14552935179442797	0.35404008224875055	-0.06151463162601717	0.9693323835886081	-0.23792999017009922
333														8.886885007466095	3.5534915501996096	-2.274828394681414	-0.37770706901009077	0.19843397047816536	0.9044121457499767	0.9238802208691809	0.1456479768376891	0.35388134216118505	-0.0615037194527312	0.9692319774973166	-0.23834149091192908
334														8.886594031454832	3.5517044548162957	-2.2787524741061693	-0.3776130823076729	0.19877261591884038	0.9043770271467979	0.9239173352550709	0.1457750062675155	0.3537321093184428	-0.061523310096805395	0.9691434850983042	-0.23869601506151153
335														8.85561885434373	3.4862409047828784	-2.3006187756801575	-0.3774887458967572	0.19907009890853677	0.9043635012769142	0.9239745032030946	0.14575663080495244	0.35359033076002505	-0.061427714851592874	0.9690851873271693	-0.23895718351030423
336														8.88231408104768	3.4449767254892025	-2.27749830626671	-0.3773728825383475	0.19945261634023015	0.9043275741454178	0.9240206829257247	0.1458921226076603	0.3534137321702556	-0.06144497579278846	0.9689861414881374	-0.23935407361011268
337														8.883337493391798	3.486351525365491	-2.240606597022491	-0.3771828673452501	0.19992221750839229	0.9043031524481944	0.9241029650574737	0.1459486058551398	0.3531751894186878	-0.06137421733269138	0.9688808551083397	-0.23979802762185398
338														8.920008968069789	3.5189250980234097	-2.2977147034492797	-0.37702063200836056	0.20036593613870096	0.9042725997592087	0.9241707095500886	0.14605234382090782	0.3529549723039825	-0.06135097920736138	0.9687735568747122	-0.24023707634463207
339														8.919844068007784	3.5168288908582284	-2.3015608400629692	-0.37687757447220444	0.2007450609596677	0.9042481486628804	0.9242382180063906	0.14601561792207324	0.3527933611892463	-0.061212827383799906	0.9687006038106581	-0.24056626933247877
340														8.951597708896015	3.5128011674288016	-2.3177445458482677	-0.37675944747866846	0.20102732202857154	0.9042346678454602	0.9242879937785836	0.146067188949493	0.352641575638997	-0.061188424496221416	0.9686342922436798	-0.24083933357584286
341														8.924344249533213	3.468418405234333	-2.2881341163255735	-0.37662246370738783	0.20116911121423647	0.9042601995688252	0.9243431434007174	0.14609492957372353	0.35248549587313466	-0.06119863625162081	0.968600671198468	-0.2409719209261089
342														8.879757838849736	3.4557577871043215	-2.3056358416322165	-0.3765141360744308	0.2013271170555359	0.9042701461810141	0.9243842503614221	0.1461740867152818	0.35234485104327246	-0.061244289691999854	0.9685558983925815	-0.24114022615288094
343														8.870442624912224	3.4620738936402535	-2.286308261806687	-0.376419641280008	0.20149948139264034	0.9042710946708002	0.9244179659699989	0.1462901778856805	0.3522081884994529	-0.061316211971389256	0.9685025259918908	-0.2413362370155106
344														8.904472801815796	3.4361128193798045	-2.2921181065221905	-0.3763590901743711	0.20169412073475795	0.9042529053888364	0.9244437938939152	0.14633049656169608	0.35212363980146394	-0.061298508743225955	0.9684559192018187	-0.24152769072886104
345														8.922225979576838	3.48550725609071	-2.305140296915139	-0.37630306349957476	0.20199502757811016	0.9042090539441381	0.9244682547494301	0.14640584755200187	0.3520280866111716	-0.061273569843592335	0.9683818134580482	-0.24183095956126852
346														8.94446738905738	3.489867917504006	-2.2996097505157227	-0.37622616178658186	0.20218802623993853	0.9041979192812457	0.9244998759826679	0.1464543300984647	0.3519248620138128	-0.06126870730942502	0.9683342043120274	-0.24202275567397405
347														8.926580611372897	3.4382692159445876	-2.290396269457771	-0.3761357163433802	0.20229165025380436	0.9042123705902527	0.924537384510896	0.1464581228297254	0.35182473321093355	-0.06125804055472023	0.9683119882015224	-0.24211432417891077
348														8.917278343640012	3.444991564940559	-2.27051259337544	-0.3760839182725686	0.2024190725115842	0.904205400061459	0.9245532806184598	0.14657492294670832	0.3517343077676833	-0.0613361044931674	0.968267685635908	-0.2422716888926288
349														8.933842128080489	3.450775545086885	-2.323706867658285	-0.3760196920842129	0.20256791414166536	0.904198778657209	0.9245738156371406	0.14670293555070824	0.35162694455769866	-0.061420278435317555	0.9682171702986366	-0.24245218195724372
350														8.928904683355748	3.4127528778181544	-2.285272486572978	-0.3759910238401845	0.20261970295923765	0.9041990964186595	0.9245784752777941	0.14682525878692015	0.35156363070594154	-0.06152554790166004	0.9681877913684227	-0.24254279540018558
351														8.917462330056274	3.442385338033905	-2.2737405101920327	-0.37595629984591383	0.20260127078055423	0.904217664992381	0.9245973406405983	0.14673362321021338	0.3515522742067482	-0.06145419665492996	0.968205540625392	-0.24249002621920243
352														8.897487335570485	3.413734527057701	-2.272505973469876	-0.3759175130124046	0.20262242390012475	0.9042290510392854	0.924605565826032	0.14684971749781053	0.35148215902707836	-0.06156761367871666	0.9681835124622044	-0.24254920148756812
353														8.920073695317084	3.4185735999424187	-2.2649341528553784	-0.37588169210896244	0.20263468960257164	0.9042411935468174	0.9246139705640182	0.1469411907704761	0.35142181476509926	-0.06166002736898757	0.9681670666907775	-0.24259136835475348
354														8.933240066761186	3.431284828462992	-2.236271975230408	-0.37585422697501747	0.20265479878238707	0.9042481034514154	0.9246164542172046	0.14707745425450536	0.35135827162714867	-0.0617900692329717	0.9681421667195802	-0.24265764435455248
355														8.90883829692278	3.4476387841614335	-2.2534910402537607	-0.3757975202854683	0.202619188134177	0.9042796516272724	0.9246360685698389	0.14710148114123045	0.35129659113884015	-0.061841446029391955	0.9681459698030583	-0.24262938137639187
356														8.889898498136441	3.3530012240964573	-2.2827063703728405	-0.3757450935399337	0.20247657832784305	0.9043333787433234	0.9246493918212326	0.14715621499548648	0.3512385949647714	-0.061960688224801164	0.9681674873785273	-0.24251307077734585
357														8.904861029963019	3.4091597113910486	-2.211914660801597	-0.37567561325919574	0.20239992064835688	0.9043794036375805	0.9246781272981068	0.14709906104407583	0.35118688349142146	-0.0619531637512819	0.9681922011468022	-0.24241630955799312
358														8.901742311026052	3.3870795487876126	-2.261471991266992	-0.3756264509203267	0.20230043659947455	0.9044220821721798	0.9246890224875073	0.1471883365113615	0.3511207844689862	-0.062088493781839116	0.9681994251943552	-0.24235282542859354
359														8.96218258795748	3.38822669983411	-2.206850326666503	-0.37560018006858126	0.2022489269972595	0.9044445125384459	0.9246970558438982	0.14720209298949885	0.3510938602897212	-0.062127768719604404	0.968208095064263	-0.24230811997528112
360														8.967604401807858	3.424576019588745	-2.2459947132558358	-0.3755691406661247	0.20207109815728735	0.9044971486239284	0.9246967528422112	0.14732525207646674	0.35104299648857334	-0.06231962662259488	0.9682264928156603	-0.24218530663008211
361														8.968386432349789	3.4238123214871745	-2.2440357391479253	-0.3754772498256645	0.2017919815057267	0.9045976072615642	0.9247275855905381	0.1472918563186025	0.350975784791648	-0.06241576172128782	0.968289783722937	-0.24190735298154709
362														8.917263266720072	3.397648708043262	-2.226635666176695	-0.37546207486123007	0.2014356495266016	0.9046833199748386	0.924719793639958	0.14736548289448204	0.350965408126997	-0.06262214936724486	0.9683527732965256	-0.24160168223245923
363														8.933358440106637	3.387965946443011	-2.1854601249170185	-0.3753701096367129	0.20116818185590457	0.9047809919533638	0.9247492993410626	0.14735699740878405	0.3508912205839333	-0.06273766141271986	0.9684096643071353	-0.2413435474940351
364														8.937956032807328	3.3804677790090234	-2.2637365572287296	-0.3753248668598956	0.20089994867236882	0.9048593564416747	0.924753829177063	0.14745354639961417	0.35083871946599166	-0.06294124036720011	0.9684506504090009	-0.241125979486703
365														8.944497169021783	3.3785640509541537	-2.201984936702984	-0.3752743023365769	0.20059135390710908	0.9049487868070263	0.92475623924611	0.1475978933442766	0.3507716634161362	-0.06320677164028438	0.9684926280659263	-0.2408878025155455
366														8.946712931773154	3.421481445924913	-2.15877419750979	-0.37522376635228294	0.20025554282241398	0.905044110932339	0.9247563642460395	0.14776524013384773	0.3507008705358929	-0.0635042671861834	0.9685366030135809	-0.24063261763954444
367														8.970006651806642	3.426423766809244	-2.1479828061536153	-0.37520180678362575	0.199885929211279	0.9051349178380245	0.9247501408700315	0.1478463311258461	0.3506831038608568	-0.06372425870232323	0.9686005769541803	-0.24031675176081502
368														8.969654525906702	3.3821812907310123	-2.1856654776709656	-0.37515845994929586	0.19948926157886193	0.905240390417481	0.9247457789646529	0.14801341240369753	0.3506241207271265	-0.06404197229575448	0.9686568351399445	-0.24000533644303926
369														8.974080347587172	3.4030503715883933	-2.132131254958941	-0.37515566687331514	0.1990433438376507	0.9053397002709895	0.9247297108987795	0.14809961118870746	0.3506300998870657	-0.0642898700721834	0.968735388245769	-0.23962170220249532
370														8.984598929043683	3.3948863877122113	-2.1492814232261517	-0.37512193151417217	0.1985618198941585	0.9054594083543428	0.9247244127832941	0.14818925322289053	0.3506061973665524	-0.06456234893239715	0.9688204936465588	-0.23920400120142135
371														8.985815999860753	3.3946376861249017	-2.144581251350666	-0.37509073359050515	0.19797996692743475	0.9055997318186155	0.924719467052644	0.14821896491608513	0.35060668232804487	-0.06481395550659558	0.9689350190464869	-0.23867148978663716
372														8.981954797629411	3.3574755906301044	-2.0994106230616354	-0.37505687495175877	0.19735976620054752	0.9057491171603131	0.9247099473586724	0.1483162943704927	0.3505906303370459	-0.06514486785114088	0.9690466446510566	-0.23812758488505031
373														9.018417350915758	3.3762051693920703	-2.0572887266528364	-0.37504193516836737	0.19682886602580202	0.9058708210137707	0.92469393211426	0.14843429699072905	0.35058293082798053	-0.06545745775871997	0.9691365522855203	-0.2376755440677489
374														9.047202377022188	3.418532863422069	-2.0842063802426662	-0.3750390169728258	0.19620394820411896	0.9060075863132557	0.924667026478021	0.14860630983852385	0.35058102461552504	-0.06585306289270948	0.9692369036439399	-0.23715648572694956
375														9.077320498204683	3.3944749873409483	-2.1414966687681964	-0.37496577628228694	0.19549174391337498	0.9061918365769625	0.9246690799776902	0.1487164861416769	0.3505288850906344	-0.06624016266761945	0.9693639073182881	-0.2365287636597026
376														9.013237763062989	3.4211098819987322	-2.1179051244178555	-0.37486594519602	0.19462680791480563	0.9064192897181678	0.92468196878343	0.1487573111165088	0.35047755847726647	-0.06662416783040542	0.9695316745884476	-0.2357319499572054
377														8.919666678815043	3.4274422190661915	-2.071014771665292	-0.37469483934682435	0.19375038200813993	0.9066777635072765	0.924733491385936	0.14863090438225224	0.3503952399386874	-0.0668711243814098	0.9697265819467944	-0.23485870005122733
378														8.904627328448802	3.419971119293788	-2.012122116451046	-0.37458482107866525	0.19305786923741064	0.9068709229780032	0.9247585566043289	0.14861580486999382	0.35033548853908913	-0.0671403291959663	0.9698670020514951	-0.23420114117378354
379														8.880745984289193	3.39259019569602	-2.0644001822773235	-0.3745151717157762	0.1924814387080404	0.9070222058514252	0.9247765368233476	0.14852192271790104	0.3503278399059843	-0.06728107531630162	0.9699959454683613	-0.23362603168144905
380														8.938680610958363	3.4110614891438993	-2.154002059447073	-0.374491214106214	0.1919725481717499	0.9071399403100382	0.9247688578393384	0.14856906806980538	0.35032811988676504	-0.06751955366988066	0.9700895694529011	-0.23316804478938663
381														8.997195488346318	3.4355609762715975	-2.1035734510341437	-0.3744855841351188	0.1913944903178546	0.907264402669336	0.9247546807881291	0.14858038280494631	0.35036074295785546	-0.06774457642810727	0.9702020505655014	-0.23263416224422426
382														8.979092633983816	3.4518198758017413	-2.055723544963982	-0.3745116427772651	0.1906943942392174	0.9074010565510776	0.9247270464429	0.148561240376749	0.3504417889389223	-0.06797734182258519	0.9703428290369643	-0.23197817814457392
383														8.832851114276234	3.3621577271498073	-2.1684951080272095	-0.3745645667938079	0.19004489390146123	0.9075154674189027	0.9247023233588529	0.14837145379820713	0.3505873997629492	-0.06802204405416323	0.9704992787219313	-0.2313096442496609
384														8.712652448246393	3.3430121045280785	-2.183505603689107	-0.37459112283502094	0.1895507954709451	0.9076078374659018	0.9246727079567815	0.14845623197177682	0.3506296198962876	-0.0682779162912242	0.9705829398485605	-0.23088283396964496
385														8.730885315961993	3.355868748714736	-2.0914716638100024	-0.3746636510825898	0.18923420616372272	0.9076439631127664	0.9246315308965458	0.14852070286071217	0.35071089645699643	-0.06843742126478314	0.9706348520629915	-0.2306172225383023
386														8.765854156897168	3.375467393105982	-2.0528070909614264	-0.37478230630702025	0.1891331050362937	0.9076160484800395	0.9245672196477175	0.14874299371020483	0.35078622859943603	-0.06865623957136502	0.9706205182260761	-0.23061251129646687
387														8.835198746714362	3.4080108275589733	-2.118383140685788	-0.3748593487689418	0.18913851299686812	0.907583104482371	0.9245266763889803	0.14889712783358394	0.35082769270406083	-0.06878148941154427	0.9705958315510339	-0.2306790811714117
388														8.857167725476573	3.41413410034928	-2.1106049024789746	-0.3750046206737837	0.1890698277041128	0.9075374012817596	0.9244530236620734	0.14911699672513493	0.3509283806273398	-0.06897928323317515	0.9705754589621634	-0.23070573669725727
389														8.88330757919274	3.375709483155757	-2.083417307340023	-0.3751218707137486	0.18898192399267139	0.9075072531480095	0.9243962133190284	0.14924417381205635	0.3510239555708381	-0.06910298773322837	0.9705730312486456	-0.23067892859807634
390														8.927472142155228	3.3878796104611926	-2.0670740636446054	-0.3753179772690458	0.18892830478685152	0.90743733204505	0.9243004944978295	0.14950174106589298	0.3511663783583704	-0.06931819248753873	0.9705438295453909	-0.23073721659417515
391														9.021511302809571	3.4484213458330024	-2.074670259654714	-0.3755368327158113	0.18889649348637244	0.907353405251961	0.9241953454196232	0.14977504535839745	0.3513266276452627	-0.06953452939712629	0.9705078827791367	-0.23082330619995314
392														9.080857948525807	3.489887782105251	-2.1188608626715246	-0.37571375295611426	0.1886754760976122	0.9073261489447841	0.9241045450026903	0.14999988613839613	0.35146952081772354	-0.06978513985802343	0.9705161507557764	-0.23071288515639637
393														9.084904093593591	3.4466822522585474	-2.0978694946148995	-0.3759057256220625	0.1883153190175753	0.9073214568541068	0.9240161703176515	0.15005468459839277	0.3516784164852563	-0.06992140184558054	0.9705776281438725	-0.23041281498771535
394														9.032819239229228	3.422852802485247	-2.080442595533666	-0.3760846782728784	0.18779234460895178	0.907355691046603	0.923920402427532	0.15021746058695037	0.35186049012777154	-0.07022396134178904	0.970653774443329	-0.22999966393972446
395														8.966338159511896	3.4074560319052503	-2.101395331979891	-0.37619144379714653	0.18739381993557735	0.9073938251188234	0.9238694559958986	0.15019462045473217	0.35200398330743404	-0.07032230010217011	0.9707343262893358	-0.2296293576003055
396														8.979016809031005	3.4224200552630992	-2.0692123903963267	-0.37639972378488945	0.18702038197598747	0.9073844965945885	0.9237614539023009	0.1504241443466486	0.35218937105183346	-0.07062594579165876	0.9707708038065085	-0.22938182634615867
397														8.998443429165599	3.4080671112828784	-2.1089495908673457	-0.37657878479997947	0.18674128884982383	0.9073676817460923	0.9236663683380972	0.15066655196830736	0.35233511053979866	-0.07091444732691304	0.9707869391152151	-0.22922447514092048
398														8.966191819711794	3.412003285087342	-2.094630311832064	-0.37679173584241965	0.18644428186448808	0.9073403537597631	0.9235579632316635	0.15090221970718326	0.35251838056876844	-0.07119463710307278	0.9708074216071285	-0.22905081052090043
399														8.931276691357107	3.39419931584638	-2.1305603531777804	-0.37695481043239254	0.18620544564983355	0.9073216645171798	0.9234753161542196	0.15107187307423112	0.35266220327631853	-0.0714031606145204	0.9708268749762701	-0.22890340206748072
400														8.864264939579861	3.3786776830789584	-2.1542188364426478	-0.37717938335486223	0.18594920202490517	0.9072808865165992	0.9233582160327756	0.15137633481315566	0.3528382209218622	-0.071730869622606	0.9708285634059373	-0.22879375607377989
401														8.762971104669905	3.3876892259504103	-2.1756006758131803	-0.37733050772248383	0.18586959936650127	0.9072343578002485	0.9232829645394026	0.15156799371101498	0.3529528448302273	-0.07190448757362355	0.9708139035436991	-0.22880146274230978
402														8.678047793598358	3.365289370762638	-2.150350172708382	-0.3775364869150308	0.18596210289594467	0.9071297025973597	0.9231797683009688	0.15191456888154195	0.35307375881153263	-0.07214787902375108	0.9707420151863484	-0.22902974371098794
403														8.649791432767506	3.361408149152042	-2.2215518986211595	-0.37778501152847155	0.1863039933239784	0.9069560668168953	0.9230741786353805	0.15216639596828926	0.35324134621337927	-0.07219796258241129	0.9706370124869348	-0.22945858926914883
404														8.754871474220797	3.4358206093170987	-2.204862417302637	-0.3781326302280219	0.18681950019505683	0.9067051275380038	0.9229147806824598	0.15268875649381894	0.35343238566693197	-0.07241561678730452	0.9704558815253999	-0.23015507914898123
405														8.819285135150633	3.4547468162203545	-2.1865383568586303	-0.37847372359557485	0.18737098084549597	0.9064489815123062	0.9227798168024994	0.15292984574099425	0.3536804659344099	-0.07235364710673592	0.9703115880059521	-0.23078208754520238
406														8.824531313452896	3.471302231811935	-2.223078983578326	-0.3788597625780944	0.18781823559193284	0.9061951173331286	0.9226091144886768	0.15337236710022212	0.35393408831658774	-0.0725100142165847	0.9701552594245972	-0.23138943460992936
407														8.807978190163956	3.5263800516292636	-2.227372718785208	-0.3792283379359697	0.1883325605918506	0.9059341666629193	0.9224575267515007	0.15367446891119563	0.3541980645689149	-0.07251192347348928	0.9700077341061657	-0.23200650147872137
408														8.836946543577941	3.482680535458876	-2.286049308699459	-0.3796569384279038	0.1887463331715492	0.905668499406844	0.9222780111592946	0.1539946878223094	0.35452631249960115	-0.07255259633952588	0.9698765167983001	-0.2325417444838449
409														8.870942509122349	3.4385834986074704	-2.2844933565879333	-0.3800540446286471	0.18910052337608396	0.9054280287357455	0.9221100447078817	0.15429951459224667	0.35483055850000544	-0.07260846100996105	0.9697590689730561	-0.23301364666962496
410														8.870736946469691	3.419391310783345	-2.279522852133731	-0.38053203221751364	0.18942172414693614	0.9051600868783443	0.9219056790721928	0.1546512823237565	0.35520824845442067	-0.07270000929056913	0.9696403412074089	-0.23347872997841015
411														8.878060125688362	3.4145421500298574	-2.305073998007953	-0.38096529084674047	0.18975672659077408	0.9049076372114523	0.921726066702216	0.154909283934575	0.35556176919424287	-0.07270835668423037	0.9695336499907737	-0.2339187816397976
412														8.940315522031367	3.4571544401002035	-2.2946621927665043	-0.3814209763499787	0.1900078027251822	0.9046629613860497	0.9215219457380619	0.1553403592649346	0.3559026219439494	-0.07290639425568757	0.9694154979610081	-0.23434643157011148
413														8.923316509802188	3.468741480750318	-2.337361254872643	-0.38184567716134094	0.19026885485610306	0.9044289036209227	0.9213454032177599	0.15556751298310112	0.35626029370918666	-0.07291451709159391	0.9693278659854981	-0.23470611713651568
414														8.923466691734518	3.449412038020117	-2.331342267684635	-0.3822878575845977	0.19042216351303598	0.9042098172362384	0.9211393855500557	0.15604904387019122	0.3565822882528853	-0.07319990663821196	0.9692203544861264	-0.2350610093527707
415														8.968145121450139	3.441643394629679	-2.309211213688387	-0.38271303935390877	0.1906859802178451	0.9039743284280002	0.920951170305643	0.1564235489015044	0.35690421020453955	-0.07334624340183332	0.9691081107376097	-0.23547780846912256
416														8.983665276510296	3.4948789735603625	-2.324650458456611	-0.3831411000873005	0.19091213201073748	0.903745238037251	0.9207501181787685	0.15693424845792853	0.35719863036513544	-0.07363502765448438	0.9689810109140734	-0.23591032870619172
417														8.981265733432206	3.4529325129434	-2.3687525322916887	-0.3834480883872661	0.19116085376777558	0.9035624447147678	0.9206232691898757	0.15710443836741358	0.35745068425085785	-0.07362309242553122	0.968904393339217	-0.236228526705957
418														8.93744458825859	3.420875425161791	-2.3785546425458146	-0.383770565954598	0.19129744196931642	0.9033966135662029	0.9204682282991613	0.15751867390405103	0.3576675943712431	-0.07388094069982076	0.9688101754562166	-0.2365342481202338
419														8.903885787118492	3.424861998736197	-2.369103854728198	-0.38405665201447187	0.19152546282271532	0.9032267074959528	0.9203383173962197	0.1578265002099228	0.3578661444783263	-0.07401263119042573	0.968715021521826	-0.23688253946257437
420														8.823352979131199	3.4391255678344907	-2.386388029890534	-0.3843596502069886	0.19180570248583761	0.9030383335089798	0.9201879293212788	0.15833330210841426	0.35802896555287606	-0.0743090440268091	0.96857686217324	-0.2373542248169638
421														8.839016571418682	3.4908799897575324	-2.4029553102218126	-0.38463778397102166	0.192327760584737	0.9028088433607205	0.9200727990441572	0.15860314815282084	0.35820536826667576	-0.07429548842905642	0.968429178569334	-0.23796030445142205
422														8.832148609224504	3.5367965037889717	-2.428399100506773	-0.38497474040699825	0.19274269424466	0.9025767020391529	0.9199086613593155	0.15916323315819522	0.358378459127697	-0.07458219629829049	0.968254780017088	-0.23857949821680768
423														8.879405807135688	3.586470772756872	-2.4587796456526743	-0.3853044687265493	0.19321852992794752	0.9023342319073546	0.9197609828830374	0.1595688907325965	0.35857705375051363	-0.07470074126393716	0.9680931612209914	-0.23919747166675231
424														8.911475873986694	3.56384615200299	-2.467391684256981	-0.38568496125576013	0.1935199397811953	0.9021070577089094	0.9195818888194833	0.16004865343075272	0.3588224885513648	-0.07494171346009054	0.967953749639974	-0.2396857904457007
425														8.855198444843984	3.56214612009894	-2.4670068940106336	-0.3860191025512194	0.19378030173898236	0.9019082254439752	0.9194371401999615	0.16030432845316087	0.3590791939114516	-0.07499731786182684	0.9678593477035443	-0.24004933946254056
426														8.80913764213254	3.5966576177198872	-2.447425701997258	-0.3864041720231166	0.19404378840417263	0.9016866551218812	0.9192486908191357	0.16086087330997415	0.3593127104142819	-0.07532370324429666	0.9677142076148872	-0.24053181101437707
427														8.831565592409941	3.582358632906918	-2.4347827882105344	-0.3867802357177319	0.19442369245101954	0.9014435517944802	0.9190765410819258	0.16129747147616763	0.35955727962075607	-0.07549411163143427	0.967565270929619	-0.24107692880048523
428														8.878657221215676	3.6325727506319896	-2.4647038385315256	-0.3871799250158724	0.19472825147265327	0.9012061993479115	0.9188787154152044	0.16190905571064837	0.3597879431495596	-0.07585256766654652	0.9674018636312884	-0.24161958161768002
429														8.98737147467584	3.619971754256464	-2.4694994589942856	-0.38754466562947276	0.19500735613364184	0.9009890472119559	0.9187141679612523	0.1622608735269986	0.3600495611850128	-0.07598295683510292	0.9672866896510173	-0.24203935691240902
430														8.982774004324416	3.5997666231957814	-2.522317519423425	-0.38788016532331704	0.19498663717246534	0.9008491486774739	0.9185446396588812	0.16270227406317378	0.3602828263581377	-0.07631986833513471	0.9672167189099066	-0.2422129153419826
431														8.897951938510472	3.5780399939712297	-2.495496378996751	-0.38816526379761596	0.1948530893829874	0.9007552395289378	0.9184115325481517	0.16288989199044218	0.36053729345228425	-0.07647211820973515	0.967212053608333	-0.24218352233640644
432														8.8604087843762	3.5462318982208707	-2.4416196188231	-0.3884955016295583	0.19459247345879171	0.9006692036962229	0.9182410295306199	0.16326836380650955	0.3608002952694101	-0.07684176533725723	0.9672007085673251	-0.24211181806495774
433														8.824900939977473	3.528159653754988	-2.4778527988401042	-0.38875610357916635	0.19443323351383296	0.900591144546347	0.9181186871283453	0.16342975289217568	0.3610384913209746	-0.07698550691959816	0.9672054763983491	-0.24204709903110758
434														8.836880441301085	3.5440911643121624	-2.448572940361602	-0.38900772778530435	0.19423101759835637	0.900526123733244	0.9179823218511833	0.16379316691037643	0.36122050778185394	-0.07733979888792908	0.967184630913962	-0.24201744819702184
435														8.846522616566457	3.581862423093658	-2.4291886550906536	-0.3892008876689134	0.19403559072074777	0.900484790860668	0.9178769824935062	0.16406230815805486	0.36136602503620596	-0.07761774311551572	0.9671782403339638	-0.24195399847523064
436														8.843928068950957	3.605133892910456	-2.4379329901607676	-0.3893641885660275	0.19371451625920244	0.9004833229176333	0.917779199066824	0.16433429802285923	0.3614907747835254	-0.07795428418360595	0.9671964250780696	-0.2417730441832264
437														8.83648463693831	3.5475563355636286	-2.444980809012937	-0.3895031463207397	0.1933932869127052	0.9004922740275705	0.9177040448596757	0.16444523992815513	0.36163109533495924	-0.07814464187924425	0.9672418516803707	-0.2415297399979826
438														8.827066595727592	3.55670684675544	-2.4215918348152328	-0.3896269928361539	0.19298304391680848	0.9005267076628314	0.9176232501149306	0.1646640219290834	0.36173654879020645	-0.0784753292568226	0.9672865680049223	-0.24124327566854945
439														8.758295028621525	3.5615151700246743	-2.4528427130697517	-0.3897324166956344	0.19263962545288094	0.9005546169344498	0.9175684208701688	0.16467969434917118	0.3618684723637692	-0.07859285208213751	0.9673523520281723	-0.24094105218322168
440														8.749068830487467	3.615305197573839	-2.389865264518244	-0.38989025809815114	0.1922906804346804	0.9005608701571066	0.9174742740059336	0.16491669841154097	0.36199922530624584	-0.0789084480739693	0.9673814019315261	-0.24072116653828599
441														8.788757201898706	3.672863342566598	-2.391415125482513	-0.39001189922814083	0.1920152241803934	0.9005669726030439	0.9174164161919172	0.16491564997223968	0.3621463070304772	-0.07897998329980455	0.967436293549703	-0.2404769846799806
442														8.818179235443194	3.649374945424305	-2.4517723675607472	-0.3901667614695936	0.19173738189986916	0.9005590900249207	0.9173342020761139	0.16504768652190382	0.3622943870323514	-0.07916981713828314	0.9674688819574258	-0.2402833795715795
443														8.806080170797719	3.680988346005303	-2.438482285358721	-0.39027561145826806	0.1914312169125893	0.9005770573872283	0.9172875784670527	0.16495900343779085	0.3624527908222813	-0.07917351508506187	0.9675446327566367	-0.2399769533369806
444														8.75956177346707	3.6117908624652357	-2.400986127759845	-0.3904032068337736	0.19105496789173748	0.9006016518626832	0.917222028885609	0.16498077308386086	0.3626087343675261	-0.07930375666305628	0.967615287062239	-0.23964884815618873
445														8.759746026084192	3.6132056875105785	-2.398183467612599	-0.39054544644464173	0.19078377055638096	0.9005974723224833	0.9171600433740271	0.1649289116725556	0.36278906947792605	-0.07932029437356203	0.9676776358823205	-0.23939148671933794
446														8.80401821733601	3.627073258005143	-2.3800928639426404	-0.3907497557873756	0.19057625043345616	0.9005527864166711	0.9170655433528018	0.1649937049198982	0.3629984387457273	-0.0794066593374651	0.967707481684176	-0.23924216255780165
447														8.808463546966589	3.665150096390475	-2.419312793211602	-0.3909604967908819	0.19042723756735408	0.9004928412494424	0.9169826256328706	0.1649084941091437	0.363246545555634	-0.0793268821804663	0.9677513398405198	-0.23909117507847383
448														8.763793525809165	3.6100821533541105	-2.4730507649410574	-0.39111712717323555	0.19008472526283637	0.9004971904750769	0.9169076720384737	0.16491361872615182	0.3634333767221056	-0.0794211167684114	0.9678178008181071	-0.238790683718735
449														8.805867647156372	3.5656076008505466	-2.4037765354576752	-0.39126230534782935	0.18988529530655268	0.9004761979309865	0.9168554670229634	0.16475500050814132	0.36363696511447546	-0.07930864394254805	0.9678839622774549	-0.23855979242548078
450														8.771379386869205	3.5911191795616983	-2.399027293212307	-0.3913610285191062	0.18966276356871814	0.9004801949359817	0.9168079987345482	0.16475777436887432	0.363755370051588	-0.07937026403395658	0.9679271211720909	-0.23836411073542169
451														8.800951683938091	3.6122862996304366	-2.4199740802513876	-0.39147872915412973	0.18952656563562342	0.900457708911548	0.9167667614375118	0.16462561759614702	0.3639190997384782	-0.07926606930613345	0.9679762842908155	-0.23819908334689777
452														8.880012240642957	3.601332129650333	-2.4044492576313576	-0.39154075797631105	0.18926511815282265	0.9004857299779572	0.9167406179252515	0.1645330231315617	0.36402681734347175	-0.0792620608447962	0.9680431805192304	-0.23792840595618
453														8.803999406950497	3.547735745304148	-2.444285119636809	-0.3916404940479542	0.1888901064766917	0.900521099751193	0.9167101771139383	0.1642605003741085	0.3642264943583582	-0.07912126514159107	0.9681627010436167	-0.23748854648239875
454														8.838939056234313	3.569764416118888	-2.4034323133653226	-0.39177498032206715	0.18850149690860352	0.9005440302710691	0.9166435453136349	0.16425278559261822	0.36439763070019543	-0.07922736666389085	0.9682397472156787	-0.23713881226662212
455														8.945308329222165	3.60165867879257	-2.418699953548587	-0.3919217379789386	0.18808613439683475	0.9005670199086926	0.9165792142892715	0.16414491664233832	0.364607995350268	-0.07924578999814036	0.9683388107414342	-0.23672780229503051
456														8.948641743669715	3.5361629424441445	-2.4436165027938883	-0.3919728488466775	0.18746724380262347	0.9006738134685984	0.9165427159703967	0.16408723732802175	0.3647256891797813	-0.07941495809121035	0.9684685906352902	-0.23613947866518656
457														8.878601546727126	3.563007741734379	-2.4813897538844327	-0.39199329153782475	0.186713767756496	0.9008214186616094	0.9165240869504985	0.16390823081818784	0.3648529702628252	-0.07952897226103361	0.9686444449849616	-0.235378592422673
458														8.806293878537103	3.5758978428932195	-2.4282155286540124	-0.3919503221866426	0.1859558456109876	0.9009968748119439	0.916525009436387	0.16380175795840382	0.3648984669293194	-0.0797298690292298	0.9688082408675307	-0.23463533495989647
459														8.800732089114092	3.517438884591892	-2.43066774170232	-0.39190046119712485	0.18536670545967482	0.9011399519611305	0.9165404207297716	0.16362124718535148	0.36494074126905174	-0.07979777993137205	0.968951635519822	-0.23401932044488988
460														8.851374642678381	3.6104960204357077	-2.40977864916103	-0.391854645015312	0.18484427117952607	0.9012671815793774	0.916541578720126	0.16362064239079727	0.36493810415033734	-0.08000919732845396	0.969051536707792	-0.233532968865477
461														8.909504988756359	3.592386940413233	-2.3989555052444476	-0.39180799604546834	0.18432320344446174	0.9013941706638702	0.9165605694789729	0.1634084201408255	0.36498549382607076	-0.0800201019195525	0.9691865893103615	-0.2329681059495772
462														8.898573056852523	3.6230263270167256	-2.3822143255008	-0.39179277070763563	0.18365539598601055	0.9015370876156212	0.9165504671922313	0.16333482214796582	0.36504380143154797	-0.08021013596134302	0.9693257612377351	-0.2323228415157425
463														8.858250851411416	3.5890938597587834	-2.3823168812815636	-0.3917749181734591	0.18301157514229738	0.9016757603784828	0.9165503540927975	0.16316280853733128	0.36512100230276856	-0.08029857970442295	0.9694764882523691	-0.23166241996341802
464														8.869780545957003	3.581439313227622	-2.396555651329719	-0.39177990833427945	0.18230730667430045	0.9018162503297145	0.9165251125292562	0.1631575362084123	0.36518671454700385	-0.08056191115420414	0.9696100578642752	-0.23101106934434754
465														8.858788307658564	3.6124314640082424	-2.3794448456108226	-0.39180669083053055	0.18165468831941523	0.9019363010944874	0.9165042443930769	0.16301378225868238	0.3653032668936791	-0.08066899670818267	0.9697567122764841	-0.23035718344518855
466														8.865050438834933	3.5689120108203944	-2.3530116894423494	-0.3918441232362858	0.1809046667438135	0.9020707758460513	0.9164632837622562	0.16301960591208553	0.36540341761397266	-0.08095203889272623	0.9698959272203274	-0.22967075948089788
467														8.812664244069445	3.646020290991199	-2.4026832503532023	-0.39185876848519513	0.1802130083358915	0.902202847029311	0.9164521445160678	0.16280176840643612	0.3655284544541473	-0.08100723654814246	0.9700612639572128	-0.2289518984340777
468														8.808950121320395	3.610552055937421	-2.3554079371434598	-0.3918703770659494	0.17949587502669634	0.9023407551621457	0.916425998866689	0.16276762185716093	0.3656092037629191	-0.08124651487529833	0.9701999444049485	-0.22827849591508415
469														8.773040137813279	3.577003298435464	-2.2957952293331574	-0.3918291189441553	0.17881169762082605	0.9024944976792966	0.9164312258452225	0.16262750798978404	0.3656584498420022	-0.0813864229664279	0.9703497670628831	-0.22759081641783946
470														8.73277647305941	3.543088169009238	-2.2958825894409274	-0.39183303356483673	0.17811388537557832	0.9026307759232414	0.9164128348435154	0.16254491262269127	0.3657412576050905	-0.08157444416880233	0.9704919346480407	-0.22691631682550711
471														8.712089408243244	3.5372590608588714	-2.298438633337977	-0.39180838016616704	0.17756000169132846	0.9027505962506703	0.916413880686162	0.16242682076248072	0.36579109773574714	-0.08168104135779802	0.9706131946848701	-0.22635863974307957
472														8.732824174198564	3.565840545383905	-2.2956534287249837	-0.3918580922773879	0.17712828869078234	0.9028138262466974	0.9163738410484983	0.1624879988142654	0.3658642284828592	-0.08189150724433353	0.9706818323152087	-0.22598796749924782
473														8.775985802490634	3.5560773671039114	-2.3247805533338037	-0.39188783350828277	0.17668311289488658	0.9028881456559045	0.9163477936206895	0.16247331426697792	0.3659359824854596	-0.08204052093130099	0.9707654195370152	-0.2255744958022608
474														8.826358500151118	3.6049525838768335	-2.3447195284094797	-0.3919263782728687	0.17625259288336775	0.9029555567777419	0.9163139361592756	0.16251433660487255	0.3660025420651787	-0.08223432625252641	0.9708368111581718	-0.22519636250620267
475														8.822015830086055	3.568904964076999	-2.299989912139108	-0.3918460167262383	0.17579349560999252	0.9030799223086512	0.916339236388761	0.16241404755856395	0.3659837168647075	-0.08233530852703685	0.9709368280464303	-0.22472777512558084
476														8.72900327811738	3.5525144987135597	-2.2488413997188457	-0.3917660026355991	0.17532237229070347	0.903206213969592	0.9163630136643747	0.16232503160217998	0.3659636748412291	-0.08245135758051142	0.9710368941959475	-0.22425236619357986
477														8.708104746983956	3.545848567694773	-2.2535756470566244	-0.3916780497574206	0.1750677402415015	0.903293746056596	0.916403967722677	0.16215919513233398	0.3659346435856664	-0.08241403569998657	0.9711105404436552	-0.22394696907722045
