// Start Time: 1748342924.2155054
// Update Rate: 100Hz 
// Filter Profile: 46.1 human
// Option Flags: AHS Disabled ICC Disabled 
// Firmware Version: 4.0.2 
PacketCounter	SampleTimeFine	Year	Month	Day	Second	UTC_Nano	UTC_Year	UTC_Month	UTC_Day	UTC_Hour	UTC_Minute	UTC_Second	UTC_Valid	Acc_X	Acc_Y	Acc_Z	Mat[1][1]	Mat[2][1]	Mat[3][1]	Mat[1][2]	Mat[2][2]	Mat[3][2]	Mat[1][3]	Mat[2][3]	Mat[3][3]
0														9.629925420011146	-0.7177166619463127	1.0867649001455724	0.09105425113033719	-0.10094251010674732	0.9907167773912191	0.9876659808572235	0.13640383710816792	-0.0768758966094491	-0.12737752395313628	0.9854971348895527	0.11211763249395959
1														9.643855449250568	-0.7380693140588644	1.1111309037201367	0.09110142371288638	-0.10095879398421642	0.9907107814668907	0.9876660777691644	0.1363760183943532	-0.07692399125745963	-0.1273430383710072	0.9854993168562601	0.11213762550671647
2														9.671968291332691	-0.7566235402428231	1.103711700982693	0.09111167911564663	-0.10102980977985049	0.9907025988986682	0.9876875523450177	0.1362090604219823	-0.07694407580619411	-0.1271690248112174	0.985515128952777	0.11219612174115454
3														9.674238223728073	-0.7296501157979186	1.1255251892708302	0.09117507895633717	-0.10110992162859733	0.9906885932146212	0.9876837486475949	0.13620658850372733	-0.0769972590785647	-0.1271531267202699	0.9855072546645386	0.11228327288079817
4														9.647323397369094	-0.7884609080062716	1.0915670569185072	0.09118549270288295	-0.10111944106420695	0.9906866631581326	0.9876834568903115	0.13620331617768375	-0.07700678961888224	-0.1271479252907312	0.9855067302160168	0.11229376560254065
5														9.649617447811627	-0.7614689367446087	1.1131729615699244	0.09118549270288295	-0.10111944106420695	0.9906866631581326	0.9876834568903115	0.13620331617768375	-0.07700678961888224	-0.1271479252907312	0.9855067302160168	0.11229376560254065
6														9.663794742962077	-0.7595826129389827	1.0815151458412817	0.0911975002103291	-0.10099900509014925	0.9906978434044296	0.98763853867627	0.13653441584670872	-0.07699655973353747	-0.1274877754013664	0.9854732641021767	0.11220210721288953
7														9.64367789313879	-0.7597446117108159	1.1669340662080596	0.0912138463602502	-0.10099567014222938	0.9906966785271316	0.9876315277434624	0.13657852221722563	-0.07700826368691416	-0.12753038712120007	0.9854674940765328	0.11220436033967682
8														9.657850713339892	-0.7576263743414986	1.1354644874872248	0.09121260432850326	-0.10091478009063282	0.9907050358057494	0.9875771581615044	0.13699240841793334	-0.07697036256573808	-0.12795162167498675	0.9854183310630635	0.11215656608343402
9														9.635642078838565	-0.7620409751970654	1.1439937505917048	0.09116716026969424	-0.10090034647045476	0.990710688834284	0.9875766630988358	0.1370222786945594	-0.07692353114566702	-0.12798782516680163	0.9854156560677794	0.11213875951507374
10														9.629945204312516	-0.7377633353924546	1.141966448693255	0.09115059806750075	-0.10077338777099076	0.990725134832611	0.9875596422790748	0.13715329122251255	-0.07690856680799218	-0.1281308761133072	0.9854104216132439	0.1120213353002282
11														9.666536181909112	-0.7306252848118809	1.1004974805668328	0.09114532249965646	-0.1006281520151806	0.9907403823446606	0.9875567737887816	0.13716722399180717	-0.07692055126086439	-0.1281567350174289	0.9854233241020793	0.11187816402355469
12														9.717038602523848	-0.7440384525264945	1.0834297816377587	0.09115259623272359	-0.10056663536675586	0.9907459593917325	0.9875451310624896	0.1372476002332547	-0.07692665562068324	-0.12824125044151963	0.9854184126964661	0.1118245661917486
13														9.700765229914245	-0.7503614961363031	1.037996495629394	0.09119002326855563	-0.10066184635111802	0.9907328461020477	0.9875466291216293	0.13722114371406477	-0.07695461667964332	-0.12820310045699806	0.9854123758137947	0.11192146633342945
14														9.694456965641288	-0.7710359272086713	1.1490539352510527	0.09121701857614342	-0.10093928759997145	0.9907021327023022	0.9875996040224324	0.1368186814290192	-0.07699136670276413	-0.12777510577892098	0.9854399568877015	0.11216779266951249
15														9.680352058656466	-0.7504603580705445	1.126265722592549	0.0912603070226147	-0.1010242002985256	0.9906894908679416	0.9875941693935011	0.1368412441160628	-0.07702097434289407	-0.12778620012387382	0.9854281226263089	0.11225908513385363
16														9.686174524764118	-0.7738481471842137	1.1278542218845322	0.09124843345857242	-0.10095936355841634	0.9906971940513589	0.9875534928535454	0.13715658986063078	-0.07698161215878219	-0.12810863415132845	0.9853909258602304	0.11221809608168748
17														9.664151094177772	-0.7562649234734162	1.0806556326784542	0.09126003243812711	-0.10091027376606088	0.990701127044807	0.9875455890296944	0.1372066257506386	-0.07699384026088318	-0.12816128927014664	0.9853889884195901	0.11217497686218156
18														9.658198275532893	-0.7545591939137694	1.1345502263024068	0.09125668589344199	-0.10084046460138807	0.9907085434065478	0.9875152461328196	0.13743627751088985	-0.07697342579870231	-0.12839725828452997	0.9853641308282577	0.11212347542816267
19														9.627801923073228	-0.7625073140564282	1.1206191505744496	0.09127084629004223	-0.10091017400306806	0.9907001410114826	0.9875145725864545	0.13743841918906924	-0.07697824277159909	-0.1283923733984736	0.9853566956759778	0.11219438818241634
20														9.621947151844898	-0.7385754329202622	1.1196491017785692	0.09129649251905103	-0.10089431355516232	0.9906993933307678	0.987480733445262	0.13768136047494065	-0.07697820504647307	-0.12863417713860603	0.9853244036711979	0.11220101604652108
21														9.591546345789062	-0.7464899163567489	1.1057880928459	0.09129898368619369	-0.100956648252641	0.9906928135156023	0.9874730869449289	0.13774327930838606	-0.07696552192264128	-0.12869109579656546	0.9853093647068234	0.11226779450810784
22														9.630065921902526	-0.7345786732759145	1.1430009328688624	0.09129554718700772	-0.10097455450393189	0.9906913053048144	0.98747516856716	0.1377307759600347	-0.07696119032801779	-0.12867756030902788	0.9853092776870513	0.11228407178552663
23														9.630125430232361	-0.7342098054465642	1.1427365425401559	0.09129204699004945	-0.10092644468319845	0.9906965301846855	0.9874689194230081	0.1377769617828106	-0.07695870305205721	-0.12872798969114435	0.9853077496729167	0.11223966814174655
24														9.62209444355233	-0.7372379118713823	1.119264760591078	0.0913053192054866	-0.10085929106464686	0.9907021460008663	0.9874751285961234	0.1377163124036159	-0.07698758147922208	-0.1286709333488119	0.9853231047244793	0.11217027327799065
25														9.672557809502136	-0.7507468217695666	1.1025579245234516	0.0913160286126159	-0.10081656060551147	0.9907055082243641	0.9874775094802904	0.13768838297965705	-0.07700699619547868	-0.12864505893746214	0.9853313809577582	0.11212724250089443
26														9.658505946186972	-0.7520714167215569	1.1335824826019745	0.09126719289982924	-0.10079113826601555	0.990712595028057	0.9874720814929165	0.1377570253708954	-0.07695381883317826	-0.1287213570944329	0.9853243874014304	0.11210113210741485
27														9.658621263139361	-0.7515415397292916	1.1329511928476617	0.0912714605015387	-0.10069827813404797	0.9907216447008482	0.9874616137388796	0.13782737883004614	-0.07696216627048896	-0.12879860981440566	0.9853240433612065	0.11201539038989072
28														9.681031045831668	-0.7461687401820544	1.1232770670934824	0.09125459198100708	-0.10071520653545002	0.9907214778205333	0.9875117188458273	0.1374548600406385	-0.07698549599351773	-0.12842587194385474	0.985374349485377	0.1120008338885497
29														9.673020568039309	-0.7490348503968219	1.099658692263288	0.09125364208961856	-0.10066521251210891	0.990726646353711	0.9875071819122644	0.13748634717750063	-0.07698746658700606	-0.12846142797383736	0.9853750653074591	0.11195375024197651
30														9.678959586971384	-0.7722656400200064	1.1004400469057676	0.09123493533864058	-0.1006307853640992	0.9907318666575531	0.9874945142176615	0.13759194239341985	-0.07696130052455863	-0.12857204581004256	0.9853638426618927	0.11192554047584444
31														9.659092281245474	-0.749958776549923	1.129980496322829	0.09123082438306848	-0.10055035153272202	0.9907404117573038	0.9874894117766264	0.13762723946042307	-0.0769636575765198	-0.12861414506747743	0.9853671243577946	0.11184825400252105
32														9.667374791342144	-0.7462646395094781	1.1518487240893525	0.09119012790768743	-0.10052018580815503	0.9907472194345404	0.9875228004878076	0.13739310122040638	-0.07695358506110278	-0.12838644433466034	0.985402875976183	0.11179486986874676
33														9.653539073835852	-0.7254835393428367	1.1266832194069343	0.09120634923070553	-0.10039596861380662	0.990758321361018	0.9875101435333177	0.13747089632006154	-0.07697706855788605	-0.12847224711513833	0.9854046895316941	0.11168025595481218
34														9.637399844049435	-0.7318463420360215	1.0798942883983391	0.09121798627368824	-0.1002982417073438	0.9907671480678941	0.9875075811815651	0.1374760195042303	-0.07700078681550743	-0.128483680244255	0.985413926617484	0.11158555972528125
35														9.673819631955917	-0.7468924980044911	1.0940725740604316	0.09118317759838712	-0.10018755775395821	0.9907815507943003	0.987507046612083	0.1374922610033628	-0.07697864025601547	-0.12851249361265576	0.9854229200883653	0.1114729005183622
36														9.659892052750992	-0.748274024196796	1.1242461412228075	0.09117963529512954	-0.10007533174700706	0.9907932186299894	0.9875041272255518	0.13750803495991268	-0.07698791485658624	-0.12853743742563373	0.985432122622959	0.11136273561143048
37														9.674184895065327	-0.7461602798285337	1.0913390778002887	0.09115925617743711	-0.09993119303366504	0.9908096419959009	0.9875029900604566	0.13751769130687894	-0.07698525312866322	-0.12856062630072546	0.9854454024635231	0.11121836237182639
38														9.688474328325146	-0.7439526879060501	1.0584351030398818	0.09115231185367204	-0.09982939946950276	0.990820542300819	0.9874855836230447	0.13764726769023647	-0.07697695651340536	-0.12869917707734285	0.9854376290252826	0.11112695946818638
39														9.680374736389416	-0.769026166551682	1.0902132446120967	0.09115136410617616	-0.09977948689167543	0.9908256571250146	0.987481053567264	0.13767863510166303	-0.07697897298762263	-0.1287346016705272	0.9854383021946005	0.11107994823798575
40														9.660515229213026	-0.7467387400956924	1.1199037946879118	0.09112512122330316	-0.0997612746478731	0.9908299048588864	0.98749244860619	0.13760557933905093	-0.07696342300414649	-0.1286657539044067	0.9854503501523533	0.11105283047637671
41														9.666489015178273	-0.7699405907528051	1.1205049079996585	0.09110850658265274	-0.09968001093078233	0.9908396113645832	0.9874907542921918	0.13762212588014114	-0.07695557585821244	-0.1286905210795155	0.985456262798644	0.11097163554356163
42														9.677175280693481	-0.7172003679238902	1.1081442964655055	0.09109180066150888	-0.09951909048747365	0.9908573229687462	0.9874736606827004	0.13775038073163434	-0.07694544863861125	-0.12883343242400758	0.9854546073954071	0.11082041081413144
43														9.689068635217255	-0.7420197700532963	1.054343762169562	0.09109652859494594	-0.09949761732864265	0.9908590447807764	0.9874713600859637	0.13776350128684295	-0.07695148291726844	-0.12884772209056256	0.9854549415671487	0.11080082424314425
44														9.65279008719069	-0.7486481456871659	1.094200790213008	0.09110495394548687	-0.09939235773889599	0.9908688342004172	0.9874359378609001	0.13802096283669466	-0.07694467128005694	-0.12911295824724556	0.985429537329146	0.11071797944286174
45														9.661010112745704	-0.7451243280728458	1.116705452737801	0.0911020292656394	-0.09937673587475737	0.9908706699819918	0.9874285906122354	0.13807754633053826	-0.07693743978631035	-0.12917119920948578	0.9854231860303555	0.11070657491118846
46														9.655182308749138	-0.7211810972411211	1.1153072993735305	0.09112320938888002	-0.09934803047258078	0.9908716009412574	0.9874048480228191	0.1382437883783405	-0.07694362271065036	-0.12933764653690216	0.9854027723809309	0.1106939446052565
47														9.630653799164108	-0.753027191029588	1.1023756059333123	0.09115290587993932	-0.09932827553141566	0.9908708500251674	0.9873957244121624	0.1382941833834146	-0.07697013872207392	-0.12938636389598301	0.9853976925699944	0.11068223125464449
48														9.652928550579107	-0.7476827091152132	1.0936392739802043	0.09113625846453483	-0.09932840531020848	0.9908723683157268	0.9873815319651632	0.13841207321781393	-0.07694029062639884	-0.12950634242080078	0.9853811272223952	0.11068939148224113
49														9.667012773622593	-0.7677703337525571	1.117471403392435	0.09115279248196403	-0.0992752941685412	0.9908761700588474	0.987376909695134	0.13843334622364403	-0.07696133350074086	-0.1295299448916255	0.985383491144983	0.11064071924611726
50														9.669409808920792	-0.7405758136001575	1.1383598302895244	0.09113523728497608	-0.09921730018171848	0.9908835935011049	0.9873736256877643	0.13846419167061796	-0.07694797541977255	-0.1295673254382086	0.9853849983481857	0.11058351237474873
51														9.66723795939275	-0.7449029438690329	1.0607541877459048	0.0911283405180505	-0.09917757672428162	0.990888204506203	0.9873760748263091	0.138446553056154	-0.07694828657911595	-0.1295535117818828	0.9853914756186852	0.11054197104725777
52														9.639172015708715	-0.7482095436415054	1.1231970954360466	0.09114292681919312	-0.09911766223892071	0.9908928579433411	0.9873490228357298	0.13863889289780576	-0.0769491031877596	-0.12974927358625526	0.985370461505906	0.11049968142703895
53														9.653341160103695	-0.7460623594905412	1.0911009764401616	0.09112520871554963	-0.09905342144044332	0.9909009113112625	0.9873458448392087	0.13866848326229173	-0.0769365610648523	-0.12978589682742003	0.9853727576154512	0.11043617855587376
54														9.673407809815501	-0.7676032626122473	1.0599660843886252	0.09113056743255121	-0.09898152929186527	0.9909076024223777	0.9873526922138693	0.13860774163876619	-0.0769581388537019	-0.12973003066925498	0.9853885278492158	0.11036108157185434
55														9.6840225104253	-0.7371838213774444	1.1032448788801694	0.0911263067317147	-0.09890102379535376	0.990916032625201	0.9873475216478906	0.13864326988190961	-0.07696047824838481	-0.1297723688510216	0.9853916131207343	0.11028372987032836
56														9.684113756330799	-0.7369045413716097	1.1026303203268781	0.09111627616517773	-0.09883923831085062	0.9909231197161168	0.9873447385340374	0.13866551652914522	-0.07695610316835438	-0.12980058361557595	0.9853946820923258	0.11022308740558684
57														9.65378783113238	-0.7447851278977502	1.088017268991157	0.09108349138796101	-0.09877605186405436	0.9909324342127108	0.9873432781596903	0.1386910183960274	-0.0769288794221577	-0.12983469747896864	0.9853974289566734	0.11015833303078906
58														9.684312321688575	-0.7360582817996304	1.1014509722076633	0.09109039693938373	-0.09876846968845737	0.9909325552129304	0.987353481487927	0.13860889457509099	-0.07694593516452103	-0.12975223381158751	0.985409744086222	0.11014533163430726
59														9.648076108080076	-0.7204912303335321	1.085737505566462	0.0911075481937367	-0.09874776378142958	0.9909330420418391	0.9873477248267104	0.13864088623679233	-0.0769621656594704	-0.12978399339535251	0.9854073187325352	0.1101296111257608
60														9.665775946269733	-0.7912715708400826	1.08901164792439	0.09110224748540835	-0.09867967936495231	0.990940311715866	0.9873529170576802	0.138599295915765	-0.07697046413621195	-0.1297482087768348	0.9854199896755111	0.1100583766331236
61														9.66819261223564	-0.74193356417693	1.0541137760077814	0.09110559655013492	-0.09859321456829673	0.9909486103317029	0.9873528074489099	0.13859143574783447	-0.07698602184883468	-0.12974669128729038	0.9854297498951627	0.10997274262996667
62														9.674133000200715	-0.7653356848572699	1.0549755502285765	0.0911053767473397	-0.09858980935688455	0.9909489693312665	0.9873394422606542	0.13869276930005114	-0.07697494072946098	-0.12984851205980968	0.985415833663564	0.10997726438222366
63														9.670585495867982	-0.7365437802566355	1.1309646771457196	0.09109625942559366	-0.09863407472588431	0.9909454025432654	0.9873365544410093	0.13872349379681856	-0.07695661461733178	-0.1298768639258796	0.9854070791159222	0.11002221886967142
64														9.690545348991138	-0.7580229304283825	1.1007293456018403	0.09110149310606941	-0.098719171456229	0.9909364475791782	0.9873926921377931	0.13830036489262623	-0.07699792583861303	-0.12944570084296703	0.9854580327226334	0.1100739582086108
65														9.668345212444507	-0.7406789997078227	1.0535962483161885	0.09112119820047129	-0.09869655012200546	0.9909368891269132	0.9873886577527773	0.13831766117832156	-0.07701858962177427	-0.12946260378842483	0.9854578710427822	0.11005552516865219
66														9.676558638283142	-0.7371896172995033	1.0762870050784585	0.09112312626845767	-0.0986525990504526	0.9909410883395913	0.9873509818460608	0.13859957096285386	-0.07699478928169579	-0.12974827361734964	0.9854226624294287	0.11003436673973233
67														9.637974458946527	-0.7706366934836705	1.0951409915542376	0.091130001467634	-0.0986786234443694	0.9909378649076002	0.9873477983242617	0.13862171277570876	-0.07699575242415613	-0.1297676692275162	0.9854169422240787	0.11006271848816332
68														9.654363867794236	-0.7416100525224111	1.0850708394801953	0.09112622767673137	-0.09868831443746967	0.9909372468642501	0.9873692192012602	0.13846192792968287	-0.0770085676265247	-0.12960723592185058	0.9854384359803947	0.11005931713949224
69														9.65211392099978	-0.7681716191188049	1.0633189593725128	0.0911174102529172	-0.09868300329612634	0.99093858659821	0.987368889243988	0.1384692333626158	-0.07699966211005399	-0.1296159484858811	0.9854379413603	0.11005348529546549
70														9.676691687298588	-0.7357653285183579	1.0760653814558845	0.09110733034624532	-0.09877366119772252	0.9909304810181074	0.9874060226698131	0.1381996184856832	-0.07700786872646126	-0.12933986528739078	0.9854667063396962	0.11012070624287909
71														9.632233683723543	-0.7453923612890223	1.0937271353061648	0.0910956562837299	-0.09882000799934709	0.9909269334442601	0.987401526600364	0.1382443804732792	-0.07698517087614698	-0.12938240480647617	0.9854557814973576	0.1101684893239665
72														9.676715001578481	-0.7347193678043129	1.0765702832929671	0.0910780493042912	-0.09894405720228722	0.9909161732857508	0.9874479698047274	0.13791023614711556	-0.07698878940708992	-0.12903990027680395	0.9854901523151804	0.11026270369601482
73														9.646307511297158	-0.7425649601425162	1.062729891673154	0.09107984111109022	-0.098974191764587	0.9909129991617458	0.9874415185955963	0.13796077346536817	-0.07698098686338567	-0.12908799284519823	0.9854800527404828	0.11029667154458433
74														9.66856795488357	-0.7592342882336165	1.1098227733960273	0.0910663776029835	-0.0990822979369757	0.9909034327853545	0.9874684224920549	0.13777161529802823	-0.07697464906854207	-0.12889154142659603	0.9854956520724487	0.11038700238241633
75														9.64045455738148	-0.7401591090457659	1.1175091929706247	0.09106076596717771	-0.09910758239544754	0.9909014199269273	0.9874687173289718	0.13777465781042464	-0.07696542055946942	-0.12889324729459845	0.9854926842838307	0.11041150313669101
76														9.662735341899047	-0.7345987319052972	1.108723662012704	0.0910235397055473	-0.09906273074658906	0.9909093251133034	0.9874682684043479	0.13779670680736755	-0.07693170014736683	-0.12892297744774828	0.9854941110783333	0.1103640472071144
77														9.648753502614758	-0.7136603335980155	1.0842282767552103	0.0909974931357121	-0.09901094960083928	0.9909168926313427	0.987470551737702	0.1377906890354967	-0.07691316835211681	-0.12892387557723378	0.985500156202049	0.11030900431008725
78														9.662898958217014	-0.7336346514975355	1.1079357573010917	0.09099323541949284	-0.09902302321681128	0.9909160771633974	0.9874764192470351	0.1377492938169717	-0.07691198530775145	-0.12888193255436137	0.9855047300373189	0.11031715431030942
79														9.668774308701026	-0.7570239797814516	1.1095348833933545	0.09101406657962782	-0.09910413553170738	0.9909060550855224	0.9874794748827628	0.13771985522631622	-0.07692547147535678	-0.12884380609832397	0.9855006909165288	0.11039774378646514
80														9.632413238567004	-0.7415100913958103	1.0947842383451138	0.09103935181729111	-0.0992237428093452	0.9908917626479657	0.9875051098444803	0.1375178708713491	-0.07695773659647287	-0.12862929080006869	0.9855168613747387	0.11050349086954442
81														9.660524746707448	-0.7598488117195566	1.0876530374578646	0.09104622413420108	-0.09924997205525016	0.990888504382777	0.9875020504353305	0.13753925737738473	-0.07695877510781463	-0.12864791275773768	0.98551123571835	0.11053198096464176
82														9.652351392105476	-0.762681931143166	1.0651135513383874	0.09103819858666501	-0.09929113361123726	0.9908851180557167	0.9874927866825747	0.13761817012653899	-0.07693656803437088	-0.12872467769615648	0.9854960730704204	0.11057778852374578
83														9.646498010088166	-0.7606491119550242	1.1196014076177363	0.09101242856628947	-0.09932144525173803	0.9908844475313816	0.9874914765830703	0.1376458654835778	-0.07690383209609086	-0.1287529476254931	0.9854891507410837	0.11060656512777259
84														9.654698745594912	-0.7346758912287812	1.0868069535704674	0.09100135185167904	-0.09931892187525299	0.9908857177892437	0.9875038999243417	0.13755712941551101	-0.0769030804401249	-0.12866546387971745	0.9855017949778184	0.11059570742174124
85														9.662921963269943	-0.753288785427428	1.165158065479295	0.09100396365180449	-0.09937068558172252	0.9908802881512375	0.9875081151363501	0.13752730370287183	-0.07690229694925532	-0.12863126035110767	0.9855007395143022	0.11064488816592047
86														9.626649312939392	-0.7376348580514779	1.1497168744914101	0.09100806261045746	-0.09929127814811795	0.9908878718722947	0.9874781845530958	0.13774781327061028	-0.07689196948243743	-0.1288579356175399	0.9854779459850327	0.11058413270224524
87														9.693484532982858	-0.7221911394572613	1.122551930411954	0.09101183173687755	-0.09915535487921812	0.9909011363817659	0.9874806556127711	0.13771612682626289	-0.07691698903717592	-0.12883633522601706	0.9854960598656646	0.1104477918058136
88														9.752105700654502	-0.7098885974793296	1.0728917268870428	0.09097781520408627	-0.09922856611892894	0.9908969314750515	0.9875265783459082	0.13739030469620528	-0.07691008539786681	-0.12850795384377744	0.985534167769675	0.11049031612508109
89														9.71932628805517	-0.7448213203126851	1.0383268430355956	0.09102787728640108	-0.09944567405111931	0.9908705684746373	0.98753044716742	0.13734766942614487	-0.07693655581400866	-0.128442755630855	0.98551822693227	0.11070809776266374
90														9.702790589621296	-0.7955694308541499	1.1060549460755424	0.09105901453819351	-0.0997213229207346	0.9908400040502362	0.9875385253090234	0.13728851432962094	-0.07693844853937032	-0.12835854822259762	0.9854986157210495	0.11098000500127506
91														9.690790744794059	-0.7479602133152176	1.1054426372818549	0.09109098421426232	-0.0998702761711523	0.9908220630024218	0.9875343491433028	0.1373130833124582	-0.07694820604367236	-0.1283679938964169	0.985480108925961	0.11113331208186758
92														9.668462624787047	-0.7526351161058765	1.1152221703021132	0.0910764684473723	-0.09995680037112326	0.9908146723553919	0.9875339723981846	0.13733134609920106	-0.07692044421376831	-0.12838119120267105	0.9854687917119189	0.11121839014854673
93														9.648467411437846	-0.7302389249003212	1.1459921684380874	0.09106476533056954	-0.1000032913031802	0.990811056783189	0.987529600810407	0.13737547795169394	-0.07689776057065756	-0.12842311333450385	0.9854579239044532	0.11126627600220215
94														9.623964001240045	-0.7617184931905641	1.1335699443562957	0.09105183846457923	-0.10005769328112624	0.9908067524636079	0.9875333795586653	0.1373583994211836	-0.07687973963205524	-0.12840322024646494	0.9854547823841089	0.11131704679260568
95														9.615775549971964	-0.7644510743108849	1.1113515646546395	0.09103742519327926	-0.10014491865149544	0.9907992644741239	0.9875365522237084	0.13734939821441833	-0.07685506380356094	-0.1283890386142461	0.9854471767063031	0.11140070325310847
96														9.623891958578799	-0.7387403819119674	1.0792038805511104	0.09109491190484581	-0.1001655296301211	0.9907918972715544	0.9875055319677475	0.13755469920249214	-0.07688646864311349	-0.12858670754842794	0.985416445672199	0.11144454782817242
97														9.617920512898571	-0.7148842451778601	1.078638325669733	0.09109205897272127	-0.10027086927833545	0.9907815044530641	0.9875039225595279	0.1375769018279166	-0.07686741190503171	-0.12860108756016125	0.9854026328651648	0.11155003998540286
98														9.640085824779629	-0.7314946084402545	1.1263602350136532	0.09109064143927606	-0.10037741741451095	0.9907708459151265	0.9874975557622212	0.13763478487957473	-0.07684558123141089	-0.12865097125875663	0.9853837019477985	0.11165969518959093
99														9.640042315591877	-0.7311584769659099	1.1269506658063702	0.09111665769501148	-0.10041581043962089	0.9907645632057318	0.9874947315608624	0.13764393702340258	-0.07686547820861	-0.12865422585376213	0.9853785118493563	0.11170173926809493
100														9.65409592333959	-0.7514509542381	1.1511800478051109	0.09114405312301646	-0.10043328566780735	0.9907602720690195	0.9874930156289934	0.1376421541285788	-0.07689071134279574	-0.12864799129510474	0.9853769799101324	0.11172243194149281
101														9.645929761663345	-0.7544870890629358	1.1286303619052314	0.0911440804344493	-0.10048700634338703	0.9907548224247529	0.9874955624993468	0.1376267977469228	-0.07688549008770795	-0.12862842083248194	0.9853736479620675	0.11177434077671963
102														9.668180701167525	-0.7490288492523777	1.1200836036080248	0.09114788923888906	-0.1004754655876181	0.9907556424781276	0.9874785186306156	0.13775413975396084	-0.07687634371984514	-0.12875650480803197	0.9853570306216921	0.11177336298967494
103														9.696406440763612	-0.7449452243006438	1.0568991135959482	0.09112750494214525	-0.10045215719597056	0.9907598810800206	0.9874830330551906	0.13772988452262738	-0.07686181325929281	-0.12873630906291333	0.9853627976659465	0.11174578159733053
104														9.660107505928469	-0.7515599645651182	1.0970771751271036	0.09114636505330218	-0.1005259274025253	0.9907506639197539	0.9874982912009699	0.13760755446783787	-0.07688488686696704	-0.1286058513938439	0.9853723655924415	0.11181160992500419
105														9.637833647700331	-0.7562694681074432	1.106338786607078	0.09112941970724894	-0.10061511025986108	0.9907431697726798	0.9874997754406387	0.13761317547215055	-0.0768557573715849	-0.1286064631677153	0.9853624782403012	0.1118980076123968
106														9.66009345923897	-0.750742327661692	1.0977604742802045	0.09114258541494108	-0.10057147862162308	0.9907463887452429	0.9874833313293195	0.13772790307042593	-0.07686153174750138	-0.1287233446995103	0.9853509031830656	0.11186553591561282
107														9.65794839314119	-0.7772440805274032	1.0757074141547498	0.09110810450296336	-0.10053202566669861	0.9907535642677381	0.9874909458356893	0.13768702345965161	-0.07683694074699177	-0.12868933594673831	0.9853606422960941	0.11181886883444991
108														9.66843263764007	-0.7243142087259249	1.0641188146268243	0.0910935524437543	-0.10060213930048167	0.9907477853981526	0.9875282829250418	0.13741491445415152	-0.07684420413197979	-0.12841283084760707	0.9853914708651202	0.11186507059837372
109														9.690710016974085	-0.7410498307255404	1.1107913968414238	0.09109725283244965	-0.10059798210197002	0.9907478672817785	0.9875246776477393	0.1374400525999631	-0.07684557878009657	-0.12843792883377325	0.9853883893868098	0.111863401068265
110														9.668521244057203	-0.7457291741973253	1.119345581878458	0.09107435890008203	-0.10060251739679016	0.9907495115539386	0.9875317207263541	0.1373999849329817	-0.0768267186573976	-0.12840000665960094	0.9853935141017751	0.1118617926549074
111														9.688554397294864	-0.7671581205969079	1.089122221769894	0.0910862810356364	-0.10062481062308015	0.9907461515919037	0.9875320115064509	0.13739238642625093	-0.076836569432294	-0.128389312861784	0.9853922973309513	0.1118847831642443
112														9.652240570471626	-0.75166582376224	1.0739126760471438	0.0911043196214541	-0.10066123599674698	0.9907407927979546	0.987534583175282	0.13736473185532977	-0.07685296009351761	-0.12835672938780568	0.985392432490691	0.11192097216761948
113														9.674490367402136	-0.7685117341483458	1.120785150590022	0.09110293906182032	-0.10066106779864897	0.9907409368366361	0.9875276578430674	0.13741869495535072	-0.07684547658616686	-0.12841097885027242	0.9853849256541352	0.11192483551165414
114														9.674545930505904	-0.7680402162221467	1.1206287456381785	0.0910738168772452	-0.10069400773143566	0.9907402670157257	0.987557520442539	0.13720925064773806	-0.07683596393662478	-0.12820180847708085	0.9854107460057799	0.11193729476603456
115														9.660543443881508	-0.7471520467241008	1.0962490323735958	0.09105931585433955	-0.10066049671907179	0.9907450052341468	0.9875550931989263	0.137233949128148	-0.07682305060040723	-0.1282308032143583	0.9854107304098949	0.11190421573845158
116														9.702829989132724	-0.7633554066454359	1.057279361225217	0.0910384145283474	-0.10080056622168398	0.9907326849001971	0.9876135553534244	0.13680725018348702	-0.07683255546577739	-0.12779464919288974	0.985455743372893	0.11200672074052317
117														9.662794355513073	-0.7191093784083484	1.1183223053828728	0.091015373265625	-0.10091108070127475	0.9907235515627053	0.9876104300068871	0.1368536876528937	-0.07679001704268856	-0.12783520786908098	0.9854379848410075	0.11211662526835095
118														9.69089796069917	-0.7369561277302391	1.1118747686399666	0.09099356153210622	-0.10100927707823926	0.9907155483305159	0.9876078688348965	0.13689406431553275	-0.07675097765220401	-0.12787051722385873	0.9854223161159417	0.11221403533246899
119														9.66860397921109	-0.7414887577430955	1.1214460049080976	0.09098907761192615	-0.10109953112722597	0.9907067540706416	0.9876060627129821	0.13691764964742006	-0.07673214520387117	-0.1278876563546792	0.9854097838061493	0.11230452052889986
120														9.6426017597193	-0.6953757594052771	1.1512404301253045	0.09096638046857297	-0.10110551564604353	0.9907082276484815	0.9875388314444075	0.13744855844307746	-0.07664822353672074	-0.12842185956394658	0.9853352568988225	0.11234882063586787
121														9.66256600106933	-0.7166504676750935	1.1218681467740739	0.0909845761439971	-0.1011886570263435	0.9906980683301557	0.9875402618906287	0.13743321216940763	-0.07665731105241541	-0.128397967463996	0.9853288628077448	0.11243217541749784
122														9.654380791779431	-0.7196300254219495	1.0996226844100105	0.09099599618458215	-0.10124135620569996	0.9906916354103357	0.9875360234605046	0.13746303193037432	-0.07665844519895965	-0.12842247095500275	0.9853192896955478	0.1124880718461829
123														9.666204992162227	-0.7667623658166367	1.1026505373446795	0.09104018487097096	-0.10130918609235062	0.9906806415550695	0.9875320924186209	0.13747220233323137	-0.07669263347252148	-0.12842138132709385	0.9853110384030799	0.11256156723804345
124														9.637978486024709	-0.7480784775740199	1.1106375165182838	0.09105143006251534	-0.1013713179196093	0.9906732523828492	0.9875273961567855	0.1375063616526857	-0.0766918662234789	-0.12844951896901002	0.98529988146162	0.11262710450130392
125														9.652077807924423	-0.7460140242313995	1.0793030373885006	0.09107111434198686	-0.10134890401800212	0.9906737362960921	0.987523485755985	0.1375229302128858	-0.07671250710289007	-0.12846562658103522	0.98529987481985	0.11260878947546898
126														9.676530881001854	-0.7360073184558689	1.1475351107760257	0.09108248757568008	-0.10140166338703471	0.9906672918388739	0.9875367532720831	0.1374184550815017	-0.07672893287311056	-0.12835552732102767	0.9853090230305191	0.11265428416525092
127														9.632095551110853	-0.7238240550784518	1.1093189605147329	0.09110628639147028	-0.10139249832783065	0.9906660415411424	0.9875348002415756	0.13741858545780097	-0.07675383171287564	-0.12835366333606052	0.9853099480131203	0.11264831758439767
128														9.629914823680055	-0.7504322093170374	1.0877953077740983	0.09109275948408088	-0.10146837673982573	0.9906595165299534	0.9875562110904461	0.1372680524477491	-0.0767477147144156	-0.1281984364423323	0.9853231197424466	0.11270985136515116
129														9.654359792196482	-0.7180332362663334	1.1008501978270413	0.09111955972922431	-0.10150060359675822	0.9906537504619091	0.9875431511324662	0.13735494037636947	-0.07676030879017676	-0.1282799691538457	0.9853076919539896	0.11275194761151858
130														9.634320322671444	-0.6960019232084248	1.131229356517136	0.09114036494280436	-0.10152585658813634	0.9906492488878886	0.9875305907946865	0.13744096173533965	-0.0767679248251667	-0.12836185618317458	0.9852930947090364	0.11278630854806776
131														9.662518388812463	-0.736560623745635	1.1791162030868378	0.09115104449737899	-0.10148335717763413	0.9906526209035101	0.9875331170106867	0.1374119208644849	-0.07678741310586035	-0.1283348350768191	0.9853015235045004	0.11274341615152683
132														9.660393571480313	-0.741127598495374	1.101645884273347	0.09117282633098014	-0.10138271240902647	0.9906609214879777	0.9874875582641383	0.13774049416188364	-0.07678462438255335	-0.1286694913814096	0.9852660056515845	0.1126723572799497
133														9.676709023123248	-0.734521030307202	1.1469851031193485	0.09120660201147748	-0.1013764633137692	0.9906584519578439	0.987480535303884	0.13777373271206922	-0.07681530427289401	-0.12869944889343526	0.9852620013278572	0.11267315826740076
134														9.658260299685	-0.7679065443014607	1.0796061557969383	0.09122832222806254	-0.10134735584820292	0.9906594302211185	0.9874785799564685	0.13777354917800594	-0.0768407657044905	-0.12869905730272319	0.9852650215091743	0.11264719277424118
135														9.644208268090454	-0.769782226825366	1.1106901077794247	0.09127810626773322	-0.10132285340553498	0.9906573507999306	0.9874712264311121	0.1377983695287922	-0.07689074278378194	-0.12872017824261928	0.985264070558227	0.11263137653523286
136														9.646468885318182	-0.7651050544821605	1.1871795118265538	0.09130140760148958	-0.10129047702569954	0.9906585144407194	0.9874773924050442	0.1377347979044237	-0.076925450503471	-0.1286563347018757	0.985276288515122	0.1125974370531814
137														9.654747356972946	-0.7172534841608045	1.0979557805451032	0.09130576216590477	-0.10118710209538273	0.9906686772906679	0.9874787839661179	0.13771352224709177	-0.07694567568808908	-0.1286425629879166	0.9852898843283828	0.11249415463952595
138														9.666752598129028	-0.7644086653560332	1.0994795689834507	0.09132666434518436	-0.10115837398268751	0.9906696844825532	0.9874900268150173	0.13761270299386938	-0.07698175703111759	-0.12854138368812962	0.9853069203795843	0.11246059457268234
139														9.69721605908729	-0.7558839147646865	1.112967725788433	0.0913463716791797	-0.10113605467349368	0.990670146328297	0.9874861187743165	0.13762918338003446	-0.07700242275527114	-0.1285574020003742	0.9853069097125143	0.11244237663660997
140														9.669084677942722	-0.7594907718831517	1.1756944145661927	0.09137091309441378	-0.10109332254751713	0.9906722446786307	0.9874673832441535	0.13775477116587512	-0.07701811507678774	-0.12868381121662908	0.985293744604796	0.11241313790399196
141														9.660956799921486	-0.7627133072262332	1.1527481067139302	0.09139725404034763	-0.10108218827264592	0.9906709510063856	0.9874670835320395	0.13774051668200493	-0.07704744645282818	-0.1286674041652014	0.9852968797667974	0.11240443864546024
142														9.666921165244714	-0.7639646476349353	1.0983054519615159	0.09139895793485045	-0.10103411186513894	0.9906756980606951	0.9874443959870927	0.1379093801882307	-0.0770361453460855	-0.12884019296053772	0.9852781896985847	0.11237034120340991
143														9.661011200236256	-0.7402280591071312	1.0968239298425675	0.09144619745634697	-0.10101161628795585	0.9906736326084737	0.9874353613317547	0.13794861535510744	-0.07708168857280717	-0.12887590993820935	0.9852750036900879	0.11235731814659505
144														9.677392134273886	-0.7335791702895849	1.1418128755243981	0.09144601307236988	-0.1008908073123303	0.9906859601776107	0.9873995834503477	0.13821255927846313	-0.07706718536301627	-0.1291498714488254	0.9852503912496375	0.11225852861670818
145														9.683411905483636	-0.7346710704624165	1.0869284575237927	0.09144064083287398	-0.10086649496578243	0.9906889317022733	0.9874024153058127	0.13819225134530588	-0.07706732067720784	-0.1291320233416992	0.9852557291695563	0.11223220877379747
146														9.65084716592029	-0.7921482015698189	1.1067865867353979	0.09150253474153183	-0.10089601831954603	0.9906802105740969	0.9873932617978369	0.13822763575421865	-0.07712112077782474	-0.12915816928132562	0.985247742550604	0.11227222767379103
147														9.638940137714735	-0.7447968574634174	1.1044804394401966	0.09150350547100825	-0.1009325590309949	0.9906763987367276	0.9873972210419522	0.13819969816881458	-0.0771204986023743	-0.12912721001070004	0.985247919030283	0.11230628513733895
148														9.655286599928894	-0.7379394879228618	1.1499339730445388	0.09150521559296937	-0.10088204435600506	0.9906813860398496	0.9873790389807435	0.13833340605117225	-0.07711356658685348	-0.12926495619752393	0.9852343284198104	0.11226704415106722
149														9.661279200559221	-0.7613176270924819	1.1509673136339735	0.09151552523425222	-0.10088908337074648	0.9906797169104196	0.9873790266022602	0.13832793132909818	-0.07712354530352716	-0.12925775205793982	0.9852343763139929	0.11227491822355187
150														9.65094599283919	-0.7911422687298646	1.1066443442830716	0.09150545385117462	-0.1009350730210345	0.9906759626385053	0.9873926383393077	0.1382336983934254	-0.07711823637646575	-0.12916086740507554	0.9852428917087979	0.11231168536022676
151														9.653215363477933	-0.7639245256272122	1.1278539969256498	0.09152193309955212	-0.10088222887892123	0.9906798229792217	0.9873881087970378	0.13825434691689106	-0.0771392128867886	-0.12918381619974867	0.9852454067160147	0.11226321827323796
152														9.631083933927336	-0.74644200729775	1.0801635752245475	0.09148579303319451	-0.10075793069516586	0.990695810567056	0.9873657413158943	0.13843656990205447	-0.07709869641873784	-0.12938022472079186	0.9852325388027854	0.11214990831657265
153														9.66975767218891	-0.7344452850828285	1.1161210851996077	0.09150733039411943	-0.10070105938029422	0.9906996038778997	0.9873645454844202	0.13842848339582917	-0.07712852458769365	-0.1293741195312466	0.9852394894767549	0.11209587669088286
154														9.661699976204577	-0.7598050869850494	1.1484319223316282	0.09151229837435393	-0.100771729524196	0.9906919590745378	0.9874089828512332	0.13809217057350073	-0.07716251039845778	-0.12903100337103535	0.9852794583035828	0.11214004286633036
155														9.653600364297843	-0.7626403965115512	1.1254251692962014	0.09147842206539741	-0.10076478593266397	0.9906957939813661	0.9874155340385524	0.13806174595174064	-0.07713311509408588	-0.1290048891933382	0.9852844321416538	0.11212638558124088
156														9.645531394348625	-0.7654064000106366	1.102192140121271	0.09145474996248279	-0.10065418968839979	0.9907092221269929	0.9873957721012473	0.13821803569964472	-0.07710618551007103	-0.1291728220094363	0.9852738242262926	0.11202621723781944
157														9.679706975793481	-0.7849725626860156	1.039877255895895	0.0914536220232405	-0.10060439950715461	0.990714383573104	0.9873912883373395	0.13824902560567645	-0.07710804520029291	-0.12920788959796398	0.9852745615912787	0.11197928177459662
158														9.659763168489992	-0.7626811511253363	1.0698200504095277	0.09142450807227556	-0.10067753845146393	0.9907096409014584	0.9874142044522747	0.13809715184809462	-0.07708674008755162	-0.12905327647767756	0.9852883892053119	0.11203589571015998
159														9.662014468134371	-0.7351304987640876	1.0914015361089398	0.0914037705891628	-0.10070396542142807	0.9907088684727132	0.9874162619466358	0.13809581667754628	-0.0770627734998845	-0.12905222340361538	0.9852858756546556	0.11205921144654724
160														9.639891189363414	-0.7620031248702102	1.1555760148755105	0.09138333747441182	-0.10061303583311693	0.9907199920524881	0.9873788770386067	0.1383859523374456	-0.077021304673697	-0.12935238231288193	0.9852544570901989	0.11198935652051867
161														9.63993824825053	-0.7391063077361837	1.099581247427577	0.09132038661850808	-0.10055224371811045	0.9907319684309679	0.9873809718558982	0.13840253239800585	-0.07696463761183647	-0.12938084635968566	0.9852583343007422	0.11192234489224553
162														9.656366151563995	-0.7098971642592207	1.0884598453138306	0.0913340846135274	-0.10042361137568007	0.9907437525748395	0.9873889476694784	0.1383236747508925	-0.07700407147397414	-0.1293102896445934	0.9852825276445711	0.11179083017115352
163														9.71291152462411	-0.7466621832144775	1.072084943913254	0.0912999463156883	-0.1002958404579144	0.9907598418333241	0.9873898258143237	0.1383272680554213	-0.07698635457458386	-0.12932769108397618	0.9852950376913325	0.11166036458709702
164														9.735231503313214	-0.7410673688324595	1.0627864402730378	0.09129450584364024	-0.10031767065533592	0.990758133025943	0.9873835569744043	0.13837993395864595	-0.07697210724784087	-0.1293793825125853	0.9852854199834113	0.11168534616848258
165														9.704791947599723	-0.7491080284450767	1.049433864167513	0.09131246669086227	-0.10045041922022563	0.9907430275834956	0.9873824618095317	0.13838796090429228	-0.07697172459871726	-0.12937506536338012	0.9852707676345792	0.1118195282899555
166														9.684781226678776	-0.7491552396751859	1.136114653547493	0.09132087896966268	-0.100550769537738	0.9907320726662565	0.9873726719750712	0.1384653161225585	-0.07695818908919372	-0.12944382449934166	0.9852496632714209	0.11192585636275018
167														9.684695965855328	-0.7263328155526362	1.0810762657900936	0.09130248545283978	-0.10058612984295223	0.9907301785215544	0.9873645906990256	0.13854042355926968	-0.07692669285601916	-0.12951842024932259	0.9852354954645287	0.111964267929036
168														9.670660752884999	-0.7276200382813396	1.1127619975399379	0.09129243213640462	-0.1005870183104271	0.9907310147472108	0.9873408494445173	0.13872688926765078	-0.07689536534993624	-0.1297063562544225	0.9852091665943528	0.11197838722566986
169														9.68696900663957	-0.720687807035548	1.1587364265353843	0.09131070928714094	-0.10067009342496303	0.9907208924108184	0.987342250253549	0.13871191979515168	-0.07690438330161481	-0.1296828255157078	0.9852027890726625	0.11206172035851436
170														9.626154052452293	-0.7372327099727817	1.1311609345660525	0.09131871356209104	-0.1008023170630375	0.9907067100954188	0.9873811900484548	0.13842128284977948	-0.07692810924960336	-0.12938036207965392	0.9852301463764416	0.1121707652607998
171														9.632024722374924	-0.7382066990766143	1.0774308745549375	0.09131271866113619	-0.10087732354917361	0.9906996280428637	0.9873790115158176	0.13844723853714663	-0.07690936067531912	-0.12940121726150844	0.9852188222598037	0.11224614575229802
172														9.63198270797644	-0.7377558872185553	1.0781150422318866	0.09131519779823508	-0.10091550393752935	0.9906955111012182	0.9873527510256153	0.13864852047531445	-0.07688389175995203	-0.12959969017408535	0.9851866060980737	0.11229991750549179
173														9.601561896834122	-0.7681088802567548	1.1206613886164658	0.09135472718197848	-0.10106936897428398	0.9906761814420726	0.9873417791123792	0.13872053255295455	-0.07689489623782908	-0.12965540883707133	0.9851606957767676	0.11246278698274895
174														9.642155947796189	-0.7292051929933697	1.1802743174834516	0.09138766742896748	-0.10120936098608485	0.9906588512150296	0.9873290993309587	0.1388082930620937	-0.07689933284175576	-0.12972873180684247	0.9851339619696287	0.11261231334899424
175														9.633932850817468	-0.7322596860647204	1.1582126180230443	0.0914178038931539	-0.10126097602997064	0.9906507961258659	0.9873282147371104	0.13880124990449755	-0.07692339961923733	-0.12971423019616823	0.9851296502280338	0.11266672413010215
176														9.653969640957307	-0.7537658867875865	1.1282328283715297	0.09140776155011737	-0.10126014425171126	0.9906518078086364	0.9873209814462393	0.1388620260434041	-0.07690654926048729	-0.12977634886384992	0.9851211706735592	0.11266933196892906
177														9.668060260864378	-0.7515198117996916	1.0968639068593218	0.09141457534163039	-0.10128640599504463	0.9906484943589813	0.9873178813383037	0.13888358060582062	-0.07690742634979891	-0.12979513320904063	0.9851154323218745	0.11269786331840487
178														9.668083936960713	-0.7510526839863678	1.0969751769993596	0.09140061615340889	-0.10133464601246006	0.990644849017198	0.9873199591002966	0.13887977925895972	-0.07688761457589538	-0.12978915874974312	0.9851110071613818	0.1127434159519835
179														9.698531146841114	-0.7419999124890245	1.1108495475070415	0.09137426375619218	-0.10129398700109787	0.9906514382568852	0.9873104183266423	0.13896452922188157	-0.07685699370786842	-0.12988025941875964	0.9851032371358659	0.11270639022590273
180														9.662251584407626	-0.7262170009888966	1.0952629486500707	0.09136169405922212	-0.1013208355623505	0.9906498519353725	0.9873106036000232	0.13897260222223173	-0.07684001464431306	-0.12988769332614225	0.9850993371800265	0.11273190768316455
181														9.662330345212146	-0.7479733582344743	1.1508928038395378	0.09136344936053828	-0.10135115070887735	0.9906465890371455	0.9873041364827533	0.13902296002140618	-0.07683201592390909	-0.1299356079178825	0.9850891131450359	0.11276602750002934
182														9.660143981212535	-0.752287067439893	1.073733843991668	0.09135721210179529	-0.10129200737596206	0.9906532133086414	0.9872901377795638	0.1391281225544719	-0.07682154227610294	-0.13004631344332224	0.9850803493909606	0.11271495731971556
183														9.662417637619104	-0.7248925987345732	1.094675249206513	0.0913317751026268	-0.10123412418320521	0.9906614754584252	0.9872819778495597	0.13920036032215338	-0.07679554609250122	-0.1301261044912435	0.9850760944145602	0.11266004235261018
184														9.662592314236138	-0.7467431589287102	1.149491428771655	0.09134658067266882	-0.10113880591299806	0.9906698461838359	0.9872576531647128	0.1393683054747189	-0.0768036567932136	-0.13030014760972425	0.9850621388357179	0.11258087832880737
185														9.640403049549363	-0.7293621042791312	1.1020101531271584	0.09132779226510346	-0.10109208967545918	0.9906763466264004	0.9872531340113524	0.1394098510493602	-0.07678634523897054	-0.13034754982256197	0.9850610553846115	0.11253547627219879
186														9.640570275189344	-0.7512526458938652	1.156949037894011	0.09133307409409058	-0.10103148229114733	0.9906820424145056	0.987253897029855	0.13939629223576414	-0.07680114914690639	-0.13033806955716065	0.9850691921367628	0.11247521650184852
187														9.662861053054867	-0.7458885571413403	1.1477859632697718	0.09133760444764844	-0.10101008029364605	0.990683807121544	0.987251618406255	0.13940919914939656	-0.07680701235404608	-0.13035215367609237	0.9850695604228137	0.1124556675335189
188														9.66292947114202	-0.7455848929459508	1.147407207956238	0.09133819629789999	-0.10098008720865381	0.9906868101899708	0.9872453706202481	0.13945373299552674	-0.07680647461315615	-0.13039904940579655	0.9850663319497551	0.1124295760603928
189														9.662929514247734	-0.7230502184490224	1.0913703952154046	0.09133697959093046	-0.10093028154051786	0.990691997760837	0.9872408225674193	0.13948493656835198	-0.07680827251623612	-0.1304343298967397	0.9850670183995985	0.11238262697460788
190														9.654987947016178	-0.7482266667016682	1.1231949449118408	0.09131289299163162	-0.10086217913931034	0.9907011539272421	0.987276224517361	0.13922614793034013	-0.07682275857599241	-0.13018299457396515	0.9851106032074517	0.11229197376485225
191														9.661106237662787	-0.7715149309631129	1.1235520390901543	0.09130914986975153	-0.10081441995636808	0.9907063600678682	0.9872700143263442	0.1392716247773105	-0.07682013631820916	-0.1302327069599779	0.9851090636374985	0.11224782749402082
192														9.651424797057285	-0.697020023576294	1.1417674207069832	0.09129694088952953	-0.10068276072704208	0.9907208740490914	0.9872524813150686	0.1394011244303985	-0.07681057638620625	-0.13037410295551194	0.9851042118476209	0.11212620157047967
193														9.67759246802266	-0.7420480925461491	1.1118013631599624	0.09126586696676925	-0.10058541566541829	0.9907336249881797	0.987253910590473	0.13940097966666662	-0.07679246637393816	-0.13038503576186494	0.9851141766431895	0.11202589622934775
194														9.655396401279432	-0.7245627049362254	1.0641274527929883	0.09123439862951063	-0.10055489865214612	0.9907396211234151	0.9872877218672098	0.13916136685023422	-0.07679237088819091	-0.13015083079629763	0.9851511692798375	0.11197292042990736
195														9.675599021515124	-0.768314359807671	1.0890979316265927	0.09125970407478887	-0.10056084073719224	0.9907366873808663	0.987286015781647	0.13915989229116532	-0.07681697351180933	-0.13014603126559304	0.9851507710435705	0.11198200238464645
196														9.677784753946103	-0.7412239413174855	1.1106767421874661	0.09128040016727712	-0.10055903850170184	0.9907349637117464	0.9872571266542598	0.13936611943416274	-0.07681439073661916	-0.13035050600468362	0.985121801875015	0.11199902256201608
197														9.667462402925448	-0.7712547011511911	1.0662714624208676	0.09129834443837304	-0.10052133715848177	0.9907371362166069	0.9872528556462673	0.13938495649571297	-0.07683510214074712	-0.13037028542234252	0.9851229845448533	0.11196559293076558
198														9.653465026302573	-0.7728713547620513	1.0975469004730445	0.09129594588198384	-0.10052526731827033	0.9907369584789418	0.9872443634294585	0.139450819999241	-0.07682470747293874	-0.13043625700807732	0.9851132622354295	0.11197429805805095
199														9.689861664508143	-0.7877988091065307	1.112848420361393	0.0913245254237923	-0.10052296295485019	0.990734558282337	0.9872338638194421	0.1395131848437887	-0.07684640123570352	-0.13049570561614282	0.9851046671158965	0.11198064851671616
200														9.633474375557473	-0.7505350008525765	1.1277994387338064	0.09130766814594093	-0.1005000602997198	0.9907384355204474	0.9872034655074732	0.13975052678091254	-0.0768056505375273	-0.130737245755699	0.9850733618082516	0.11197430253412544
201														9.647579966183487	-0.7482463161939804	1.096028559245772	0.09130476447953931	-0.10043497216769737	0.9907453034705793	0.9871986190330431	0.13978368837697885	-0.07680759756027267	-0.130775863838053	0.9850752950051087	0.11191218257191432
202														9.625443791938887	-0.7530876746099693	1.1043105614453068	0.09129622715766877	-0.10045587761442198	0.9907439707409238	0.9872197518573707	0.13963101864661248	-0.07681367179338333	-0.1306222050397543	0.9850948153779038	0.11191981176774185
203														9.661774464650074	-0.7457299978125153	1.0635896517979	0.09129171904451372	-0.10037559155114884	0.9907525234157393	0.9872146358388763	0.13966600607039603	-0.07681581564924955	-0.1306640150133654	0.9850980394707429	0.11184260284652714
204														9.62780791983513	-0.7255165569003228	1.1246418780948517	0.09129926179527237	-0.10039905425944956	0.9907494510215218	0.987231354251229	0.13953730615800344	-0.07683484478706593	-0.13053236372227084	0.9851138868648519	0.11185674734722564
205														9.647918331421893	-0.7469057482459402	1.0939625268353461	0.091287088270187	-0.10036349477072848	0.990754175581692	0.9872305296440768	0.1395478955700831	-0.07682620764190962	-0.13054711354077392	0.9851160103050646	0.11182082716026179
206														9.67022979843853	-0.7413381559850516	1.084599052475911	0.09125658616074941	-0.10024168760040303	0.990769317020521	0.9872164821789637	0.1396622391550897	-0.07679893403152616	-0.13067460654801266	0.9851122083403546	0.1117053453614121
207														9.676342315384852	-0.7647368510746645	1.0850044706159865	0.09127219928912189	-0.1001562883223624	0.9907765154394885	0.9872130398978929	0.1396724425809853	-0.0768246226090522	-0.13068970691102177	0.9851194479315438	0.11162380487405923
208														9.670410294833475	-0.7407583096202742	1.0833852247227136	0.09125878805377308	-0.10020584095561624	0.9907727403604394	0.9872088868022603	0.13971542075963866	-0.07679983737352297	-0.1307304380073706	0.9851083141666885	0.11167435667182585
209														9.648220902679217	-0.7455108469075089	1.0922441562760061	0.09127643668537538	-0.10021778560994882	0.9907699064633819	0.9872020832971546	0.13975729821437144	-0.07681109509423972	-0.1307694874188079	0.9851011587868816	0.11169175491935229
210														9.648281458939016	-0.7451928877770218	1.091926189938474	0.09126361875275457	-0.10014629242310735	0.9907783162776915	0.9871892837897811	0.13985561914476122	-0.0767966390166574	-0.13087501619014658	0.9850944756253286	0.11162707659742713
211														9.656523393313464	-0.74157396975535	1.1143725351767948	0.09128126153809371	-0.10015822561041648	0.9907754847262762	0.9871824722466149	0.1398975142472525	-0.07680789019691642	-0.13091408549531985	0.9850873135666773	0.11164446636045783
212														9.656542416708254	-0.7412722724398256	1.1144084192819024	0.09126527631929882	-0.1001500347346218	0.9907777853186939	0.987183042388184	0.1399019128779243	-0.07679254908066618	-0.13092093094524987	0.9850875216526456	0.1116346027210085
213														9.634393497615491	-0.7460671307998753	1.1229019034072636	0.09125559129954638	-0.1001123892691152	0.9907824819663491	0.9871839097653425	0.13989811678170558	-0.07678831435410066	-0.1309211417494595	0.9850918873058296	0.11159582522324266
214														9.656707291765478	-0.7406841867278079	1.1133703153932426	0.09126917849191504	-0.09998368532312762	0.9907942267325829	0.9871657490706162	0.14001680048801995	-0.07680546492892004	-0.1310485441325484	0.9850880966950641	0.111479687972454
215														9.662798663720045	-0.7642668165811878	1.113910409120023	0.09129374085881972	-0.09995706175131647	0.9907946501097218	0.9871651536159768	0.14000489634134972	-0.07683481298729711	-0.13103592013775328	0.9850924904832496	0.11145569894429302
216														9.66283881900519	-0.7641770312915062	1.1136236342458925	0.09130554020953063	-0.09994373443390614	0.9907949072711523	0.9871705489641883	0.13995641313393767	-0.0768538202071064	-0.13098704357603264	0.9851007320929611	0.11144030709363248
217														9.654734790179875	-0.7670618995407144	1.0904304580854558	0.09126157421185815	-0.09989502234374081	0.990803870391773	0.9871728742131948	0.13996078935616546	-0.07681597399277884	-0.13100015835881146	0.9851050512274023	0.11138669829123987
218														9.67705113015595	-0.7613148576644461	1.0810822542152656	0.09123367978727326	-0.09993870331031363	0.9908020343404256	0.9872340852815107	0.13951937647055374	-0.07683231382462885	-0.13055756022096787	0.9851632347839218	0.11139176046381233
219														9.683131224937268	-0.7845689083037897	1.0819644760807774	0.09124298353993526	-0.09992428453013541	0.990802631867655	0.9872233598762015	0.1395937242269249	-0.07683508229449287	-0.1306321387311536	0.9851541653556554	0.11138453578898139
220														9.657162654183203	-0.7387260292329881	1.110718461052644	0.09122660154419748	-0.0999571421293417	0.9908008260533654	0.9872331693996705	0.13953185827556347	-0.07682141474387266	-0.13056943136805893	0.9851595963413762	0.11141002346610962
221														9.655084902831176	-0.765057454651051	1.0887373522220893	0.0911935766245921	-0.09989424423833432	0.9908102096519122	0.9872318311181925	0.13955639244953094	-0.07679404243489779	-0.13060261563014364	0.9851625009583567	0.11134542422587662
222														9.632979709721825	-0.7696756879188502	1.0970361634031882	0.09117179876496975	-0.099880132122393	0.9908136365216085	0.9872257092507881	0.13961419344316095	-0.07676767538159973	-0.1306640811556064	0.9851557421019428	0.11133311142392527
223														9.649197179309025	-0.740353072577832	1.0871161186348302	0.09116252685705772	-0.09992467137715633	0.9908099988126908	0.9872229718177764	0.13964369593388912	-0.0767492156390045	-0.1306912300512743	0.9851470439665807	0.11137820321586292
224														9.635246884181377	-0.741611242079799	1.1185227720977764	0.09110698822371358	-0.09989602823396015	0.9908179955167769	0.9872401062453094	0.13954470483806578	-0.07670885198206834	-0.1306004950892372	0.9851639756379323	0.11133486330754258
225														9.641339778560846	-0.7646773596322988	1.1194975375570961	0.09110538596894394	-0.09989588976111885	0.9908181568059218	0.9872330992506495	0.1395984745972239	-0.07670119708378392	-0.13065456896491218	0.9851563719019243	0.11133870176012639
226														9.679779480867298	-0.7302298368223069	1.1005303769721713	0.09108550081581032	-0.09989882264058952	0.9908196893361363	0.9872471792512858	0.1395041082386015	-0.0766916608565284	-0.13056201056016725	0.9851694417812487	0.1113316324272225
227														9.657652552405063	-0.7348774340276903	1.1090105975301734	0.09106143606562986	-0.0998947498342006	0.990822311929454	0.9872487081171339	0.13950630952445628	-0.0766679719564638	-0.13056723625288125	0.9851695430525802	0.1113246076070121
228														9.62950231213574	-0.7159088882368018	1.1162610149493029	0.09104328802952616	-0.09983995310855892	0.9908295027238812	0.9872212145994226	0.139719923955301	-0.07663299742777746	-0.13078758790349165	0.9851448251973949	0.11128468105350689
229														9.708181888181718	-0.7472367720805726	1.0923710944429035	0.09104606227832837	-0.0998418913929286	0.9908290524942709	0.9872280829679188	0.13966671109044973	-0.07664151624717402	-0.13073380107340166	0.9851521743041836	0.11128282311588242
230														9.655616882487482	-0.7605965935387488	1.0871438679689638	0.09105428608515168	-0.0999002813146509	0.9908224113224211	0.9872263115891878	0.13967978213724533	-0.0766405125772236	-0.13074144978365215	0.985144401727658	0.11134262909202144
231														9.655626714451223	-0.7599767156610848	1.0874900243226315	0.09101396383417751	-0.09996419799595374	0.9908196695192403	0.9872256023985173	0.13971355777807384	-0.07658806527049133	-0.13077487662420195	0.9851331285120901	0.11140310027959796
232														9.655628753099611	-0.7592910127833681	1.0879507858948056	0.09100347391044433	-0.10004018754843735	0.9908129634857954	0.9872320042408489	0.13967730657303679	-0.07657166467498305	-0.13073384236236318	0.9851305552584262	0.1114739949826748
233														9.65562266879696	-0.7585827425730944	1.0884987520324163	0.09096221416755071	-0.1001213531702887	0.9908085537746874	0.9872298896766001	0.13972352240931302	-0.07651458824735824	-0.13077851705408355	0.9851157555967142	0.11155235341421643
234														9.643755775469417	-0.7328070875767558	1.1421362391362193	0.0909302014289502	-0.10016550899993387	0.9908070292821273	0.9872304418084057	0.1397413885919621	-0.07647482645400439	-0.13079661018111433	0.9851087326387752	0.11159315231659683
235														9.629786412007117	-0.734160093998838	1.1736346734667493	0.09090382240111772	-0.10011373811169538	0.9908146822257777	0.9872327786697661	0.13973512565374474	-0.07645610098942046	-0.13079730804889805	0.9851148837063801	0.11153802090465226
236														9.671969516035901	-0.7280435308373274	1.078072422171036	0.09085321385825307	-0.09997206308817436	0.9908336288870703	0.9872523296737301	0.13960630029572524	-0.07643898528586113	-0.13068485407811736	0.9851475359151205	0.11138133324281635
237														9.666102003814261	-0.7041051271612708	1.075549085997441	0.09084884766799875	-0.09988066413281571	0.9908432468406814	0.9872591654678325	0.13955024788520506	-0.07645304778055345	-0.130636239524699	0.985164748276939	0.11128608033029105
238														9.75879222413694	-0.7337082571026002	1.0200445163003937	0.09086479241309958	-0.09991854684304641	0.9908379653084043	0.9872569940077363	0.13956026794421664	-0.07646279745175077	-0.13064156031881025	0.9851594873968949	0.1113263989777549
239														9.675946607926553	-0.777972308809799	1.057346974020998	0.09089933736404204	-0.10010393930537609	0.9908160837422472	0.9872639217108851	0.13950220899406582	-0.07647929506617679	-0.13056515367747024	0.9851488897731762	0.11150966605571475
240														9.669972567599425	-0.7762029648664723	1.1132322430524535	0.09090380342516882	-0.10030275219846191	0.9907955674225906	0.9872764936620195	0.1394200580675853	-0.07646680633360142	-0.13046694441607665	0.985140297272346	0.1117003630472492
241														9.686050974103399	-0.7468123924489342	1.104353823926521	0.09089259119731849	-0.10038174423504143	0.9907885961645743	0.9872709760419474	0.13947433954484953	-0.07643905071171819	-0.13051649984050961	0.9851245677744814	0.11178116673448843
242														9.686057688159348	-0.7463421429482515	1.1046127833825297	0.09089569270429582	-0.10036053515289195	0.9907904602041904	0.9872536627361621	0.13960151181778124	-0.07643051296584441	-0.13064523895587804	0.9851087152604097	0.11177048204309803
243														9.651838021451793	-0.7038346523412681	1.1107015010384609	0.09087644199088182	-0.10036346416521791	0.9907919293937729	0.9872466800064593	0.13966556893491186	-0.07640367576439772	-0.13071138094022927	0.9850993370796899	0.1117758067644957
244														9.643905960694893	-0.728808583151792	1.143425862111126	0.09085219404149913	-0.10032154645509989	0.9907983983408044	0.9872257419481363	0.13983410774936125	-0.0763659396910169	-0.1308862608251829	0.9850796970939953	0.11174424862338525
245														9.633608629062206	-0.7585868293936249	1.0992351419740518	0.09084377791767417	-0.10034875986879266	0.9907964142075005	0.9872244147699369	0.1398510743714311	-0.07635202603279861	-0.1309021118844192	0.9850745166686392	0.11177134567610411
246														9.6275703192755	-0.734590906745059	1.098215373796092	0.09086115544949677	-0.1003690154771924	0.9907927690301946	0.9871988892243289	0.1400345171709561	-0.07634583888430074	-0.13108243034302036	0.9850463921728942	0.11180787862458935
247														9.635731768413418	-0.7308041327056668	1.121455105840826	0.09083998441580957	-0.10044494409411264	0.9907870156785792	0.987198434083028	0.1400560420767161	-0.07631223245208923	-0.1311005300345962	0.9850355923943737	0.11188178020085418
248														9.60744895792356	-0.7119820603377934	1.1295742074549509	0.09085631895709023	-0.10050302962585661	0.9907796275366139	0.987193615485846	0.14008726505335292	-0.07631725698591685	-0.13112549275236424	0.9850252277002326	0.11194376241914436
249														9.672051415344612	-0.7453372534900139	1.137943720674442	0.09087633656686372	-0.10055141532618667	0.9907728823136447	0.9871979513674467	0.1400468288570832	-0.0763353819862827	-0.13107896958743226	0.9850260395557957	0.11199109397144696
250														9.655688687429341	-0.7518102475473767	1.0926040716770529	0.09089311219139892	-0.10060282224034006	0.9907661249323374	0.987217213819761	0.13989622943998603	-0.07636241042831571	-0.13092217113273646	0.9850421905409702	0.11203244155215558
251														9.657861289207073	-0.72462691432839	1.1139269798952045	0.09088746822035351	-0.10057829047337202	0.990769133353451	0.9872201138819576	0.13987579055867452	-0.07636235959214827	-0.13090422020465553	0.9850475981905848	0.11200586784437325
252														9.700368309654367	-0.763052273029085	1.1302776067588323	0.0908937797027311	-0.10056171982057205	0.9907702363909006	0.9872062530846403	0.1399751156689978	-0.07635954992033794	-0.1310043307755025	0.9850351808439026	0.11199802595529643
253														9.649761737808921	-0.7272719265685202	1.0909281702924576	0.09088118577571977	-0.10057572940691756	0.9907699696328436	0.9872029233980246	0.14000852461970115	-0.07634134573223483	-0.13103815515487532	0.985029002460375	0.11201279482954513
254														9.67803513779883	-0.7453730791732053	1.083380142187552	0.0908962644925164	-0.10045627081732206	0.9907807056835456	0.9871404183200176	0.14045962721814853	-0.07632095151870605	-0.13149777040044602	0.9849769696674218	0.11193170062362129
255														9.68622424253517	-0.7419582989105524	1.106104575005571	0.0909229978206735	-0.10047715195362067	0.9907761353618645	0.9871390231883657	0.1404562584374341	-0.07634519215036989	-0.131489761449407	0.9849753201989615	0.11195562171205276
256														9.6357950915625	-0.7285419782274065	1.1223824797766464	0.09090501446418331	-0.10052669491533428	0.990772759998309	0.9871752758589747	0.14019862936330607	-0.0763499774551939	-0.13122977207183173	0.9850069684697924	0.11198222621436604
257														9.649876762561297	-0.726354036524718	1.090522186915301	0.09090697352658783	-0.10045741952276188	0.99077960668711	0.987173868966823	0.14020271713480603	-0.07636066092623606	-0.13123899798958494	0.9850134542080354	0.1119143441916376
258														9.648015009202519	-0.7753051940884242	1.1241509125781854	0.09093624566111283	-0.10051772771477158	0.9907708037887073	0.9871898767021541	0.14007020909998713	-0.076396883833518	-0.13109823248941194	0.985026153428296	0.1119675421736459
259														9.650173005101585	-0.7481807024119825	1.1455433031513396	0.09094469324249835	-0.10050932638309973	0.9907708807191715	0.9871896420942107	0.14006642938971664	-0.07640684458815905	-0.13109413912502516	0.9850275481772225	0.11196006439368228
260														9.642087118801506	-0.7513034270664263	1.1221132634401356	0.09094431594845412	-0.10043305428188903	0.990778649852872	0.9872080162620467	0.13992262885655768	-0.07643291543455483	-0.13095596215760297	0.9850557646861837	0.11187348405183103
261														9.692647206842286	-0.7643884938678258	1.1048882608080441	0.09095648085990621	-0.10035568700673914	0.9907853726589767	0.987213427579357	0.13986888545210147	-0.07646138430217492	-0.13090671104492502	0.9850712821759615	0.11179446334952453
262														9.664431757301998	-0.7459252834947778	1.1121746598315598	0.09099035913796269	-0.10047004190064018	0.9907706723679448	0.9872404025932882	0.139654851402774	-0.07650431338893765	-0.1306795394520055	0.9850899924170147	0.1118953296990497
263														9.63634405715822	-0.7497219671914771	1.1757388812375136	0.09103117189989152	-0.10054577997390157	0.9907592401143538	0.9872452957650966	0.13960003809567859	-0.07654120036537093	-0.1306141329727345	0.9850900342065818	0.11197130335338587
264														9.672523679386149	-0.7425743259769205	1.1357337483030778	0.09104746647280534	-0.10058380963475355	0.9907538827015735	0.9872757956832636	0.13936322449365296	-0.07657933740057071	-0.13037201427784317	0.9851196825249668	0.11199262919963321
265														9.664376107395663	-0.7457282337467758	1.1127902027074321	0.09105593382764784	-0.10057549714105424	0.9907539484097985	0.9872755915652476	0.13935917856123664	-0.07658933117757871	-0.13036764634780545	0.9851211035834975	0.11198521357825042
266														9.650373647004923	-0.7474920529716745	1.1443019494783269	0.09108100487247531	-0.10058694166091436	0.9907504820683788	0.9872649923511931	0.13942549333704893	-0.07660526539030965	-0.13043038537556884	0.9851105516514506	0.11200498022747155
267														9.650389562077295	-0.7473157844775901	1.1442828648471564	0.09107949301401944	-0.10057560084772388	0.9907517723761231	0.9872698844489265	0.13938854538545434	-0.07660945552300352	-0.13039440636972544	0.9851169382004592	0.11199069987298252
268														9.672629733138509	-0.7418918754697934	1.1352764424427473	0.09108815860357253	-0.1005841307392315	0.9907501097681712	0.9872925136680721	0.13921305833687378	-0.07663691567041003	-0.1302168952831766	0.9851408818194112	0.11198662041013144
269														9.680589895345117	-0.7163126792900344	1.102546563887473	0.09112572556941045	-0.10062948417202044	0.9907420497055343	0.9872968157593182	0.1391620183637354	-0.07667418233306483	-0.13015797989735856	0.9851434614106751	0.11203240918963744
270														9.658571472425765	-0.7438728561031435	1.1671200304262443	0.09117519437566271	-0.10071833106981598	0.9907284702263636	0.9873250586944037	0.13892590669488605	-0.07673865338338781	-0.1299088619173151	0.9851677066548183	0.11210832868182982
271														9.688698937190638	-0.7132369130263098	1.1257812557872495	0.09121791345326502	-0.10072111104721704	0.9907242553075233	0.9873234046313248	0.13891356467462385	-0.07678226498741891	-0.12989144287612553	0.9851691628034259	0.11211571579736246
272														9.71691608543812	-0.7320657450613579	1.1182568954970882	0.09131329370438884	-0.10070665618511376	0.9907169382789764	0.9873231630654391	0.13885815838469154	-0.07688552220326145	-0.129826245679802	0.9851784514746682	0.11210961012626211
273														9.65629582956222	-0.7718018912061676	1.1461778849425326	0.09136393325162531	-0.10082401626400994	0.9907003328177434	0.987332249942519	0.13876844280658837	-0.07693079685326365	-0.12972147055995042	0.9851790888084407	0.11222523357219913
274														9.674675178773184	-0.7387451040774063	1.2137887397472111	0.09146028753289995	-0.10083808291032731	0.9906900104671332	0.9873407497157289	0.13864805647662581	-0.07703869408314373	-0.1295888103008167	0.9851945987825064	0.11224233949180934
275														9.664123174134897	-0.7472273854366988	1.113980560447767	0.09150986546937565	-0.10084083835204899	0.9906851517218944	0.9873545089681797	0.13851427079903797	-0.07710298570882856	-0.12944890166386808	0.9852131353699396	0.1122410787214356
276														9.672263797561877	-0.7443300046624967	1.1367972562876318	0.09158567010031948	-0.10093854292666926	0.9906681965139068	0.9873965880119789	0.13815615417939292	-0.07720657384356877	-0.12907378903006633	0.9852534128914252	0.11231949684369669
277														9.660268194415613	-0.719805026758263	1.190407567886311	0.09165891628182529	-0.10104881945462058	0.9906501800095069	0.9874088962112013	0.13802712809358494	-0.07727990420033931	-0.12892755620509472	0.9852601930439817	0.11242792025968254
278														9.658006774624706	-0.7470753845124305	1.1697446066096617	0.09172855445677652	-0.10123739053239389	0.9906244813527789	0.9874674630289976	0.13755178056688233	-0.07737904833968767	-0.12842850834742908	0.9853073116652855	0.11258605518705472
279														9.657861455304875	-0.7473684883504005	1.170756785177273	0.09178985588007668	-0.10137923000845611	0.9906042974267815	0.9874819891864637	0.13741457835699933	-0.07743742433289563	-0.12827292539682572	0.9853118721388983	0.1127234280541527
280														9.679825848221599	-0.74264141581113	1.1636639556607626	0.09190881135060855	-0.1015657342721073	0.9905741628055345	0.9874769113255246	0.13739669198403218	-0.07753385474002117	-0.12822683024671538	0.9852951591546627	0.11292178421928759
281														9.635136151395256	-0.7534847939976625	1.1832092501599625	0.09196686704398305	-0.10180896863485572	0.99054380482219	0.9874848213438008	0.13731999132717687	-0.07756898605438456	-0.12812424821912355	0.9852807487652494	0.1131637005884546
282														9.651215653264122	-0.7471979516414086	1.2305087648398205	0.09205452969716124	-0.10190872854738575	0.9905254033128529	0.9874666205799917	0.13741493119842516	-0.07763253135163733	-0.12820154758256763	0.9852571987707512	0.11328113465112946
283														9.648782362248447	-0.7520642906267136	1.1546779568200556	0.09210655085401212	-0.10204139788702843	0.9905069088133803	0.9874758346946617	0.13732313332072216	-0.0776777506694149	-0.12809316603104903	0.98525626624358	0.11341177471454089
284														9.626392120614238	-0.7574776009188366	1.1647911178632069	0.09216667181136085	-0.10224667923880754	0.9904801467933892	0.9875073517656328	0.13706022376190907	-0.07774139998201118	-0.12780663056369396	0.9852715928346725	0.11360173210380042
285														9.6483512984461	-0.7525732339651092	1.1579438434333622	0.09226408570531819	-0.10245837466146746	0.9904492010954891	0.9875078260847666	0.13701420144186247	-0.0778164637116554	-0.12773265796302985	0.985256002298377	0.11381993685080191
286														9.650290166248176	-0.7483294548663975	1.237062311828985	0.09233703062695645	-0.10267822505912289	0.9904196357472446	0.9875075195297278	0.13698961655431965	-0.0778636232687932	-0.12768230749497206	0.9852365335567943	0.11404473375720078
287														9.655927875969356	-0.7499366860713621	1.184977259298299	0.09243261138548814	-0.10291323394902963	0.9903863279703586	0.9875168621562637	0.13687792729948384	-0.07794151637762387	-0.12754081428901703	0.9852275368138819	0.11428053812502359
288														9.669685410218984	-0.7483207396229671	1.1559510652106446	0.09251368835454132	-0.10322061036677138	0.9903467690978498	0.9875417428867492	0.1366603801431339	-0.07800799033006484	-0.1272891335630822	0.9852255813237114	0.11457761728241048
289														9.647128941790887	-0.7537940312266078	1.1672965268193107	0.09259375549652141	-0.10350634867836933	0.990309462858112	0.9875503317086731	0.13656752941714537	-0.0780618488827094	-0.12716421975202075	0.9852084782888184	0.11486302939889234
290														9.630529226262462	-0.7606253203624127	1.1245193553447828	0.09269480000103489	-0.1038760402965132	0.9902613000138324	0.9875957969955179	0.13618199741834536	-0.07816012625333668	-0.12673679737769883	0.9852229350920871	0.11521090381980847
291														9.666574247111244	-0.7762679760197552	1.1423208760164776	0.09279951887679005	-0.10408170606577455	0.9902298964173288	0.9876011118054655	0.1360925847455324	-0.07824865709958195	-0.12661869236745488	0.9852135843763612	0.1154205350162528
292														9.674415517567992	-0.7733200797837149	1.1671551163483873	0.09285371528816996	-0.10443211809292458	0.9901879216935588	0.9876779637207231	0.13548735125230463	-0.07832890674023835	-0.1259778851134984	0.9852599202044405	0.11572580568339161
293														9.67410838466609	-0.77345447515094	1.1696093398213248	0.09294089850483278	-0.10472305604914905	0.9901490145007674	0.9876798662470097	0.135441516283011	-0.07838416598553555	-0.12589865446224396	0.9852353410219741	0.1160209102098016
294														9.629319350207401	-0.7617990034355375	1.1340452966947634	0.09303306626360264	-0.10502767701786353	0.9901080929079531	0.9877014531497825	0.1352393718207522	-0.0784611480628245	-0.12566100440232147	0.985230683327392	0.11631772265153792
295														9.64521956233129	-0.7555311016038186	1.181861034885297	0.09310583425599589	-0.1052314674380932	0.9900796139141137	0.9876984318889475	0.1352339859188978	-0.07850844984204897	-0.12563085318348022	0.9852096768268737	0.11652802845272009
296														9.620688545843752	-0.7877472869748949	1.170840002699741	0.09316972155918316	-0.10546518626766765	0.9900487348964752	0.9877115970238177	0.13510945640152347	-0.0785572141534101	-0.1254798951595203	0.9852017708451459	0.11675729799179499
297														9.612354320953944	-0.7911889927770619	1.1499881496923114	0.09325404985228594	-0.1056760921022305	0.990018305762145	0.9877153124772934	0.13504443896271728	-0.07862226785795046	-0.12538797264502577	0.9851880851204229	0.11697133517543717
298														9.614156570004255	-0.7645813896846763	1.1734141398427724	0.0933234785602165	-0.10589448442786031	0.9899884274662905	0.9877363870930772	0.13485268224341007	-0.07868661705825758	-0.1251701160890082	0.9851909014295228	0.11718075686198948
299														9.593804003246255	-0.7431517921680693	1.2047633645092133	0.09338480268657093	-0.10595947454219962	0.9899756908035323	0.9877324713209543	0.1348502924445085	-0.07873984839857462	-0.1251552784559652	0.9851842408313134	0.11725258160159338
300														9.630135594589419	-0.7363246990806308	1.1650653558526631	0.09347448307534825	-0.10605662938595384	0.9899568234913518	0.9877758664748203	0.1344595782598418	-0.07886354940087381	-0.12474517475123048	0.9852271886105644	0.11732871855947738
301														9.636069525577263	-0.7605600452129773	1.166683975800669	0.09356899791888393	-0.106138959822759	0.9899390707696101	0.9877803971967879	0.1343708140594963	-0.07895803469403567	-0.12463839513653957	0.9852304327093897	0.11741492631287054
302														9.646002463255474	-0.7311768658484851	1.2120890640863682	0.09368981955958322	-0.10627235660719592	0.9899133315255666	0.9877806620520555	0.13430310793626016	-0.0790698354283394	-0.12454549926390818	0.9852252846023668	0.1175566127161275
303														9.629594602063788	-0.7609460198392158	1.2228821622902932	0.0938159610195943	-0.10635676562730256	0.9898923193273442	0.987793285523545	0.13413008187445885	-0.07920572082211863	-0.12435027355245498	0.9852397472400563	0.11764204148934004
304														9.621362660619354	-0.7651401002528699	1.200781819653387	0.09394738071704506	-0.10643202155383646	0.9898717666669611	0.987785752063599	0.1341124117211828	-0.07932949667354788	-0.12431089122259997	0.9852340259097288	0.11773154425705654
305														9.651544438834703	-0.7575538323760028	1.2154509682840904	0.09404729083169278	-0.10646068823733845	0.9898591965260775	0.9877957437979128	0.13397192553804044	-0.07944237976268348	-0.12415585214538888	0.9852500418815837	0.1177611113669974
306														9.643396083559761	-0.7614351735760032	1.1929003875248385	0.09411480515014398	-0.10648552086943824	0.9898501084996226	0.9878024070035838	0.13387798304704543	-0.07951786197566602	-0.1240516350939257	0.9852601278344817	0.11778655411422842
307														9.635306349106973	-0.7651682831784696	1.169969238139906	0.09417691691800745	-0.1064402005889431	0.9898490753738187	0.987814455961439	0.13373891327021903	-0.07960215870757975	-0.12390846990187798	0.9852839117614203	0.11773828736094732
308														9.605020082151219	-0.7739454093101668	1.1553517373918758	0.09421145505183337	-0.10642959231628119	0.9898469293867644	0.98782163866592	0.13365882574588953	-0.07964752653790369	-0.12382492447158011	0.9852959251816784	0.1177256467384544
309														9.615157505985469	-0.7441427305657513	1.1993987736513203	0.09424595172780953	-0.10638427405803091	0.9898485171055548	0.9878387200298762	0.1334970571863989	-0.07970695661175087	-0.12366229737739631	0.9853227501462237	0.11767206232418678
310														9.619248876141949	-0.7948277224452289	1.1778624760660088	0.0942570875496678	-0.10620717890201914	0.9898664741248338	0.9878375696275896	0.13348481366781795	-0.07974171149609394	-0.1236629996357545	0.9853435135371542	0.11749733125201173
311														9.651871602363297	-0.7374625231161058	1.1566010900301997	0.09430793192266279	-0.1060229910244545	0.9898813764036071	0.9878486685012249	0.13334881287096328	-0.07983171203389333	-0.1235355095380598	0.9853817633182247	0.1173105212802274
312														9.684307245571492	-0.784446754601721	1.071754854015547	0.09439300812846638	-0.10594808554998847	0.9898812874202401	0.9878653380801198	0.1331548796303326	-0.0799490578461215	-0.12333707405443883	0.9854160447237117	0.11723133098607177
313														9.67014345213117	-0.7870216110069667	1.1027641065271865	0.09444672800875231	-0.10599700415815283	0.9898709262716714	0.9878790530540682	0.13301448630868928	-0.08001326745629395	-0.12318600612666059	0.9854297445995486	0.11727500310394484
314														9.641775604815317	-0.7916830242266355	1.1655077349395047	0.09453846815391703	-0.10592109853603665	0.9898702939900915	0.987866950585444	0.13304580010323733	-0.08011056744216438	-0.12321268595451917	0.9854336791280319	0.11721389874952723
315														9.64996299737809	-0.7667241041229164	1.1321107643208486	0.09462555255288904	-0.10580680812664228	0.9898741961270193	0.9878643378718637	0.13300102927768195	-0.08021705661554612	-0.12316677622250649	0.9854520006398736	0.11710806833786444
316														9.672331552007366	-0.7622021541347077	1.1219216979870223	0.09469009781627477	-0.10560625680081087	0.9898894402407099	0.987872502032777	0.1328775167597796	-0.08032113835881544	-0.12305163592185919	0.9854901745143259	0.11690770219570024
317														9.662313913083484	-0.8154266087531489	1.13067433089831	0.09475897743329223	-0.10538049397841404	0.9899069085952794	0.9878744447130503	0.13279881963101528	-0.08042732736758174	-0.12298299751868097	0.9855249489452182	0.11668657732509594
318														9.672742520152225	-0.7636162204712929	1.1174079960373402	0.0948123709972527	-0.10524739774092456	0.9899159558137463	0.987943787846489	0.1321960496035805	-0.08056845862208883	-0.12238335818815765	0.9856202056258644	0.11651233368454095
319														9.64052223683774	-0.8220392880303053	1.1345035666843515	0.09487736856002837	-0.10500854009159744	0.9899350945607276	0.9879438559951725	0.13213340791907688	-0.080670316183099	-0.12233242553188772	0.9856540818256285	0.1162790120527473
320														9.632627991557218	-0.8260234795134149	1.1093328547543424	0.0949810866257294	-0.1048051474937195	0.9899467027280888	0.9879510720593996	0.13199044244949204	-0.0808158543769103	-0.12219358575669315	0.985694883907189	0.11607895347182734
321														9.634929847467228	-0.7999937816165104	1.128668452092457	0.095044524098881	-0.1045621960111	0.9899663052872827	0.9879397239222252	0.13202033284508627	-0.08090570815430576	-0.12223600261500006	0.9857166828662324	0.11584895676654491
322														9.590742014777033	-0.8111455662850631	1.1431379420269334	0.09512830279385429	-0.10426046161381902	0.9899900818450829	0.9879380704927345	0.13195372085411056	-0.0810344644200709	-0.12218418424105898	0.9857575623330659	0.11555541278762377
323														9.585074811596646	-0.7880722450744005	1.1387575428923618	0.09515502813808774	-0.10392623150190095	0.9900226558144276	0.9879301727850294	0.1319724061991084	-0.0811002940990917	-0.12222722414004727	0.9857903541868476	0.11522969786989731
324														9.621828336609358	-0.8037652710877583	1.15040953474584	0.09520762663487611	-0.10360109190483535	0.9900516762203275	0.9879561604198168	0.13170111799456202	-0.08122463054711854	-0.12197595221635887	0.9858608569545242	0.11489228784302374
325														9.666741151862762	-0.8163541270557053	1.1847066023963948	0.09524390636311844	-0.10323747811138845	0.9900861686812388	0.9879444228451384	0.1317420556073224	-0.08130097264820263	-0.12204267970624111	0.9858935307108765	0.11454051873709178
326														9.658993286982106	-0.8198003700797903	1.1584421340250908	0.0952437877543823	-0.10293761195485174	0.990117401593988	0.9879695665116173	0.13151420841272854	-0.08136429580854643	-0.12183905999738104	0.9859553037691952	0.11422513921352345
327														9.651219314801128	-0.8232033158531807	1.1322854081914377	0.09527653939385344	-0.10259322688734362	0.9901499941109805	0.9879550086507948	0.13158187968020207	-0.08143162666700066	-0.12193146404001076	0.9859821695835417	0.11389415849986656
328														9.651610337036384	-0.8235867548845001	1.1286679296837014	0.09529722947385291	-0.10224692766335619	0.9901838232560727	0.9879827842003639	0.13131476796346125	-0.08152576180815996	-0.1216900003217451	0.9860537498017581	0.11353213784469546
329														9.66820739443967	-0.795222303995103	1.1151388466809362	0.09534863414080796	-0.10188229633098578	0.990216458993592	0.9879693286763886	0.1313594269580369	-0.08161682757852484	-0.12175895680486443	0.9860855432687278	0.11318152585210098
330														9.658398096335253	-0.8480362018731181	1.12245335302037	0.09535710990426158	-0.10146626040980711	0.9902583600198263	0.9879264694767007	0.131666098917557	-0.08164146803636974	-0.12209960072829107	0.986087539924464	0.11279650308281106
331														9.674965952570696	-0.8193468620399849	1.1093294178079462	0.09539173279806329	-0.10116945208614958	0.9902853928430795	0.9879111439591955	0.13174228952335879	-0.08170398272041618	-0.12219651776960522	0.986107859777891	0.11251355442457037
332														9.669248895154462	-0.795889447211237	1.1055914920293153	0.09541647781515139	-0.10085158989726145	0.990315430848447	0.9878498276108427	0.13219346446304817	-0.08171662035647909	-0.12267197663109058	0.9860800397373691	0.11223966046353553
333														9.663724675257118	-0.7948509419965137	1.1574648510534398	0.09544120268653267	-0.10059520893821905	0.9903391241228554	0.9878271512695654	0.13233807106310716	-0.08175667655886759	-0.12283523942421204	0.986086831311509	0.11200118334028644
334														9.658033583912108	-0.7714174785606669	1.1536125878493224	0.0954819714368155	-0.10029015815276643	0.9903661329570153	0.9878121767737789	0.13240602602303742	-0.08182754847993184	-0.12292394619433594	0.9861087812460043	0.11171022782866463
335														9.644168394587556	-0.7512880637223261	1.1265389444864407	0.09551426622644421	-0.09994553401327161	0.9903978570140517	0.9877975266847974	0.1324736163766166	-0.08189497688807484	-0.12301654857221944	0.9861346922174998	0.11137907156407695
336														9.694872050355094	-0.7649154568967931	1.1071198652978755	0.09555545920874112	-0.09964560990307902	0.9904241044332727	0.9877880113829319	0.1324977566247169	-0.08197065973609413	-0.12306095556089208	0.9861618005765895	0.11108962282760465
337														9.709338433268988	-0.78592710389818	1.1285494180108642	0.09562751988037871	-0.09942272030165311	0.9904395489525581	0.987770408707477	0.13257250949973243	-0.08206186329110032	-0.12314624283100012	0.9861742505322082	0.11088440135495037
338														9.665153078407227	-0.7970857617259193	1.1439220661448193	0.09573067410123512	-0.09924425299648754	0.9904474828496932	0.9877756445731681	0.13244722252258287	-0.08220102939815682	-0.12302403839976295	0.9862090607438281	0.11071031786871113
339														9.663121164363435	-0.8245950395979127	1.1199750482749924	0.0957897371320052	-0.09898789339040498	0.9904674266336634	0.9877624023240787	0.13249275935754298	-0.08228672598171272	-0.12308437274953554	0.9862287086066569	0.11046796596705924
340														9.681844024886166	-0.7694784996522512	1.1289189984026822	0.09584665286503505	-0.09868307177764202	0.9904923374156399	0.987757517146712	0.13246865413997372	-0.08238411855756239	-0.1230792689884529	0.9862624939714946	0.1101716230723469
341														9.680258367600286	-0.8192995436599516	1.1593198896714705	0.09588241525708296	-0.09831909864451943	0.9905250715081358	0.9877457147430837	0.13250907815056195	-0.08246057976004534	-0.12314611423485033	0.9862934142786404	0.10981955882009209
342														9.70509146056674	-0.7877327690227691	1.1686541192369828	0.09592047354755895	-0.0979685988631197	0.9905561147109281	0.9877387304378403	0.13251043310971886	-0.08254202269219107	-0.12317249346934367	0.9863281090762201	0.10947784295770827
343														9.674971102880669	-0.796573646841386	1.1516597857018271	0.095969562988686	-0.09770915343330894	0.9905769855569564	0.987730383938245	0.13252286467765986	-0.08262190377154033	-0.12320118353720327	0.9863521742628101	0.10922846104408693
344														9.695054756952322	-0.8187602915800127	1.119165564037094	0.09606176143057693	-0.097529886915594	0.9905857151953514	0.9877046481056426	0.1326522626368943	-0.08272185520054903	-0.1233355832732918	0.986352522364871	0.10907353264240147
345														9.669283535053866	-0.774343381445686	1.1470376853364923	0.09618396171733273	-0.09738206918673659	0.9905883999468544	0.9876814338382223	0.13274384828614888	-0.08285201260958003	-0.12342621585235769	0.986354806012063	0.1089502909462553
346														9.675364945911452	-0.7987177543853906	1.1468558651643763	0.09625429261503643	-0.09729318634931267	0.9905903023163394	0.9876967834908921	0.1325665809099332	-0.0829527908366906	-0.12324842812354447	0.9863874175575477	0.10885626968267573
347														9.667523301713496	-0.8252114057411978	1.1784599591596412	0.0963930011969224	-0.09719825106549429	0.9905861342205726	0.9876809185885729	0.13259254719938982	-0.0831000570590022	-0.12326715854712461	0.9863932868876317	0.10878185145846395
348														9.675864613256973	-0.8229789326816718	1.2001293774437767	0.09648527092229209	-0.09703438757703126	0.9905932162712421	0.9876557501914696	0.13271814238529414	-0.08319864058699378	-0.12339656238639263	0.986392529528356	0.10864191678111099
349														9.65937606283673	-0.8302688671251046	1.1531852283358102	0.09661878469147608	-0.0968612426745234	0.9905971482455873	0.9876400617964356	0.1327392718625775	-0.08335102902859898	-0.1234176599173546	0.9864067038361715	0.1084891508289395
350														9.665430085184735	-0.8549203871795706	1.1529323615533726	0.09672695665714312	-0.09680427907308292	0.9905921599775499	0.9876615408217242	0.1324897375890251	-0.08349341420285117	-0.1231607755639138	0.9864458429061029	0.10842519253274718
351														9.643307421715235	-0.8607931473537829	1.1608542452531205	0.09681749086810121	-0.09672546037506269	0.9905910148882018	0.9876382450808261	0.132608466543052	-0.08358044899835548	-0.12327639804792961	0.986437620894668	0.10836858293802679
352														9.651659171668893	-0.8582452237102572	1.182724022219715	0.09692188668577142	-0.09660365191031772	0.9905926924416821	0.9876154374236126	0.13271011144608927	-0.08368855407123155	-0.12337704666524218	0.9864358878090138	0.10826977232176085
353														9.645706908383305	-0.8352909917553636	1.1809405282673577	0.09703781299614367	-0.09655929818245007	0.9905856675641121	0.9875843515774805	0.13287643927181583	-0.08379141009513125	-0.12353465654711016	0.9864178393667441	0.10825449094994347
354														9.682111022075368	-0.851227044748929	1.1958476860787552	0.0971376244473916	-0.09662467707497996	0.9905695097754994	0.9876148648438461	0.13257044800108547	-0.083916357501163	-0.12321185274229512	0.9864526081353058	0.10830554578073853
355														9.637749741562317	-0.8621994297627994	1.2132547283564357	0.09724214579695492	-0.0965621278347693	0.9905653540018572	0.987588465781138	0.1327054944509487	-0.08401353461548156	-0.1233409394194046	0.9864405745966405	0.10826821072035808
356														9.643286803692265	-0.8641518757046706	1.1585277896605186	0.09737631563570115	-0.09650930417262693	0.9905573215929161	0.9875647680583132	0.13279942373688597	-0.08414357934555261	-0.12342480319265892	0.9864331032884422	0.10824070719275164
357														9.665404356985006	-0.8599695027918729	1.1493875009798984	0.09752174055439186	-0.0964691552884056	0.9905469257926066	0.9875399608847355	0.13289542816155647	-0.08428303998748554	-0.12350844414459028	0.9864241011105205	0.1082273393061316
358														9.65188024378461	-0.8852702884887331	1.2363850712915707	0.09763961644864247	-0.09647734753775788	0.9905345156590155	0.9875100644884292	0.13305465151058415	-0.08438206115908375	-0.12365426734981838	0.9864018355231683	0.10826375682888512
359														9.629186292641972	-0.8687078358683152	1.1901683619227734	0.09777827806322009	-0.09650812349124638	0.9905178395360634	0.9874784355498434	0.13321519457089537	-0.08449882401236714	-0.12379720377708897	0.9863771560795787	0.10832524313998593
360														9.637445136702164	-0.8661409705474219	1.2128668613169888	0.09786047460824174	-0.09644431834370543	0.9905159367565308	0.9874603030819411	0.13329829779718189	-0.08457962899951205	-0.1238768636460052	0.986372169753178	0.10827957050910958
361														9.637480719175219	-0.8665000647512309	1.2123275051543867	0.0979379895891477	-0.09637547207465852	0.9905149764529679	0.9874289957018723	0.1334888275058558	-0.08464461812959173	-0.12406501780287843	0.9863531321557708	0.10823756299950996
362														9.64582333885555	-0.8636718911841011	1.2345696963427548	0.09803206840624959	-0.0963259088094377	0.9905104910378426	0.9874044997877338	0.1336153260236334	-0.08473074088271076	-0.12418561657022648	0.9863408457240499	0.10821122258545385
363														9.637499374919976	-0.8673916294347055	1.2115413803370485	0.09815258887093145	-0.0962884823773289	0.9905021945757645	0.987365079417778	0.1338430793588207	-0.08483059621430389	-0.12440365446505075	0.9863136206446812	0.10820892979103444
364														9.643431214554898	-0.8915472516323796	1.2124839194583803	0.09825541243954844	-0.09626831990636592	0.9904939598547486	0.9873353754498939	0.13400689533587568	-0.08491765651298583	-0.12455814028618128	0.9862933450981233	0.10821602054965207
365														9.667903957721359	-0.8600103407031223	1.2253887678809237	0.09838422240575723	-0.09630079723349488	0.9904780165323246	0.9872872100888219	0.134303242722328	-0.08500943353121515	-0.12483793324404696	0.9862498646116312	0.1082898655317944
366														9.665804358034164	-0.9097023280970981	1.260057374062718	0.09851003387889631	-0.096373416583383	0.9904584482961538	0.9872351498660801	0.13463500363133282	-0.0850892159212292	-0.12515003833030686	0.9861975361829073	0.10840612313281026
367														9.623696514216995	-0.893443363786751	1.3000782689702113	0.09862435044208837	-0.09640058568947946	0.990444427809356	0.9871785421402492	0.13500545944119496	-0.08515897990773136	-0.12550602948754963	0.9861442353934836	0.10847941538592998
368														9.645780180429147	-0.8885167910130363	1.2917509611168645	0.09872081373697317	-0.09640536282507078	0.9904343526724404	0.9871197484601015	0.13540202356274955	-0.08521088084968065	-0.12589202967295304	0.9860893965729877	0.1085306354498361
369														9.63738758942207	-0.8920036221316422	1.2694326834034528	0.09883873164278836	-0.09641318307903618	0.9904218309668935	0.9870657765343875	0.13574549041789427	-0.08528959271665382	-0.12622225604786247	0.9860414088463904	0.10858306552319383
370														9.637184525499972	-0.8922581443062089	1.2707948731454404	0.09894435116386102	-0.09664865878543927	0.9903883340022434	0.9870410663402786	0.13588767593631326	-0.08534912352493218	-0.12633269066480446	0.9859987709341245	0.10884151315462123
371														9.619765058379599	-0.8659688238936585	1.3807915289835155	0.09907184698232616	-0.09691210642567649	0.990349843622772	0.9869817409322549	0.13628707155637515	-0.0853983442048078	-0.12669574658150884	0.9859177844803926	0.10915269141632872
372														9.577338085856436	-0.8493078518676537	1.422970836409724	0.09920801381532798	-0.09726644411149715	0.9903014737163243	0.9869477669858127	0.1364904934242895	-0.0854660777531831	-0.12685375531113324	0.985854747949565	0.10953785057579021
373														9.570925684709737	-0.8255380214710214	1.425020402817411	0.09930871249709719	-0.09760105437300715	0.9902584580842757	0.9869015997343668	0.13681028588332106	-0.08548788287396408	-0.1271338352442713	0.9857773480161747	0.10990909004391403
374														9.5375807742125	-0.8605648002600381	1.393278174719487	0.09938043637644489	-0.09805438851625242	0.9902064763261912	0.9869194564826089	0.13666280998988575	-0.08551761679175218	-0.12693902190303807	0.9857528154960415	0.11035339351342036
375														9.562220229632521	-0.861439748856175	1.2569698706109622	0.0994831045587555	-0.09843195797354753	0.9901587052371177	0.9868942480130882	0.1368222505633001	-0.08555357964149918	-0.12705453610962714	0.9856930665274495	0.11075343540351318
376														9.525571783665484	-0.8680006583717141	1.301603844298222	0.09951771359683817	-0.09893942176605336	0.9901046487624712	0.9868811144872587	0.13694475774679762	-0.0855090591344369	-0.12712942440223435	0.9856252452865994	0.11126987599924196
377														9.594981530005574	-0.8802376166013882	1.203953592288618	0.09954543011815534	-0.09936546800880097	0.9900591957605283	0.9868524592747374	0.13718498252174044	-0.08545469088302388	-0.1273300081127573	0.9855489761234104	0.11171519456234874
378														9.638966042236373	-0.8690393606285771	1.190391093546154	0.09953807510174267	-0.09983736330827991	0.9900124607764748	0.9868756054924042	0.1370513428971807	-0.08540180732326819	-0.12715624596944142	0.9855198781849762	0.11216888522771815
379														9.640703800444328	-0.8187573397988899	1.1600032904132793	0.09952279184207011	-0.10019333479175496	0.9899780348913141	0.9868459859067971	0.1373215759787848	-0.0853099341832193	-0.12739785713897372	0.9854461326901693	0.1125420168754207
380														9.623942704481836	-0.824048627495633	1.1179139568237066	0.09947999165094967	-0.10057334011930014	0.9899438037173497	0.9868499161097319	0.1373524177454538	-0.08521476640637754	-0.12740084118773354	0.9854031239024594	0.1129146096301624
381														9.674133224871468	-0.8361531820991684	1.1040385130289825	0.09942469718247934	-0.10072550904918887	0.989933887397009	0.986826730748411	0.1375814396596279	-0.08511375295207929	-0.12762340330274735	0.9853556308703808	0.11307761777406858
382														9.674190134803455	-0.8349535841457119	1.1044475496293236	0.09934046259321888	-0.10065587947980048	0.9899494261920221	0.9868205937829133	0.1376786809586663	-0.08502762195557756	-0.12773640114589152	0.9853491638681336	0.1130063586116562
383														9.710642125472077	-0.8270005048722772	1.0625487265772076	0.09926321906183372	-0.10039207258207405	0.9899839620439099	0.9867910687470608	0.13793462672288842	-0.08495543179721188	-0.12802421639094574	0.985340281584739	0.11275783566560371
384														9.747126487249032	-0.8192875704051417	1.0199835113997173	0.09922892564744534	-0.10018624256582848	0.9900082510339976	0.9867592016962095	0.13818459139361372	-0.08491935332560996	-0.12829613471462625	0.985326207660144	0.11257160528021926
385														9.702929452587416	-0.8287845595901712	1.0362075163288227	0.09919780878039636	-0.10010500791008053	0.990019586737803	0.9867276518663399	0.13844014756269912	-0.08486970357646323	-0.12856257533009585	0.9852985907501037	0.11250933868062973
386														9.658624644173612	-0.8385090185569044	1.053312650196621	0.09923632274326602	-0.10002829993203183	0.9900234802574646	0.9866653642033989	0.13888484097016993	-0.08486730837056877	-0.12901012103617665	0.9852437973219615	0.11247687988574798
387														9.608815653102125	-0.8688844176677121	1.1803541656468823	0.0992581915913005	-0.0999425843588711	0.990029944614654	0.9866109255625555	0.13927829416611748	-0.08485539661550368	-0.12940901422475426	0.9851969532057265	0.11242895726426955
388														9.625494732860838	-0.8615841734437271	1.224706806812094	0.0992281037947308	-0.09977222187216461	0.9900501437604027	0.9865796954815393	0.13952081867406868	-0.08482007793011687	-0.12966991895137292	0.9851799048393188	0.11227763454907302
389														9.567463215339643	-0.8727692887903605	1.271998558740353	0.09920082998425447	-0.09954464415059344	0.9900757845495294	0.9865345674489894	0.13986142958596096	-0.08478400640690564	-0.13003362087810205	0.9851546296572444	0.11207860235668102
390														9.556035059594985	-0.8467533917335356	1.3238259666105154	0.09918030154378338	-0.09953894321638251	0.9900784143536561	0.9865204039566564	0.13998150392697192	-0.08475064091520829	-0.1301566762132455	0.9851381513989339	0.11208060624127372
391														9.503678834758693	-0.8817515753861576	1.3745635443582642	0.09922333091325278	-0.09959046048721976	0.9900689222384583	0.9864836440578726	0.14023602366675084	-0.08475775877427877	-0.13040226458455184	0.9850967454245709	0.11215904575707888
392														9.497734242269066	-0.8575444613329984	1.3735106965229917	0.09918929411403787	-0.09960290947199946	0.9900710804572932	0.9864784851498083	0.1402980518319412	-0.08471514025663751	-0.13046716931741376	0.985086654602972	0.11217219197923642
393														9.525805243723307	-0.853396249251859	1.3095278170229345	0.09916446194156664	-0.0994120419523028	0.9900927509090816	0.9864441807773037	0.14055648178090105	-0.08468620690507345	-0.130745124950926	0.9850690947056701	0.11200263817124098
394														9.553940813107866	-0.8491859322400753	1.2449868720510164	0.09908785842614964	-0.09927108624195524	0.9901145629415123	0.9864243231951157	0.1407432266026561	-0.08460732104570945	-0.13095285763043762	0.985056645884802	0.11186935897110806
395														9.581975039260156	-0.8447284072738853	1.1812702831250095	0.09902438601819932	-0.09926508261301659	0.9901215149402371	0.9864024723147906	0.1409476904011204	-0.08452166102165365	-0.13116529108338099	0.985028015817023	0.11187258140666559
396														9.614875071451543	-0.807789951970877	1.2162742695231645	0.09889614058646504	-0.09923919644786072	0.9901369275335032	0.9863938214888621	0.1410925025677115	-0.0843808902997597	-0.13132700524150348	0.9850098921369085	0.11184243419532175
397														9.648611037165482	-0.8045041053565436	1.0982192543948992	0.09877228061452481	-0.0991553227129045	0.9901576937841294	0.9863828219088584	0.1412468621230006	-0.0842511280845783	-0.13150271945980246	0.9849962161948167	0.11175638172637234
398														9.704565506676836	-0.7961103873998057	0.9708134926131569	0.0986072072326106	-0.09904818080348865	0.9901848698911249	0.9864006283885258	0.14120949155350151	-0.08410517112474342	-0.13149303782522392	0.9850123539198483	0.11162546138212928
399														9.716522045950496	-0.8197285228424525	0.9159694832625039	0.09845291176610838	-0.09880691142122483	0.9902243273219322	0.9863778981147278	0.14145708147280125	-0.08395556093534817	-0.13177885367367015	0.9850010600789196	0.1113878151678088
400														9.76928059329161	-0.7821290182972817	0.8620925522999807	0.09818891753795511	-0.09847296906466912	0.9902838031778125	0.9864063033510022	0.14138356935411292	-0.08374539405901965	-0.13176320116836254	0.9850450551524426	0.11101665702761068
401														9.800322703421601	-0.7713933372309626	0.8713070337610875	0.09797832694087164	-0.09795778498259028	0.99035575416674	0.9863834859295497	0.14164325136820688	-0.08357516393829617	-0.1320903710924372	0.9850591158418605	0.11050191021658695
402														9.778764528624938	-0.7747201749234555	0.8748974811877779	0.09780366488251732	-0.097377083223669	0.9904302836638219	0.9863212914751299	0.14216663147716577	-0.08342037447331202	-0.13268290439382197	0.9850412948487421	0.10994950806771944
403														9.721180154826842	-0.785181467409673	0.9189314192639545	0.09766867173877417	-0.09683935976017205	0.9904963245575543	0.9862904259269178	0.1424344904481073	-0.08332833645097998	-0.13301137652728523	0.9850556097662855	0.10942312087620587
404														9.688133416053152	-0.7636124987103587	0.9753067696266584	0.09750753973193871	-0.09625850726824925	0.9905688161222893	0.9862572948472205	0.14273087085134578	-0.08321326136295998	-0.1333747654395997	0.9850696413373554	0.10885299104492674
405														9.66113277095813	-0.7657282483326908	1.033200102512117	0.0973857191499243	-0.09574311120680595	0.9906307477370637	0.9862336881971359	0.14293725028081497	-0.08313876801610176	-0.133638070813401	0.9850899446946972	0.10834512859686665
406														9.623467577670974	-0.7985773036875956	1.0473568390402075	0.0972681423662608	-0.09521293483204424	0.9906933963246578	0.9862097257112434	0.14314187406097414	-0.08307093837718316	-0.13390028152759942	0.9851116185138519	0.10782306652960907
407														9.557666658677961	-0.8131421594887422	1.0690786577322784	0.09718350728330505	-0.09469547632715902	0.9907512970848376	0.9861982526300244	0.14323503042403798	-0.08304656867632432	-0.13404615780246115	0.985147954787806	0.10730859590825101
408														9.548150608029813	-0.8646507719885977	1.076036072739046	0.09703554555674729	-0.09428120665988843	0.990805307297685	0.9862262934913697	0.143085300591412	-0.08297165046532518	-0.13394700789782227	0.9852094451564198	0.10686696519411448
409														9.540336273458152	-0.8669021282087519	1.049313504506332	0.09690499022914698	-0.09390990141161559	0.9908533460031057	0.9862019423949389	0.14331343191299173	-0.08286729783075353	-0.134220533768643	0.9852117491433919	0.10650191390148644
410														9.518687910818674	-0.8707988229067323	1.054939393792362	0.09681617355437994	-0.09355033232144427	0.9908960408947227	0.9861370536360153	0.1438130928360527	-0.08277382300587482	-0.13476030567035385	0.9851731470414107	0.10617688243754658
411														9.586158714179952	-0.8760496861816347	1.0808915869061542	0.09670942518410136	-0.0932804439496342	0.9909319077803078	0.9861002420197957	0.14412439203389268	-0.08267086735580947	-0.13510588354717096	0.9851532461487507	0.10592205546305403
412														9.574537494003032	-0.8275558467353499	1.0754138698068114	0.09660532933757829	-0.09291863421493535	0.9909760530705114	0.9860219821141094	0.144726630955088	-0.08255212341395368	-0.13574999495889828	0.9850991471461239	0.10560117973128083
413														9.624531100889355	-0.8180513611841332	0.9998514473305553	0.0964876995018234	-0.09252484678086659	0.9910243572047177	0.9859841257830797	0.14503916786484697	-0.08245570622370324	-0.1361081465182108	0.985090245872555	0.10522252581138394
414														9.733959436622094	-0.8401079689465029	0.9853223283337116	0.09632625111788229	-0.09210699448229703	0.9910789852040105	0.9859846937733783	0.14509743271740022	-0.08234633363687577	-0.1362183430753392	0.9851208233441502	0.10479277848951024
415														9.72526478600828	-0.820629381835134	0.9029772742512332	0.09620023363721694	-0.09172543781299913	0.991126611037237	0.9859523347955798	0.1453750737001318	-0.082244036001562	-0.13654123391594886	0.9851154917088123	0.1044220256268536
416														9.720520524854209	-0.8171282143121741	0.9535123064898545	0.09601919930442371	-0.09130685685240364	0.991182814246026	0.9858956381061201	0.14585667555627976	-0.08207082891622575	-0.13707700072683093	0.985083188409692	0.1040240731000838
417														9.711820691121412	-0.7969877396512223	0.8709134603636239	0.09578738240272788	-0.09084447409609347	0.991247728319535	0.9858685069761193	0.14615074717227242	-0.08187335374629007	-0.13743385436315247	0.985082352205739	0.10356010355198123
418														9.754209233173636	-0.8115545214663372	0.8267956155472068	0.09550155292812501	-0.09033081805082677	0.9913222466476707	0.9858385306233542	0.1464916256663572	-0.08162472142686866	-0.13784717961098292	0.9850789546629735	0.10304177867933528
419														9.748795793283143	-0.7852662820716998	0.8204843725453903	0.09521194651088075	-0.08986466183330533	0.9913924691035305	0.9858090622188204	0.14683345460838054	-0.08136602150172056	-0.13825765110423	0.9850706975447773	0.10256969703468305
420														9.760357633135278	-0.7516104655196832	0.8592862390071988	0.0948711858438066	-0.08931914567732863	0.9914744314968804	0.9857718793360419	0.1472517344639763	-0.08106003088846558	-0.1387561170070648	0.9850578749052378	0.10201824876118468
421														9.758409495504905	-0.7194833506090704	0.9292984235211931	0.0945735864611836	-0.0887595694781525	0.9915531128335602	0.9857418542911378	0.14759108887293507	-0.08080759360339629	-0.13917195637965035	0.9850576680130738	0.10145224120790183
422														9.743584611070274	-0.6752718372104363	0.8433931160692112	0.09426472242298337	-0.08813355381235205	0.9916383608952024	0.985746196273191	0.14768722305582524	-0.0805786614371014	-0.1393506320023486	0.9850994674846112	0.10079901052134319
423														9.79303855330744	-0.73520292504285	0.8554015140747636	0.09404943261770193	-0.08762433785535279	0.9917039274096375	0.9857319070534418	0.14787024660434092	-0.08041764474265944	-0.139596961432094	0.9851174374583889	0.10028121845262991
424														9.769028603373663	-0.7656451378361185	0.8393438175027937	0.09385626330868402	-0.08733104611507259	0.9917480981691762	0.9857168566450264	0.1480629351086242	-0.08024740352726523	-0.1398330446052698	0.9851145393462967	0.09998031808788285
425														9.72641974244444	-0.795579900406345	0.9106121913862979	0.09369252899425023	-0.08706154956729634	0.9917872738635051	0.9856890971966279	0.14832964140359847	-0.08009569993936555	-0.14013819493042778	0.9850982712745067	0.09971299942144116
426														9.691217455689106	-0.8005631007225418	0.9492156739924397	0.09355298813313892	-0.08683895582517709	0.9918199605586462	0.9856472330925233	0.14868458692023476	-0.07995264541847885	-0.14052533689130442	0.9850644087386129	0.09950246392945897
427														9.692641054137622	-0.820475378070975	1.003413095374823	0.0934167081526334	-0.08671372018029594	0.9918437625807903	0.9856297262180305	0.14887401020380828	-0.07981586234080873	-0.14073862807806625	0.9850468312818075	0.09937494024337326
428														9.640271308869492	-0.8326266364787603	0.9980300668739951	0.09327095138028624	-0.08662403711505068	0.9918653163723927	0.985608969832849	0.1490938937639485	-0.07966159317597565	-0.14098045330345094	0.9850214652667193	0.09928355730008243
429														9.651483912456678	-0.8000363915776393	1.0411040338513255	0.09314651729963758	-0.0865994832825866	0.9918791538338416	0.9855823168104872	0.14934766090125662	-0.07951586617648121	-0.14124879859815137	0.9849851804359864	0.099262133848042
430														9.689624415015146	-0.7642736351257066	1.0212306679018859	0.09297454644081826	-0.08663025725605927	0.9918926011629853	0.9855759100159718	0.14949074444674665	-0.07932618055186114	-0.1414067159307263	0.9849607686870104	0.09927952879209495
431														9.681178298190016	-0.7658546824564985	0.9992321875694288	0.09283806981029644	-0.0867430757026681	0.9918955245445664	0.9855574327982128	0.14970423935817903	-0.07915293661252182	-0.1416249958520579	0.9849184126291024	0.0993885356269745
432														9.667727365362273	-0.7651842466315057	1.0322021686849219	0.09265713228059375	-0.08688206005846916	0.9919002789986168	0.9855441944316778	0.1499075059831457	-0.07893275918101977	-0.141835456284923	0.9848752445309559	0.09951610950262282
433														9.64571145714095	-0.7678998739180436	1.0429410343284047	0.09248412001477702	-0.08706838399441197	0.9919000877375173	0.9855212193554548	0.15017705827867997	-0.07870690799987018	-0.14210775399403935	0.9848177230713124	0.09969673304279345
434														9.65197723661562	-0.7188955129983192	0.9553598462284575	0.09228875554327351	-0.08725330170818107	0.9919020349516858	0.9855275331862317	0.15025520994468256	-0.07847836145295506	-0.142190952356805	0.9847894359839066	0.09985739753450573
435														9.656984762784147	-0.718584414212745	0.902597046723614	0.0921201501262803	-0.08745284568547157	0.9919001349542325	0.9855065721929801	0.1505081878638518	-0.07825651123313676	-0.1424453372531167	0.9847331035196554	0.10005019104126309
436														9.642314432859433	-0.6961319095049333	0.8806368111992869	0.09193270943535942	-0.08769907260094756	0.9918957856553319	0.9854703545791302	0.15087954653842764	-0.07799706841954002	-0.14281651578706756	0.984654373423128	0.10029560168397264
437														9.651950460266352	-0.7113167659369198	0.9612848720711978	0.09178093087298902	-0.08791278640092964	0.9918909227910662	0.9854477043631085	0.15113445088242652	-0.07778945765299689	-0.14307020197639897	0.9845962216785582	0.1005047141319276
438														9.716959533183553	-0.6722662502974951	0.8794027814935397	0.09160590643694108	-0.08805496663965312	0.991894490737778	0.9854587434554918	0.15116395829365187	-0.0775920270396282	-0.14310633407711104	0.9845789864521204	0.10062204819981369
439														9.731653036516198	-0.6901190902821039	0.9047111017700631	0.09148967005704856	-0.08821849181544977	0.9918906885209983	0.9854503490443454	0.15129693096267782	-0.07743931979074198	-0.14323843702453087	0.984543923033951	0.10077704984612013
440														9.752545581397367	-0.6620133577770887	0.8411411270936887	0.09138563281013584	-0.08838449904857415	0.9918855006722418	0.9854597848135843	0.15130080799541595	-0.07731156456248056	-0.14323993378613142	0.9845284383032656	0.1009260894966103
441														9.74275863681399	-0.7130314764414679	0.8549912637665377	0.0913382214640078	-0.08857589165132701	0.9918727946253814	0.985460114552213	0.15133883648373264	-0.07723288935737821	-0.14326790263883543	0.9845053925651817	0.10111102849613762
442														9.729180501017296	-0.7134354022906093	0.8880282918434675	0.0912748752046525	-0.08864275283147444	0.9918726528777942	0.9854404515977235	0.15151292805631347	-0.07714239422442987	-0.1434434157124337	0.9844725973851485	0.101181477981345
443														9.740418644787633	-0.7383570237323703	0.8355356483979596	0.09122111390847629	-0.08861763400904293	0.9918798431866315	0.9854362661140652	0.15156837410213184	-0.07708692106450987	-0.14350635457869643	0.9844663239109178	0.10115326628862706
444														9.722305622103143	-0.793517518086962	0.8246498394330911	0.09114004921317614	-0.08857162232284138	0.9918914049171519	0.9854659748374062	0.1514041108111467	-0.0770299141064571	-0.14335377172290237	0.9844957404420739	0.10108329824571446
445														9.718589039858493	-0.7416562131400058	0.8438671908367785	0.0910728253888613	-0.08860672009181653	0.9918944448026018	0.9854496965880084	0.1515543783185882	-0.0769426143763614	-0.1435083132445406	0.9844694609621154	0.10111995086366538
446														9.695386185987603	-0.7943055970944332	0.8882821681405916	0.09101245819547449	-0.08865954558210526	0.9918952653533497	0.9854336597854061	0.15170051780787777	-0.07685997045772541	-0.14365665531104949	0.9844421963091569	0.10117473751310627
447														9.66685301063897	-0.7180858712312386	0.9926291604125018	0.09099035686955345	-0.08868532949503394	0.9918949880350787	0.9854005618390299	0.15194085435013358	-0.07680956650493609	-0.14389749019380432	0.984402808362364	0.10121572607166948
448														9.620518953472825	-0.6849009654747624	0.8998522229672894	0.09091614412601454	-0.0887942195784932	0.9918920512367788	0.9853966551716533	0.15201527831064904	-0.07671236625638944	-0.14397113152912383	0.9843815021268852	0.1013181699234717
449														9.641285234288908	-0.7275634585370055	0.9268756288251745	0.09095553448013594	-0.08893645265905836	0.9918756969176408	0.9853627372199785	0.1522372014864663	-0.07670795644468925	-0.14417824678426383	0.9843343648740461	0.10148148245972649
450														9.633795440209663	-0.7521807417926974	0.9616227038251667	0.09098398350479761	-0.08902456289942684	0.9918651833521352	0.9853002145178866	0.15265525333453994	-0.07668025104532628	-0.14458700500600163	0.9842616526259335	0.10160510397347683
451														9.627554469463375	-0.7283406889223571	0.9609698658272353	0.09102368978295772	-0.0890670280106915	0.991857727912445	0.9852717212439628	0.1528314993426505	-0.07669529402535291	-0.14475608179020938	0.9842304594605977	0.1016665109794081
452														9.65850693247262	-0.77628523532606	0.8781489846551543	0.09103327112111709	-0.08898325469031287	0.9918643677104793	0.9852379107978331	0.15304969263746293	-0.07669452855517178	-0.144980007848362	0.9842041312493551	0.10160229011194505
453														9.682884130008398	-0.7436497339454987	0.8900129701924254	0.09107030591312756	-0.0890277527220667	0.9918569748840547	0.98520745549709	0.15324031772842994	-0.07670511492358051	-0.14516359396845768	0.9841704447237525	0.10166644834168442
454														9.636426930636102	-0.7808927580317216	0.888180132315743	0.09106776773302827	-0.0891447417962905	0.9918467001962528	0.9851918609122619	0.1533563797472194	-0.07667345031404604	-0.1452709842754467	0.9841417762705222	0.1017904972320284
455														9.621312408836564	-0.7035449555844427	0.9610162417531967	0.09108273476080242	-0.0891792624241527	0.99184222262514	0.9851589935147362	0.15357370986515687	-0.0766607665972931	-0.1454843391074288	0.9841047580373428	0.10184366589404534
456														9.65696661770846	-0.6964566906589769	0.9199689349488667	0.09104581242418355	-0.08908367845533965	0.9918542021249327	0.9851182949381367	0.1538606133911895	-0.07660846314256603	-0.1457827322360209	0.9840686001899224	0.10176632597302548
457														9.659466711094717	-0.6684167846078983	0.9395811725151952	0.09099761449099375	-0.08888684560417809	0.9918762840372222	0.9850913102359975	0.1540525381071863	-0.07656974598534505	-0.14599501585490798	0.984056372461087	0.10158007267300154
458														9.728501126868084	-0.6820122025528128	0.8353700939021416	0.09093671060363981	-0.08874502138938584	0.9918945689150576	0.9850455754919647	0.15438112856305955	-0.0764962832254002	-0.1463411386736293	0.9840176768342093	0.10145680267735654
459														9.756795291106512	-0.6997210039978495	0.8274792594969047	0.09092685796511843	-0.08877760437818744	0.9918925564099478	0.9850198589999712	0.1545615585647533	-0.07646307598907692	-0.1465202507378015	0.9839864133080825	0.10150150022944204
460														9.754422036218985	-0.7264327151495871	0.8077135592237884	0.0909196390829802	-0.08896468962570908	0.9918764556278272	0.9849975331922072	0.15472956090753906	-0.07641088002782265	-0.14667473822811744	0.9839431116589823	0.10169795565571524
461														9.754320576685716	-0.7257272143502143	0.8095708375251649	0.09092283740979826	-0.08913043367157159	0.9918612823529654	0.9849611672469135	0.15498442141109836	-0.07636313335284906	-0.14691676777328488	0.9838879991713411	0.10188163933538763
462														9.756553042072644	-0.6977024528164347	0.8320276020107096	0.09090039987416937	-0.08927683238714795	0.9918501724059102	0.9849768494359212	0.15490220487567075	-0.07632766863951057	-0.14682548613235824	0.983887673529643	0.10201628545690072
463														9.778541531775026	-0.6920337075860017	0.823949309614252	0.09091079383783898	-0.08935393713505224	0.9918422765148899	0.9849503213213298	0.15508044149141745	-0.07630806769822163	-0.14699691184777752	0.9838525959640968	0.1021076751372029
464														9.757567810257052	-0.7178954624437701	0.8897762713503407	0.09093554763060044	-0.08939704921733832	0.9918361224357356	0.9849179780717572	0.15528734272273803	-0.07630476827271271	-0.14719817474467634	0.9838160441776418	0.10216990051131514
465														9.740571674026315	-0.7252643002643421	0.8451635286928914	0.09095037722640797	-0.08944341279184631	0.9918305827057976	0.9849082475581487	0.15534830803479593	-0.07630627158145659	-0.1472541095328444	0.9838022052724185	0.10222254216568644
466														9.673317614296908	-0.7194767013166318	0.8170384271886968	0.09096927170051489	-0.08945713018804902	0.9918276127759282	0.9849097126782705	0.15532986066891763	-0.07632491242432965	-0.14723263727273533	0.983803870821361	0.10223744068892787
467														9.642734264480996	-0.7284366976632168	0.8042993870893382	0.09102110854489168	-0.08956211494228838	0.991813382328714	0.9848978085404648	0.15539081527622228	-0.07635444492615634	-0.14728022450909528	0.9837846929561649	0.10235337499904529
468														9.61320955003584	-0.7584400847505467	0.8479441250885047	0.09106945497938801	-0.08971879959430773	0.9917947828906515	0.9849174604219172	0.15524665827287099	-0.07639418335939246	-0.14711883130924908	0.9837931754665021	0.10250384080481012
469														9.604638594417798	-0.762019390476512	0.8266651312309388	0.0910840934432143	-0.08986483756609476	0.9917802170293817	0.9849020951131743	0.1553530836649141	-0.07637592839031437	-0.14721260463461688	0.9837630458423522	0.10265826158507838
470														9.620469465337107	-0.7328423024244272	0.8167127034414841	0.09105560647474684	-0.08984039068246225	0.9917850476446695	0.9848661650228039	0.1556057354110822	-0.07632491140153436	-0.14747038184934574	0.9837253474975622	0.10264953564439211
471														9.640224795942155	-0.7545480055526823	0.7871530433132604	0.09104650512373114	-0.08991137367823554	0.9917794506784496	0.9848508308971333	0.15571811656192294	-0.07629357152233313	-0.147578368286075	0.9837010791178893	0.10272688137152583
472														9.653848802729987	-0.7525670869724307	0.7554688909153157	0.09100062922298865	-0.0898077854814901	0.991793046531347	0.9847971606651755	0.15609090188000532	-0.07622455441716225	-0.14796431267987742	0.9836514586057385	0.10264682243486292
473														9.64889389473358	-0.7492283143845249	0.8087679115437797	0.09093433202014065	-0.08966991695752707	0.9918116016930238	0.9847785661679254	0.1562376954531634	-0.07616402126811594	-0.14812873750996558	0.9836407314219532	0.10251238272223007
474														9.682445415737144	-0.7692650410894458	0.745008482934024	0.09082715808622446	-0.08940996313076405	0.9918448900140263	0.9847697106926168	0.15633112393750329	-0.07608677014315574	-0.1482533111143235	0.9836495504911253	0.10224733523298876
