// Start Time: 1748342924.2155054
// Update Rate: 100Hz 
// Filter Profile: 46.1 human
// Option Flags: AHS Disabled ICC Disabled 
// Firmware Version: 4.0.2 
PacketCounter	SampleTimeFine	Year	Month	Day	Second	UTC_Nano	UTC_Year	UTC_Month	UTC_Day	UTC_Hour	UTC_Minute	UTC_Second	UTC_Valid	Acc_X	Acc_Y	Acc_Z	Mat[1][1]	Mat[2][1]	Mat[3][1]	Mat[1][2]	Mat[2][2]	Mat[3][2]	Mat[1][3]	Mat[2][3]	Mat[3][3]
0														9.482546189304237	-1.9333357051645026	1.3100866301002059	0.16590922940836367	-0.15379586910532672	0.9740744110401729	0.9758014945886511	-0.11705833952833566	-0.18468564726427256	0.14242742276569276	0.9811443195539613	0.13065318002756965
1														9.525127775514285	-1.9080876570826943	1.3129976774593999	0.1659247379374139	-0.15398613319684756	0.9740417096426023	0.9758416145590467	-0.1167253257098809	-0.18468443798196854	0.14213417827951835	0.9811541515587676	0.13089845775944484
2														9.481796406838454	-1.8266570506059148	1.2717190169471757	0.1659273874543416	-0.15407672468610628	0.974026932380506	0.9758806467034429	-0.11643497930174457	-0.1846614713053933	0.14186284038551839	0.9811744281752375	0.1310407418047868
3														9.419264850915114	-1.8687539937118536	1.3386059639021868	0.16603158688602232	-0.15407024992846446	0.9740102002767168	0.9758951446805366	-0.11619908648592142	-0.18473342656052288	0.14164102070044526	0.9812034092821009	0.1310636901209416
4														9.445364743607229	-1.9139893743105714	1.3505456469394825	0.16605451854544456	-0.1539107955907708	0.9740315004512213	0.9759426777422371	-0.11586945700736517	-0.18468935728441788	0.141286186982145	0.981267413059985	0.13096746708481488
5														9.450000540699426	-1.870495814174008	1.354114522913879	0.16595963643643036	-0.15367173569868298	0.9740854155161354	0.9760339730770582	-0.11540461269032323	-0.1844978557306533	0.14076605582774682	0.9813596552829909	0.13083632717846008
6														9.47165947063483	-1.8569240683785537	1.3541811625434552	0.16602155614764597	-0.15348124030205934	0.9741048977238828	0.9760911954134355	-0.11495918069097125	-0.1844732094674772	0.14029547794096986	0.9814417433807279	0.13072598524820037
7														9.459617256687297	-1.78804173636911	1.3955207796245492	0.16608557038858046	-0.15334305626017009	0.9741157479506684	0.9761263364213102	-0.11465432561426916	-0.18447699304424953	0.1399748500746147	0.9814990029107147	0.13063976665572288
8														9.502179763080887	-1.7641238134039492	1.3964847319548996	0.16624225764353412	-0.15324149173451723	0.9741050030589928	0.9760859834050781	-0.11474834020596436	-0.18463198915712697	0.14007021372769457	0.9815038785613411	0.13050084902145953
9														9.515073894563816	-1.836257356564909	1.3878976243270436	0.16625217626768019	-0.15323453206965953	0.9741044051166453	0.976052066474183	-0.11497396574867663	-0.1846709255175269	0.14029460936806537	0.9814785608363614	0.13045020966195237
10														9.518084903533003	-1.884079884854417	1.2953462205213147	0.16630533445062334	-0.15318040474172756	0.9741038442262855	0.9760154610795035	-0.11516967079772758	-0.18474243330136075	0.14048613976841612	0.9814640648192394	0.1303531127417579
11														9.564885876041565	-1.817395578341061	1.3014831179679454	0.16628038917082993	-0.1531751381884477	0.9741089308789588	0.9760104836749892	-0.11523847688173153	-0.18472582169933116	0.14055023277715267	0.9814568103013649	0.13033864192694203
12														9.53563183787675	-1.8147685095590043	1.3200057297941914	0.16621113316072827	-0.15316786485146222	0.9741218940103287	0.9760343388666497	-0.11516494286869974	-0.18464562081779906	0.1404664677656841	0.9814665766651927	0.1303554000513162
13														9.548273668430314	-1.8808345805381763	1.2783987006343815	0.16619648572770307	-0.15319168168302888	0.9741206479666097	0.976050001818774	-0.11507035711361469	-0.18462179411791335	0.1403749339495245	0.9814739535906551	0.13039845222162683
14														9.540447777701713	-1.8653425558705095	1.2976028275958569	0.16606170909948303	-0.15315205087097	0.9741498642842259	0.9760871929523012	-0.11499632396877171	-0.18447123685866917	0.1402758016389734	0.9814888154165009	0.13039326933112108
15														9.515408159066677	-1.917321735177814	1.2926907908133274	0.16594421840193957	-0.15312143662061578	0.9741746978987949	0.9761265251832392	-0.1148824703103134	-0.18433400350747947	0.14014108324351165	0.9815069249183315	0.1304018141158183
16														9.444285939725873	-1.9431878151810529	1.3426308873612494	0.1660676334763796	-0.15295060738639682	0.9741805031982972	0.9761126318517126	-0.11484849815737	-0.18442871905026004	0.14009165232474785	0.9815375357932723	0.13022440162194307
17														9.519994240873801	-1.8747591461662636	1.2948386424987783	0.1661967862806627	-0.15275222819656814	0.9741896042408597	0.9760620164350406	-0.1150691979140411	-0.1845589872213787	0.14029101290796053	0.9815425800607951	0.12997151697528073
18														9.44433404139614	-1.8426874155520039	1.331893301441293	0.16626861371459817	-0.15248951573113012	0.9742185051031985	0.9760178219606654	-0.1153327925680282	-0.18462816191908155	0.14051319976637122	0.9815524919995595	0.12965626147961484
19														9.462406838560081	-1.972075756087334	1.3331516458410786	0.16620427952965156	-0.15235561267393544	0.9742504322569119	0.9760064023461685	-0.11552299867099602	-0.18456960572464381	0.1406685467519973	0.9815509177138042	0.12949963663991615
20														9.495874030638282	-1.9261232182639971	1.2842018369503483	0.16612906178978487	-0.152294791873345	0.97427277042782	0.9760082506665779	-0.1156210096776216	-0.1844984464755544	0.14074455392522828	0.9815488161519943	0.12943296354100312
21														9.471404499386004	-1.982184605470869	1.3133591757476568	0.16607440211212232	-0.15234977484366707	0.9742734929516378	0.97602253815535	-0.11558313202494139	-0.1844465901124046	0.14070997823853693	0.9815447446226733	0.12950141438502336
22														9.492175562515747	-2.0620837693658856	1.253217020752374	0.16605406844878162	-0.15240363343819752	0.9742685352952969	0.9760476775002458	-0.11542434335217305	-0.18441299359886731	0.14055951621282553	0.9815550689984517	0.12958653064829412
23														9.46156422671457	-1.956088256473926	1.231378788060468	0.1661036225015558	-0.15252304884241807	0.9742414003539752	0.9760836956675367	-0.1150843584116002	-0.18443483808921435	0.14025051031588082	0.9815764412519304	0.12975933236315346
24														9.453782928575041	-1.9460349696812347	1.286246154736659	0.1661862123453821	-0.15261666156049947	0.9742126551428203	0.9761189010639081	-0.1147103573332594	-0.18448150288379694	0.13990723287980505	0.9816056685526036	0.1299087281644774
25														9.403001695569822	-1.8599863044293905	1.3317792022522132	0.1663911979539257	-0.1525962710780106	0.9741808596439081	0.9761230192742623	-0.11441255698158365	-0.18464457221330344	0.1396345963089214	0.9816435936010697	0.1299154904375241
26														9.51258974387972	-1.8512620990567925	1.278700516000721	0.16653871539457488	-0.15251138732562725	0.9741689447989694	0.9761228074939441	-0.11423339059991353	-0.18475658895473424	0.13946010528056346	0.9816776503557878	0.12984556144541123
27														9.5002332014099	-1.8800361022765906	1.2930755224816706	0.16683592293680805	-0.15255587265115844	0.9741111233003488	0.9761051247027399	-0.11395211512960665	-0.18502351468539846	0.1392284466151672	0.9817034283209634	0.1298992628000449
28														9.533878897251983	-1.9359192708935984	1.2518047118942655	0.1669619708211097	-0.15243996743519495	0.9741076719890304	0.9761321780956805	-0.11361408519008795	-0.18508865587226797	0.13888726070347246	0.9817606103194285	0.12983232586497692
29														9.499807776237308	-1.876002128973018	1.2582616735197307	0.1671330631209073	-0.15226560623477525	0.9741056022679365	0.976143588516675	-0.11333637124965593	-0.18519870828315327	0.13860098776564012	0.9818197655934193	0.1296908403877172
30														9.466946000916929	-1.8232903305158632	1.3329828988932468	0.1673100773665548	-0.1520697323090866	0.9741058127980965	0.9761675054666584	-0.11296515542848876	-0.18529941966994573	0.13821844769276914	0.9818929015806459	0.1295453223506782
31														9.441200489081632	-1.7770173333580064	1.319323628946554	0.16763598589099044	-0.15182974122586945	0.9740872167899757	0.9761337333688332	-0.11280989427083268	-0.18557171749495427	0.13806198178274592	0.981947889367806	0.1292951342948823
32														9.505590487610597	-1.7447535150599058	1.3547288051008235	0.16780553390778447	-0.15168514761933927	0.9740805504585455	0.9761213117201049	-0.11269591906400325	-0.18570625900098792	0.13794378418669612	0.981983322576315	0.12915210639488364
33														9.480901892231596	-1.8026406705174138	1.3830129825956547	0.16804496380356287	-0.15167357438753204	0.9740410756086052	0.976096307006686	-0.11255092087128019	-0.18592549491378485	0.13782920440954538	0.9820017398373265	0.129134400406302
34														9.489186172290841	-1.8159645636280366	1.363579564967403	0.16812927218516405	-0.15162071706611568	0.9740347560486969	0.9760860584627096	-0.11251934543538344	-0.1859983961692288	0.13779896338223863	0.9820135208127994	0.1290770724475525
35														9.470977153382572	-1.7785496495270108	1.2983900881456216	0.16815927262780922	-0.1516716019988772	0.9740216548806193	0.9760845621089022	-0.11247945906031306	-0.18603037091338587	0.13777295323088162	0.982010232348214	0.129129845200278
36														9.471668950471953	-1.781149066213084	1.3333792215969715	0.16816958050457503	-0.1517091413709865	0.9740140289633373	0.9760885808538082	-0.11242960525363205	-0.1860394210626088	0.13773189361841165	0.982010142659937	0.12917432095155773
37														9.449896284941843	-1.789043714879749	1.2987064848823746	0.16832051619170924	-0.15176828464336306	0.9739787428919418	0.9760891208849685	-0.11220868539645495	-0.18616991972821062	0.13754356371333976	0.9820262718980638	0.12925234768863553
38														9.391737341222465	-1.7897603703313774	1.3689020113519688	0.1683849998715095	-0.1516582285043993	0.9739847398933816	0.9760988304483127	-0.11207230341648702	-0.18620116005105392	0.13739565137116633	0.9820588477957058	0.1291621246746222
39														9.485761316329114	-1.7570954828702534	1.3869673060461574	0.16831329808485762	-0.15153473815338958	0.9740163534667072	0.9761220795272258	-0.11202765896709388	-0.18610612425655632	0.13731831468250005	0.9820830040068591	0.12906065896942298
40														9.489702541880506	-1.7103110692449255	1.3556042132989328	0.16827005808858514	-0.15139248089203905	0.9740459456720806	0.9761074164826156	-0.11221869256993072	-0.1860679352428275	0.1374754488572335	0.9820831338370745	0.12889227748105464
41														9.515310369083364	-1.8489222920199513	1.3058383940834912	0.16834468760621119	-0.15141333233926746	0.9740298090637095	0.9760385024741403	-0.11260455835438613	-0.18619628118158543	0.13787279587650902	0.9820357509926678	0.1288288629518334
42														9.545560117237056	-1.8518994065309766	1.3231066674461263	0.16821917555843852	-0.15150780946010645	0.9740368025116087	0.976051002286009	-0.11266829780201126	-0.1860921696549156	0.13793748551759155	0.9820138687121465	0.12892638110986765
43														9.477300477338698	-1.8276884357173604	1.3111082930056643	0.1681203753701021	-0.1516174419488454	0.9740368015030564	0.9760523438749702	-0.11277211126342099	-0.1860222377495968	0.13804840238696314	0.9819850315651859	0.12902726990961252
44														9.490346840583175	-1.8008143441850675	1.3324002431621298	0.16805885368562584	-0.15165584871803534	0.9740414391839216	0.9760619348979331	-0.11278011802961274	-0.18596705143796083	0.13805549949631102	0.9819781812885857	0.1290718037837275
45														9.472931407357743	-1.765933718485242	1.3013503671687867	0.16793620695056355	-0.15155093572245004	0.9740789209692956	0.9760511823496536	-0.11304293233264573	-0.18586388805650234	0.13828058370176433	0.981964158883249	0.12893746871958
46														9.431660312546422	-1.7920009846579272	1.3324404276878146	0.16784795670848807	-0.1513460338301605	0.9741259885008029	0.9760159033961002	-0.11345162275125364	-0.18580012274754465	0.13863628582258292	0.9819486276475914	0.12867351287010065
47														9.483133661505628	-1.87584742617427	1.2856781832736854	0.1676624864938157	-0.15119096902849538	0.9741820063555553	0.9759968109741901	-0.11386636568112601	-0.18564664213171894	0.13899466029643565	0.981924509140492	0.12847078562179742
48														9.504498276267975	-1.8574832847592773	1.2502893723905903	0.16742648598023546	-0.15105214487377316	0.9742441281944391	0.9759930966309307	-0.11423618693588322	-0.18543885494447132	0.13930487113190548	0.9819029193985435	0.12829968727764163
49														9.523793380358374	-1.9882184290639897	1.287287555611004	0.16732143556448648	-0.1508905844000159	0.9742872106006839	0.9759719594689107	-0.11455653485626505	-0.185352460604494	0.1395789079017835	0.9818904378092024	0.12809721545684916
50														9.541400470325776	-2.015429012377962	1.284516636172291	0.16722152996065898	-0.1509777665474818	0.9742908569446556	0.9760187622769565	-0.11434422761848495	-0.18523707321616478	0.1393712151090573	0.9819017830815193	0.12823631615247955
51														9.481151552286477	-1.9076758850289064	1.281039780939041	0.1671223682245347	-0.15108096860543357	0.9742918736006513	0.9760938705082711	-0.11392764668236213	-0.1850979396903213	0.1389635563563555	0.9819343319421433	0.12842934928641184
52														9.480535848763846	-1.902976645790368	1.2484341688257643	0.16716014419116348	-0.15114851584772354	0.9742749162074433	0.9761263696017932	-0.11363417715319299	-0.18510695381519582	0.13868956976648872	0.9819579420421977	0.1285449466071654
53														9.416827305156858	-1.8415326464988784	1.273920747679888	0.1672384473377141	-0.15117689580295912	0.9742570748562481	0.9761279557501703	-0.11351215466574133	-0.18517344503501454	0.1385839663708085	0.9819676862904009	0.1285843977565418
54														9.446656753359727	-1.8414183901590966	1.254751049706451	0.16721234028061105	-0.15091486173931895	0.9743021799031777	0.9761141312975188	-0.11369500311598055	-0.18513413771573256	0.13871278217659616	0.9819868383907495	0.128298921617326
55														9.406956703924616	-1.8745004509504368	1.3529270154922333	0.167130402881844	-0.15056533271148875	0.9743703141095947	0.9761105911425646	-0.11389658781580944	-0.18502886570270055	0.13883638677185778	0.9820171321669462	0.12793283331006464
56														9.553092600841888	-1.9298856376331068	1.3575355659701918	0.1670493149746683	-0.15010974317542858	0.9744545096464486	0.9760958524353303	-0.11419605178248673	-0.18492200684568988	0.13903745259835498	0.9820520998201157	0.1274451255005923
57														9.614141512270304	-1.9366328389683187	1.3872988393984076	0.1668484657429125	-0.14998036957989275	0.9745088394775672	0.9761179685622641	-0.1143334043023243	-0.184720286136959	0.13912332992390225	0.9820558850703558	0.12732218058753564
58														9.634398400881723	-1.9155257012454232	1.3193042713034715	0.16679074835180913	-0.1500687679543875	0.9745051108890583	0.9761032114845487	-0.114497924909505	-0.1846963608763525	0.13929596833287738	0.9820232125953385	0.1273854117634216
59														9.575094084715017	-2.0058533295885392	1.296060165749047	0.16683517359175187	-0.15047506508132613	0.9744348514094623	0.9760708236667225	-0.11458973343658621	-0.1848105521270308	0.1394696097333606	0.9819503285704948	0.12775672264550822
60														9.48443332390182	-1.9916422323717793	1.251210739693874	0.16685639892659448	-0.15086720341947668	0.9743705809750394	0.9760829967655702	-0.11440125128669265	-0.18486302261183346	0.139358980917605	0.981912134886022	0.1281703312049296
61														9.4119343838086	-1.9175194647744431	1.2983311714186188	0.1669411500464334	-0.15104249348393822	0.974328906264886	0.9760966877243904	-0.11415805133638668	-0.18494105960698148	0.13916144809051245	0.9819134913408786	0.1283744012181487
62														9.449937765692471	-1.837455543550842	1.3241888523596503	0.16699447915632132	-0.1509184711047818	0.9743389856773179	0.9761177979151499	-0.11396104216211855	-0.18495114344767766	0.1389492300251733	0.981955444991635	0.12828334079954606
63														9.46323593440435	-1.8111375856692178	1.3423254359690449	0.16705209588561792	-0.1506232672258634	0.974374788585187	0.9761011220481981	-0.11405762797562471	-0.18497961248965317	0.1389971107486429	0.9819895563959831	0.12796997434066074
64														9.535984361876306	-1.8836163988526646	1.2959745071931752	0.1670677037520753	-0.1503314220729629	0.9744171826792305	0.976072475856835	-0.11429436221215541	-0.18498464974484896	0.1391793958807001	0.9820067526774124	0.12763946669524298
65														9.579831818186664	-1.9587384642977725	1.302511797487611	0.16711131754415398	-0.15019357283170176	0.9744309612428712	0.9760537439583353	-0.11439425560408178	-0.18502173707352604	0.13925838019154863	0.9820162142066886	0.1274804243073806
66														9.516127775782213	-1.8975449149953147	1.3271812993398606	0.16714052826324494	-0.1503027705510066	0.9744091137589873	0.9760385682443932	-0.11444139778944717	-0.18507263377234562	0.13932967060651025	0.9819940140533898	0.12757350529005762
67														9.536454305998996	-1.8817243905871737	1.2952646454753314	0.1672262395504901	-0.15054063243649357	0.9743576872952886	0.9760044072920695	-0.11452212375195178	-0.18520280807212292	0.13946605949928848	0.9819481662272016	0.12777721663417838
68														9.468330036897777	-1.8632229141833672	1.3179298528962016	0.16725709855787846	-0.15078922701656333	0.9743139494011914	0.9759736462825417	-0.11465001619430895	-0.1852857672585907	0.13964420769928143	0.981895097656767	0.12799028265320747
69														9.535273699028616	-1.877770141861615	1.265639844967893	0.16730512552525606	-0.15106559310264445	0.9742628913971448	0.9759458649489045	-0.11472847994974533	-0.18538350675708953	0.13978077000114608	0.9818434511005141	0.1282371781852656
70														9.470511564879201	-1.8131913424359973	1.2587761741277057	0.16731751510404846	-0.1513179479454313	0.974221600955856	0.9759417952685975	-0.1146924785457426	-0.18542720300145388	0.13979435391786937	0.9818087970652021	0.1284874492628263
71														9.43178113779395	-1.8884155098368673	1.201872877429843	0.16752803088756663	-0.15157299740768748	0.9741457721120506	0.9759023801700862	-0.11463912065205564	-0.18566748879242018	0.13981739249926867	0.9817756864340104	0.12871518279415553
72														9.410657139168492	-1.8997778250934099	1.2020131303084332	0.1675361245936507	-0.15153716856435884	0.9741499543189636	0.9759180950829757	-0.11452471696416283	-0.18565548980273955	0.1396979550521678	0.9817945690152172	0.1287008376292363
73														9.41870851985228	-1.8153847887826404	1.2098413015221707	0.16777318975788824	-0.15140364958604124	0.974129915201505	0.9758814929701577	-0.11448969726191521	-0.18586936514447866	0.13966913931430996	0.9818192522623004	0.12854371789511004
74														9.428003955304556	-1.831643105983919	1.222974450631754	0.16787247474722877	-0.15103208260535722	0.9741704893118708	0.9758813912488788	-0.11442807381908818	-0.18590784312719533	0.13955050138352637	0.9818836621239514	0.12818007496356268
75														9.447046478436384	-1.8676355615953362	1.2851421499137698	0.1679665764934617	-0.15061069890132772	0.9742195063524031	0.9758849064163811	-0.11435732031904053	-0.18593292532023287	0.13941261998024795	0.9819566287091819	0.12777050021167255
76														9.529617373355425	-1.8665182758109413	1.3505307297332272	0.16796008056778333	-0.15032108304081299	0.9742653557060831	0.9759318095919325	-0.11409056436285808	-0.18585060169388862	0.13909174800209978	0.9820320336510422	0.12754046620943033
77														9.605859697642705	-1.7062898870174237	1.3992484979263478	0.16790925553954916	-0.15023710300080673	0.9742870700086704	0.9759594887132705	-0.11397953249339862	-0.18577336343813744	0.13895883669161313	0.9820577778595879	0.12748710778271785
78														9.59632154358424	-1.6851052175081853	1.3504359072284877	0.16786728128749512	-0.15042547439716009	0.9742652372560227	0.9759277185641906	-0.11422442160586102	-0.18578985345518878	0.13923241006044174	0.9820004878619948	0.127629846930744
79														9.533188003460637	-1.8179017531226058	1.3227321024704972	0.16792304578510298	-0.15079461658212756	0.9741985599989886	0.9758332921612144	-0.11474364508650339	-0.1859658082069619	0.13982573655826086	0.9818833329485288	0.12788230477211507
80														9.41829955850234	-1.8615854364045883	1.3053247952720661	0.16783100686107993	-0.1511047165596685	0.9741663706828616	0.9757631136219508	-0.11529928581439891	-0.18599037820673853	0.14042471018589375	0.9817705634842144	0.12809161348463044
81														9.429728710729778	-1.9217221705031253	1.1966642062435355	0.16776133108533225	-0.1513414634840261	0.9741416207220546	0.9757384594073922	-0.11551920989708489	-0.18598325456352915	0.1406790482828441	0.9817082425931174	0.12829003000610287
82														9.325385127291646	-1.9883659344802338	1.2618978991515986	0.1676781023657163	-0.15132762895095186	0.9741580994392631	0.9757578169897408	-0.1154976224946293	-0.18589508272545924	0.1406440065216062	0.9817129152222521	0.1282926947077629
83														9.460997599070286	-1.9263624751106836	1.2481131066484772	0.16770444648107669	-0.15112432376264257	0.9741851248082987	0.9757819224630986	-0.11533291972882959	-0.185870808415533	0.14044521502954832	0.9817635949627121	0.12812253970787718
84														9.487718512326529	-1.8775638616323795	1.3209530784889467	0.16772755479531598	-0.15091752375220208	0.9742132047898382	0.9758283990714158	-0.1150162087336416	-0.18582305372115832	0.14009426443684764	0.98183255840955	0.12797821814221233
85														9.555923402733633	-1.894814869602687	1.2997276393092327	0.1678719646184288	-0.15085995473209318	0.9741972477652465	0.9758507961725715	-0.11467670967992152	-0.1859152383919792	0.1397648994007739	0.9818811161822082	0.1279658023859255
86														9.597716195484457	-1.8661047416904935	1.2672583820623025	0.1679503418414256	-0.150834874011601	0.9741876223075576	0.9758915838537678	-0.1142893241381159	-0.1859396863271448	0.1393854340981604	0.9819301355849901	0.12800355304174274
87														9.563851330545559	-1.8091061617713795	1.3093904444003586	0.1678973167032276	-0.1508409439100193	0.9741958225552969	0.975953961947317	-0.11391950659190436	-0.18583920516724312	0.13901206855230847	0.9819721766212077	0.12808703735591992
88														9.526175078793843	-1.793340801351402	1.3477423858263884	0.1678086531620151	-0.15091816233693806	0.9741991399096969	0.9760012379347753	-0.11369009243761763	-0.18573138246218135	0.1387870291984724	0.9819868996877548	0.12821813197787124
89														9.488038034343374	-1.773758577596105	1.351007663667238	0.16776344038046542	-0.15089377601314502	0.9742107043305392	0.9759833863865768	-0.11388191203633186	-0.18570767245415581	0.1389671096666431	0.9819684203025294	0.12816459713764622
90														9.506360200553303	-1.8047186538175208	1.3820302931057762	0.16757321626868432	-0.15089734027972102	0.974242890600632	0.9759727592194353	-0.11421208150223505	-0.1855607008515786	0.13927092464319668	0.9819295255441874	0.12813280771760271
91														9.524643867283434	-1.9295697220649224	1.3517284989229656	0.16742255051468724	-0.1509364671116839	0.9742627327754052	0.9759323026343238	-0.11469132349452693	-0.18547787196843818	0.13973485697571503	0.9818676505573027	0.12810185999843682
92														9.5113319684556	-1.9503356171621489	1.2986473296785994	0.1673549378523539	-0.15111556360672324	0.9742465864514263	0.9758889875163057	-0.11505148111605185	-0.18548272355505746	0.14011783905282682	0.9817979645165417	0.12821758089412288
93														9.463869925964278	-1.915628594220308	1.287137860647588	0.1674388189148835	-0.15131689719574876	0.9742009230869366	0.9758176268766348	-0.11540064106130876	-0.18564118917818628	0.14051405978492343	0.9817259743256718	0.12833514848656535
94														9.49394127918745	-2.0128634565616137	1.2437299889450992	0.16742951145212143	-0.15153170752397094	0.9741691333181184	0.9757997502946935	-0.11549692463222244	-0.18567527494341574	0.14064923042703875	0.9816815176091321	0.1285270086982238
95														9.425343293866971	-1.9901851129173407	1.2318591912048609	0.1674239565680215	-0.151753388474679	0.9741355798109227	0.9758409989575717	-0.11517388233769765	-0.18565915431443408	0.1403693824186668	0.9816852275111994	0.1288043111300501
96														9.442733455816317	-2.0183800809500156	1.2303800563085416	0.1673694744617642	-0.15180426033645172	0.9741370158053209	0.9759128134803294	-0.11473387070945504	-0.18555408752418745	0.1399344114337166	0.9817288859230582	0.1289447751596415
97														9.447315969364478	-1.9781269153939274	1.2703436441821683	0.16735569273345385	-0.1517938172131258	0.9741410109247911	0.9759901023521552	-0.11421104333316195	-0.1854700991841547	0.13941087554540144	0.9817914618882253	0.12903539492343113
98														9.476208574812281	-1.8806702293136823	1.28030764911645	0.16741142728430386	-0.15171647791188797	0.9741434824216831	0.9760407606567156	-0.11379361391158721	-0.18546009535638847	0.13898865979385622	0.9818518848395374	0.129031115184499
99														9.506394832778582	-1.8842469544749127	1.296970624348855	0.1674921114778229	-0.15170958356538555	0.9741306867392683	0.9760553511082842	-0.11358317178974897	-0.18551230325524265	0.13878884741068082	0.9818773168479851	0.12905266558199058
100														9.496863673083759	-1.8640278666358656	1.2473109908986217	0.16762053991591924	-0.15170059836073402	0.9741099953574499	0.976042734441378	-0.11350103560122232	-0.18562891871054998	0.13872251130401886	0.981888203093634	0.12904116197191123
101														9.446202667755948	-1.8756473996122316	1.264435911131101	0.16775329386928906	-0.15174876115631453	0.9740796404214225	0.9760341559033948	-0.11337340790800216	-0.18575197681121264	0.13862236077181594	0.9818955055742182	0.12909321139083546
102														9.443004568420708	-1.9211347245951196	1.294391361097469	0.16786041527095957	-0.15167310213046697	0.9740729700978166	0.9760304340641603	-0.11326943030916267	-0.18583494810708956	0.1385188534661903	0.981919195375851	0.12902411009905632
103														9.498077661611342	-1.870999375687415	1.3155986378217022	0.16798071503346784	-0.15159959089797798	0.9740636752371018	0.9760366803507026	-0.11307630408309643	-0.18591973554436692	0.13832887618579537	0.9819528061442018	0.12897212302936667
104														9.530871977914897	-1.825819911196419	1.2676626995517817	0.16803017718978108	-0.15158245047108582	0.97405781156087	0.9760619618578164	-0.11283287320432192	-0.18593490618689096	0.1380902102534473	0.9819834537473828	0.12899453631266902
105														9.51037998853285	-1.840932222675134	1.3016871459092274	0.1681041510377408	-0.15162956706460873	0.9740377142573484	0.9760820830885933	-0.112580156420344	-0.18598246007030678	0.13785775813247808	0.982005184697194	0.12907771205950688
106														9.497617316595527	-1.865839215774868	1.2828009587615428	0.1681667269167173	-0.1516755224269984	0.9740197574251841	0.9760963922922317	-0.11238420769260948	-0.18602586598479676	0.13768000912335587	0.9820205322485883	0.12915064587523795
107														9.434037527234048	-1.8085288130567139	1.3424493886467346	0.16827251312727753	-0.15173681704991493	0.9739919402527886	0.9760858376116412	-0.11230361765442126	-0.1861298876476079	0.13762557516614327	0.9820202827911912	0.12921054619069622
108														9.498242381496585	-1.8679967843359406	1.3186726344520927	0.16827464600806125	-0.15175853833387098	0.9739881875842387	0.9761055144599532	-0.11215608037922375	-0.18611565832793436	0.13748333772400573	0.9820337874415204	0.12925932141060814
109														9.544376885399936	-1.8001767057508882	1.3255392258752738	0.16830936170901106	-0.151801046773974	0.9739755648677393	0.9761131653283127	-0.11204588347429031	-0.18614190411943438	0.13738648854180763	0.982039796645122	0.129316629137015
110														9.522780832156078	-1.8074125170937305	1.2918470923216456	0.16828852206014433	-0.15190879329126916	0.9739623667594162	0.9761514678887343	-0.11177975026960316	-0.1861010455863571	0.1371396553936261	0.9820534638961652	0.1294747425873551
111														9.458610847901484	-1.7461246639800907	1.3176381094853715	0.16836947541626357	-0.1519694340241164	0.9739389153691527	0.9761712340687101	-0.11151560698469334	-0.1861558249843574	0.1368993846765702	0.9820741115217451	0.12957236570330613
112														9.501758989748437	-1.8178706032572498	1.2928533792297647	0.16841123354517107	-0.15192449459531587	0.9739387066739632	0.9761820277013603	-0.11138944222853975	-0.1861747591723319	0.13677099549485938	0.9820953823850171	0.12954672782194288
113														9.463431947909346	-1.799441450712632	1.2956960997338562	0.16838732888798696	-0.15194027150579031	0.9739403787525783	0.9762029505587555	-0.11126894474038068	-0.18613710338549488	0.13665104020953944	0.9821066010526094	0.12958826095963322
114														9.451382304294922	-1.8270676708565323	1.311310655244963	0.16838804091768073	-0.1519762245384828	0.9739346460881932	0.9762235147689406	-0.11111322000051946	-0.18612227581160773	0.13650317537728385	0.9821186687545171	0.1296526266443286
115														9.499503178807176	-1.8629149685401418	1.3599773154654884	0.16845720961487787	-0.1520487663357885	0.9739113620779527	0.9762194895181127	-0.11103317882824235	-0.18619114233574663	0.13644660792325997	0.9821164930165157	0.12972862957410689
116														9.5366028446596	-1.778182103987623	1.3517895846663561	0.16840244133073257	-0.15216808019326183	0.9739021989523109	0.9762568783729366	-0.11081646369338477	-0.18612420262830442	0.1362465602625571	0.982122490703064	0.12989337193187206
117														9.532934231786424	-1.8183288564070745	1.3496114168467646	0.16834267123075364	-0.15230346014614687	0.9738913702617995	0.9762657744302694	-0.11080879766888166	-0.18608210025481664	0.13625667953888038	0.9821023706247166	0.13003480647253998
118														9.527193914902169	-1.7548528546881088	1.305633197330332	0.1682489783175256	-0.15249508322240934	0.97387757489743	0.9762540720881999	-0.11098539256519874	-0.18603824705784738	0.1364561029280726	0.9820526932044631	0.13020076706204192
119														9.476045861742373	-1.7618006215704656	1.2897218433365278	0.16815624301187287	-0.15264761568847107	0.9738696952676764	0.9762163416895213	-0.11135470759612276	-0.1860155458947182	0.13683980471507534	0.9819871865359584	0.13029210768397748
120														9.469178108212141	-1.9385019315532404	1.2204607681836022	0.1681151641653585	-0.1526608238728842	0.9738747170104107	0.9761580678160493	-0.11182585958183713	-0.18603871577287717	0.13730520097684829	0.9819315912950537	0.1302214721214279
121														9.45735030851833	-1.966082607732491	1.2347592710666782	0.16798145471200515	-0.1525845271304901	0.9739097457943438	0.976148076303296	-0.11209427329139454	-0.18592957544363053	0.13753968155486285	0.9819128454071873	0.1301153335397024
122														9.420013041480397	-1.9499944753315768	1.2702620914789786	0.1678566296497016	-0.15231083066392398	0.9739741078412241	0.9761823237816192	-0.1120720229239191	-0.18576310832363474	0.13744898187677057	0.9819578771720333	0.12987110856858491
123														9.49832508174894	-1.9853839926731989	1.298280729349034	0.16776662581795854	-0.1521161197774889	0.9740200436158889	0.9762364832930384	-0.11184453344683526	-0.1856155409056614	0.13717393319905413	0.9820139950336251	0.12973752583119896
124														9.578485256748095	-1.9684229998850518	1.2289251788330473	0.1676184276604235	-0.152103514748831	0.9740475263095223	0.9763161770914688	-0.11147795406461639	-0.1854167956444805	0.13678737170567734	0.9820576289396765	0.12981536266264262
125														9.505903589476626	-1.8927880972472118	1.2743809611121886	0.16754523110134778	-0.15231202142115136	0.9740275374268423	0.9763794288427967	-0.11108369861789655	-0.18532032493491563	0.1364250947143168	0.9820699873389733	0.13010278052454757
126														9.426117442612792	-1.9056311493896012	1.3469999966412802	0.16761980489087908	-0.15254691064004333	0.9739779469076917	0.9764090629523726	-0.11072316626438647	-0.1853799402223949	0.13612105932886842	0.9820742438871756	0.13038879054818717
127														9.40368926981847	-1.9108824537153757	1.2798139595506925	0.1677925989523254	-0.1526586330871233	0.973930688232379	0.9763823614361997	-0.11065713033890595	-0.1855599196524645	0.13609969879869238	0.9820643264313851	0.13048574917505645
128														9.43322667341296	-1.9111669401480627	1.2626300902657912	0.16782495141741283	-0.15257302854575083	0.9739385281639291	0.9763968449227348	-0.11052437162506099	-0.18556283168192472	0.13595582704199172	0.9820925792598492	0.13042307639396153
129														9.458194681824253	-1.8560494354425334	1.2671095486104111	0.16795832221546708	-0.15249394242261943	0.9739279231662739	0.9763878772140682	-0.11042056472298825	-0.18567178599793005	0.1358554939189805	0.9821165391187863	0.13034718394106828
130														9.506524937638863	-1.8923067937951616	1.3138154092386738	0.16799735352583894	-0.15229993941646924	0.9739515479026943	0.9764027003200659	-0.11029650472334204	-0.18566757351109392	0.1357006117008983	0.9821605823385267	0.1301765512081514
131														9.518961815891762	-1.862611223959718	1.2978613603906617	0.1679689537354639	-0.1521292869640284	0.9739831161928989	0.9764430663453737	-0.11007580213040494	-0.1855862494135609	0.13544507657001809	0.9822117886857011	0.1300562701286551
132														9.53185025469032	-1.8366321165418242	1.3163963271662231	0.16806834978617302	-0.15198644294127134	0.9739882704438548	0.9764356962559246	-0.11001907927913618	-0.18565864717749664	0.1353748901287074	0.9822402574506048	0.12991426313538318
133														9.516323391558673	-1.906791948347532	1.3264475593507075	0.16807831429410747	-0.15193875575733873	0.9739939911328833	0.9764595105483803	-0.10984146888513543	-0.18563856273084406	0.13519062291323658	0.9822675125504599	0.12990007415033863
134														9.506413994210684	-1.7922421175298195	1.3374443363759831	0.1680745070989974	-0.1518790668447274	0.974003957444632	0.9764744335399096	-0.10974964865025677	-0.1856143724609125	0.135087529795841	0.9822870067732346	0.1298599076625952
135														9.459716052105087	-1.7607087065045264	1.3582046333497368	0.168129298387813	-0.15182578083613324	0.9740028086700373	0.976458184150536	-0.10980201800767397	-0.18566887581628067	0.13513679598488626	0.9822893917349113	0.12979059001329163
136														9.506352419873942	-1.786944563509252	1.3021674827157421	0.1681305352201976	-0.15173793749170228	0.9740162839769848	0.9764472503425017	-0.10989650336506321	-0.18567047650798102	0.13521423898812568	0.9822923988680239	0.12968713390681877
137														9.54514429630485	-1.803053999245088	1.2994328008971066	0.16818377098573	-0.15179413836693734	0.9739983361045637	0.9764311291769924	-0.10992915954859389	-0.18573591428445752	0.13526444156230816	0.9822800616109333	0.12972822133390277
138														9.47069576441904	-1.8709288120302294	1.3458003714292979	0.16821129208005015	-0.15172751380826	0.974003964453084	0.9764367405728355	-0.10986298043503348	-0.18574557111659173	0.13518969219677007	0.9822977588712579	0.12967212514741497
139														9.481869481277782	-1.7441643225970278	1.3569483540044172	0.1683091134953773	-0.1515722679670896	0.9740112370489948	0.9764324358885357	-0.1097882616530221	-0.1858123670480203	0.1350990024359205	0.9823300795488858	0.1295217138332365
140														9.491815614864263	-1.763322354336026	1.405210243905602	0.1683973365933239	-0.1513671279361295	0.9740278895435399	0.9764120053083534	-0.10985355625225016	-0.18588112348609803	0.13513671935486338	0.9823544109735047	0.12929763463769842
141														9.543905338890777	-1.8483929564318473	1.3597127997383152	0.1683967896616217	-0.15116692581376906	0.9740590750933309	0.9763981054550566	-0.10999352488564995	-0.18587136451591252	0.13523779388705237	0.9823695765969371	0.1290765434977199
142														9.462365058661877	-1.7576900801570525	1.38637693848579	0.16835405471037246	-0.15112557423715106	0.9740728787283159	0.9763977191120421	-0.11006343779391001	-0.18583200416986334	0.13529377803646003	0.9823681084361797	0.12902903995668422
143														9.49030561908753	-1.8991494534649784	1.372482933214719	0.16825677612557227	-0.15126271709477868	0.9740683999108757	0.9764419100037944	-0.10985099070226043	-0.18572548621520252	0.13509572042063572	0.98237078043824	0.12921608284262684
144														9.46405822647811	-1.7603113353556818	1.4565634776761698	0.16807812281580758	-0.15128713536492971	0.9740954508177251	0.976484833768974	-0.10978176274410531	-0.1855406531948608	0.13500782958737223	0.9823747590618713	0.129277680626768
145														9.45913251020194	-1.7894533411694615	1.3503517075503568	0.16787578741682013	-0.15130745477928614	0.9741271858065543	0.9765109634687139	-0.10986802694506231	-0.1853519756587545	0.13507056757335056	0.9823619856160017	0.1293092069111848
146														9.481907492792448	-1.8716309594351506	1.3248411683823644	0.16774796339434278	-0.1512670299304258	0.9741554837052848	0.9765282923620933	-0.10992650544847565	-0.18522596366670668	0.13510408947705516	0.9823616691707355	0.12927658701660544
147														9.512430526384383	-1.8737596918881374	1.3409263267370926	0.16770615112440235	-0.1512739044059469	0.9741616152984163	0.9765210890664543	-0.11003533418340566	-0.18519931922016375	0.13520802299976503	0.9823484265152189	0.1292685554942437
148														9.5346248755206	-1.9535701137244685	1.2800444345626385	0.16767335270714917	-0.1512099834843304	0.974177184954879	0.9765155168913975	-0.11013324279198325	-0.18517050008694463	0.13528892069297854	0.9823472958820576	0.1291924851178983
149														9.504223201288093	-1.9448533748876906	1.2292349038851766	0.16771464937231234	-0.1512796060482749	0.9741592668449043	0.9765340078786051	-0.10992860991516551	-0.1851945792367264	0.13510413702944513	0.9823594970864782	0.12929304173671075
150														9.471219740010651	-1.8940961751373804	1.3391423656243302	0.16764572858537008	-0.15126351560632262	0.9741736285352299	0.9765694890935643	-0.10976881908034028	-0.1851022402058985	0.13493310438367245	0.9823798426291753	0.12931706050348354
151														9.472762026521156	-1.8987965226602481	1.4079388277389147	0.1675242958250558	-0.1511606102445674	0.9742104907148199	0.9766038242117777	-0.10970627378725564	-0.18495811424927489	0.13483538424038138	0.9824026686660652	0.12924556377122967
152														9.490205170155653	-1.9230988200602914	1.3695743678557235	0.1674326202557772	-0.15100693659085251	0.974250082255953	0.9766073857332341	-0.10983623614976937	-0.18486215231828945	0.13492342941677354	0.9824117804311483	0.12908432075398849
153														9.552295321511247	-2.0263533153457525	1.3750405434869306	0.16742371969734815	-0.15105952518506255	0.9742434592716378	0.9766228266431718	-0.10972608771191622	-0.1848459903674895	0.13482267080207594	0.982416004310954	0.12915743072504465
154														9.508561736828762	-1.9485078328662355	1.36649131419213	0.16728947682201667	-0.15112556033207064	0.9742562783779911	0.9766681634137964	-0.10956863988095672	-0.18469978811184162	0.13466079428897598	0.9824234210201602	0.12926984301261918
155														9.533224012954946	-1.8919826611434978	1.373523451988441	0.16716447926834266	-0.15132624497774666	0.9742465829818847	0.9766869993592888	-0.10956602045306671	-0.18460171300566647	0.1346794050829307	0.9823928209952537	0.12948282937708253
156														9.48289718097189	-1.9924222223808608	1.2983574832083162	0.16708612564474068	-0.15166630362109412	0.9742071437650945	0.9766827541510348	-0.10964077470638534	-0.18457978834567096	0.1348073601884518	0.9823320379931102	0.12981041087417944
157														9.411096078597586	-2.0155418645572065	1.317622064380464	0.16706793341519233	-0.15188924464263948	0.9741755298642364	0.9766575375292397	-0.1098072370977066	-0.18461426019755428	0.13501244391425227	0.9822789970486272	0.12999850747391065
158														9.440449098389461	-2.0157674142858317	1.3017174681341375	0.16710880434447245	-0.15200028818011063	0.9741511997137432	0.9766490093006994	-0.10979187643596691	-0.18466850435478405	0.13502355402863742	0.9822635370723245	0.13010374166657526
159														9.489405389589969	-1.9068000203551043	1.3122765529855165	0.16725319219999457	-0.15203795935245262	0.9741205411112395	0.9766280383846531	-0.10973808545080521	-0.18481132877217427	0.13499646047158637	0.9822637179075353	0.13013048890482848
160														9.547989075928328	-1.8179848836802757	1.3719839323249892	0.16740361876789256	-0.15198184490275962	0.9741034581826347	0.9766096772281283	-0.10967458570301167	-0.1849460018363308	0.13494282777452615	0.9822794938666014	0.130067017961466
161														9.615986242351935	-1.8364490728308875	1.3517552571468647	0.1675591297058241	-0.1520393544723368	0.9740677454591455	0.9765846688534472	-0.10963068181708502	-0.18510401985025804	0.13493080675898467	0.982275495111202	0.13010968100573195
162														9.564748837791397	-1.8450348652461652	1.335069791125749	0.1676229336343164	-0.1521395637486499	0.9740411209298082	0.976564976257598	-0.10966669248739028	-0.18518656459331612	0.13499407122842044	0.9822559593615341	0.13019151674333276
163														9.564567578163409	-1.8446433161294518	1.3369083285024626	0.16766987465897143	-0.152390624580591	0.9739937939595829	0.9765447659439765	-0.10970102157598186	-0.1852727879981566	0.1350819500868592	0.9822132066945157	0.1304227102755037
164														9.522281180435769	-1.8684912427000948	1.3381450493771407	0.16761937254112563	-0.15268649232921006	0.9739561494282588	0.9765606644146584	-0.10959898261432124	-0.18524937713230255	0.13502968068880128	0.982178648754954	0.13073670969919873
165														9.521508777202595	-1.8637099766958412	1.3076460524435496	0.16748696507111277	-0.15305976740850985	0.973920337672502	0.9765938053559478	-0.10947006690332514	-0.185150867652761	0.1349542732619332	0.9821349255845827	0.13114241142860336
166														9.50362670234088	-1.8327228696363085	1.3151330313416887	0.16741695462743694	-0.15347875581255654	0.973866435820387	0.9765986204358996	-0.10945221861188259	-0.18513602135628277	0.13500628824603716	0.9820715265983258	0.13156298407554323
167														9.44364402294344	-1.8272328270300597	1.3202114401963114	0.1674229992045001	-0.15387358408290602	0.973803090701016	0.9765800926730412	-0.10950349572123133	-0.1852034206475272	0.13513275669534958	0.9820040247098336	0.1319364753265916
168														9.40588938502582	-1.9036572670625282	1.2638351485108903	0.16747368531743895	-0.15409068475861293	0.9737600451840368	0.9765403385343023	-0.10968082473585786	-0.18530807834676893	0.13535705353436767	0.981950190975023	0.13210711753198814
169														9.438250673768735	-1.8591589058243525	1.2169366860454183	0.16752487271687827	-0.1540926416316269	0.9737509305855274	0.9765115718556356	-0.10981838585338599	-0.1853781868521549	0.13550116993306505	0.9819345089788543	0.1320759365790256
170														9.498288501598994	-1.8668944939880254	1.2508063224374664	0.167518246703994	-0.15417888389760626	0.9737384190742949	0.9764965021752944	-0.10992026100442989	-0.18539718838248975	0.135617912757254	0.9819095722014352	0.1321414914345959
171														9.48881489885441	-1.8461648899121583	1.2021888019345661	0.16747766549957888	-0.154390301191427	0.9737119011580538	0.9765112266016522	-0.10982933062071881	-0.18537352145422897	0.13556200013185038	0.9818865275750683	0.13236990249609953
172														9.450645872250231	-1.8312458493886867	1.2407082534303977	0.16743352924391863	-0.15459211950761415	0.9736874703266291	0.9765049527164473	-0.10989717029563098	-0.1853663650214431	0.13566167699529463	0.9818471818705584	0.1325594992736007
173														9.464699424748424	-1.9018195271343075	1.2356557728539974	0.16736560612665446	-0.1547859276665829	0.9736683575439091	0.9765080071703296	-0.10993173189219799	-0.18532977703384396	0.13572349029585817	0.9818127779365973	0.13275090682301496
174														9.451679861744275	-1.9234072534252717	1.1835842181850391	0.16740478136521375	-0.1549623837063604	0.9736335546868276	0.9764958245321632	-0.10993231002262854	-0.18539361338605892	0.13576282203650525	0.9817848780914948	0.13291692632450075
175														9.46010163749313	-1.9361136448326892	1.166722480144026	0.167491572176941	-0.15511319181481947	0.9735946132629927	0.9765015552253833	-0.10974251704141541	-0.1854758544819874	0.13561447523072617	0.9817822964784171	0.133087326329223
176														9.45315473708695	-1.7835538862432487	1.2175928025066938	0.16756530310436812	-0.15514962943961758	0.9735761201263565	0.9765160398186818	-0.10952885987588193	-0.185525881836275	0.13541895425818085	0.9818003979114278	0.1331528651159333
177														9.435108464165337	-1.750296376108235	1.1871177558157777	0.1676982314280882	-0.15519148907584868	0.9735465602087621	0.9764870093010515	-0.10954762438522886	-0.1856675487473291	0.13546373626244174	0.9817916885520952	0.1331715301701008
178														9.455340419228117	-1.8831991080971437	1.226048578187902	0.16777161518116424	-0.15510364127056503	0.9735479164397176	0.976470354929261	-0.1095836337062874	-0.18573387727619695	0.13549291894348764	0.9818015520910213	0.13306908441796447
179														9.479525716430967	-1.8249742497145092	1.1960078748565675	0.1677816926335951	-0.15506198490887385	0.9735528154410142	0.9764868102746902	-0.10945834612926908	-0.18572124224817643	0.135361785510411	0.9818221077663534	0.1330508764520857
180														9.476345514199934	-1.8662447106771716	1.1911533800028036	0.16785512991283114	-0.1548966079983462	0.9735664826772505	0.9764915396627194	-0.1093539043806589	-0.18575789771591694	0.1352365643200018	0.9818598496869664	0.13289961340654693
181														9.49420341799647	-1.895008156462203	1.1871746324531607	0.16791003109731428	-0.15471041265203217	0.9735866215565703	0.9765013905192206	-0.10924177664702192	-0.18577208764782277	0.13509720859783564	0.9819016867548602	0.13273214296858457
182														9.454538121425196	-1.7832617248414246	1.2499287378920223	0.16799364949380713	-0.15459538805813572	0.9735904681748413	0.9765365912698627	-0.10889140572587874	-0.18579275462213174	0.13473833768007326	0.9819587199827683	0.13267498863393223
183														9.481845480953687	-1.8314796299846292	1.2965150212819323	0.16802326777694748	-0.1544266016580712	0.9736121436105323	0.9765819187360844	-0.10855156541916858	-0.18575336778318707	0.1343723836333351	0.9820229031674299	0.1325710382071004
184														9.459900858038354	-1.7488615340728442	1.3557649197692485	0.16805588085592527	-0.15423987900667613	0.9736361130492974	0.9766055182596258	-0.10836906892512749	-0.1857358516957559	0.1341599143357879	0.9820724029440528	0.13241945763786817
185														9.485281886515676	-1.6964491805875723	1.3931098527518653	0.16804293238913576	-0.15397303894103243	0.9736805821999966	0.9765974543673429	-0.10849705536630436	-0.18570353012279422	0.1342348129111327	0.9821001437002772	0.13213751453167574
186														9.479076413066132	-1.7791651394224832	1.3826120128354993	0.16801106721951609	-0.1537460364092914	0.9737219508567078	0.9765483084766354	-0.10894377780063047	-0.18570044289109755	0.1346316549076857	0.9820862536289572	0.1318366714152709
187														9.472342685648123	-1.8589285377190512	1.337749617313757	0.1680335106724858	-0.15356003631045678	0.9737474285149156	0.9764868004053178	-0.1093960552280891	-0.18575799238449425	0.13504913152354792	0.9820650784692753	0.1315671453132255
188														9.512230941066678	-1.9653168258075422	1.2384797362071869	0.16797287760598195	-0.1534624252561308	0.9737732777311526	0.9764824801633836	-0.10953014225709629	-0.18570167977459962	0.13515575578839945	0.9820653908837471	0.13145527644647742
189														9.461541905129009	-1.9722750318162883	1.2206897303688595	0.16799391709864847	-0.15338033248628202	0.9737825822144546	0.9764957398668545	-0.10942023818995819	-0.18569674605748515	0.1350337507430559	0.9820904668516293	0.13139330682881792
190														9.448591458134114	-1.9059962750513268	1.2962610959885272	0.16802022798570804	-0.1532244870887468	0.9738025772937866	0.976540273798922	-0.10908908911388643	-0.18565738413817218	0.13467849359254408	0.9821516314666963	0.13130070895067575
191														9.47341923192674	-1.8501252250402205	1.299912769220553	0.16801551500486883	-0.1529262066490128	0.973850277012638	0.976590956935803	-0.10878237946505426	-0.1855707324691407	0.13431637855772144	0.9822321361256026	0.13106922298264562
192														9.521185399675288	-1.8788022144854237	1.2768734886313151	0.1680382382012433	-0.1525968902223624	0.973898012933945	0.9766277702780184	-0.10854390839642694	-0.18551662532456253	0.13401995681243978	0.9823097317264511	0.1307908335148126
193														9.558596569899628	-1.797241428642124	1.2989636713324442	0.16813301942885317	-0.15229067649799738	0.9739295855602289	0.9766402171689399	-0.10837848686078319	-0.18554780999508647	0.13381021629884093	0.9823755154916827	0.13051119713077516
194														9.569350529499895	-1.818492847052719	1.3810261367755237	0.168137842823274	-0.15196800313525555	0.9739791536957139	0.9766741953249702	-0.10818349787491538	-0.18548274036651025	0.13355591337360567	0.9824469740452313	0.1302334872155037
195														9.4854955300421	-1.863475796447881	1.3409232781011422	0.1681132777544307	-0.15164925952998481	0.9740330733228049	0.9766876608522028	-0.10817951982011254	-0.18541414355583008	0.1334883477375975	0.9824966633915337	0.12992754689745
196														9.503513831100904	-1.8044086256527874	1.4650713745335888	0.1681261076879479	-0.15135888449730422	0.9740760237257827	0.9766788099826504	-0.10828195322680528	-0.18540097285683588	0.13353693887675344	0.9825301556131084	0.12962399186225732
197														9.44579405678572	-1.8924966121379323	1.4030698883531925	0.16805600018628442	-0.15115192759260143	0.9741202572508325	0.976675983227048	-0.10844024457149579	-0.18532333135564177	0.13364581770061634	0.9825445578406686	0.12940242373625951
198														9.476389033307086	-1.8951367031693005	1.4178499714867694	0.16798563720613935	-0.15104004458885045	0.9741497475352777	0.9766591631619099	-0.10868340741902047	-0.18526952248999007	0.1338570308363557	0.9825348960125484	0.1292573921030656
199														9.507573513292778	-1.987990767728211	1.3389005459803853	0.16784917787419462	-0.15113139766207923	0.9741591010341507	0.976672579655604	-0.1087579703834489	-0.18515500540612456	0.1339303014101968	0.9825125976387175	0.12935095610545186
200														9.475696103218842	-1.8853509203029462	1.3507005687765636	0.16774632002241308	-0.15135760748949612	0.9741416974824528	0.9766721129130586	-0.10886172618078166	-0.18509648411270058	0.13406250772263245	0.9824662840158929	0.12956560035411785
201														9.437842049702576	-1.9576508866081803	1.2595952250503917	0.16779709497185857	-0.1515583525122331	0.974101740426934	0.976650515025022	-0.10891109893710219	-0.18518138143363966	0.13415627611246317	0.9824298643221763	0.12974457702557798
202														9.435607305139351	-2.005518689545039	1.325421357915304	0.1678673026892773	-0.15154803603398964	0.9740912490429567	0.9766596564633234	-0.10874826873210339	-0.18522885705179376	0.1340018064235336	0.9824494932677259	0.12975557426646075
203														9.460136454763836	-1.9502997944905205	1.329654624817707	0.16798032064764168	-0.15126842995867046	0.9741152262299131	0.9766732574749688	-0.1085439039182344	-0.18527700627822896	0.13376083136833922	0.982515182081187	0.12950659045632693
204														9.42342271192491	-1.7933034849238971	1.3598377704582048	0.16809601959299308	-0.1508275716469769	0.9741636268246054	0.9766975337888291	-0.10828736710771561	-0.18529914628971966	0.13343783454407604	0.9826112607516545	0.129110241871948
205														9.518270228901551	-1.7653117411519088	1.4440141291242345	0.16819625605784821	-0.15046745657611915	0.9742020139373743	0.9766929889246495	-0.10824888434025767	-0.18534558107633303	0.13334475930293166	0.982670709622813	0.12875345283074932
206														9.55287699309208	-1.7293488664118768	1.496029709805699	0.16817509450458318	-0.15027825680071066	0.9742348706145322	0.9766684268556258	-0.10849539119565063	-0.18533087727807285	0.1335511945724629	0.9826724762718464	0.12852580599251548
207														9.557633158286261	-1.9257748477931158	1.4765734251522327	0.16810775321808014	-0.15034476080047526	0.974236232239295	0.9766211382520498	-0.10892422620961856	-0.1853285333236815	0.13398110175409128	0.9826148614001745	0.1285188644840754
208														9.534858553071107	-1.9276974571746412	1.3741385374596604	0.16805903776126607	-0.1506302698471217	0.9742005346090412	0.9765790760737761	-0.10924583311864991	-0.18536088077343277	0.1343483085180011	0.9825354292604396	0.12874262016269736
209														9.551043388321864	-1.9501135491535941	1.3056119742198802	0.16803671075346394	-0.15107645078885285	0.9741352934044638	0.9765457312005701	-0.10943556952967332	-0.18542462348798439	0.13461834463809702	0.982445806209564	0.12914386995958888
210														9.514030132382118	-1.8843688626849855	1.247444592129406	0.16806461598913558	-0.15154527300840942	0.9740576549061307	0.9765160847472503	-0.10952375828631375	-0.185528657087637	0.13479844614210224	0.982363769995437	0.12957932828204885
211														9.393728029312035	-1.8722521999574144	1.2195587800465875	0.16813807137191816	-0.15181238168155708	0.9740033828090664	0.9764974472617514	-0.1095066888753288	-0.1856367974913506	0.1348418497596891	0.9823244300432188	0.1298321597049447
212														9.390806967357925	-1.9174186603636023	1.2513731889926307	0.16819853317129962	-0.1517492962205101	0.9740027743983091	0.9765045904007037	-0.10938265298714228	-0.1856723462227174	0.13471465534743232	0.9823479965481043	0.12978588256258167
213														9.354376919048114	-1.7635670981639118	1.3170106182029873	0.1681971964173789	-0.15133225038758136	0.9740678893742285	0.9765422369427648	-0.10918918269769551	-0.18558820503639395	0.13444315744639063	0.9824338513988817	0.1294170199062139
214														9.5470019785672	-1.7527749787716507	1.3635474807402244	0.16811385332122092	-0.15088792210019014	0.9741512035027098	0.9765819169989214	-0.10909969842193176	-0.1854319691826502	0.13425904704042407	0.9825121326317199	0.1290132455186935
215														9.581769261296719	-1.7156180706664588	1.4153336251712052	0.1680262174755528	-0.15062091843588804	0.9742076417121701	0.976563231049395	-0.1094090652154914	-0.1853480839152073	0.13450444603515743	0.9825186997600617	0.12870725938568303
216														9.619649011484647	-1.8698698266596898	1.3818409345401568	0.16790720517878316	-0.150765304323152	0.9742058270516545	0.9765231704219957	-0.1098388479690263	-0.1853049516494678	0.13494320315608516	0.9824485994133154	0.1287830789847448
217														9.540423133110659	-1.9706046600326408	1.3240579392212595	0.16789231044342479	-0.1512626187154203	0.9741313013517854	0.9764546798765164	-0.11026247963977695	-0.185414248996507	0.1354563776321352	0.9823246946723074	0.1291888694731059
218														9.445853237566112	-1.996933549826655	1.2413797949541059	0.1678596445249368	-0.15183151384591642	0.9740484234077993	0.9764614806604687	-0.11014995983126302	-0.18544531036275064	0.1354478369200764	0.9822495496320824	0.12976789171919206
219														9.40124086125858	-1.9241581108442702	1.2718325539737987	0.16793431491613142	-0.15229861949804924	0.9739626257575995	0.9764767452580078	-0.10984702268332983	-0.18554459727498362	0.13524508066461194	0.9822111596324878	0.13026897577484112
220														9.406923502972857	-1.8357026051834584	1.249292170132702	0.16791047311452506	-0.15244914546022326	0.9739431867757506	0.9765456401746391	-0.10935016694294172	-0.18547547990355973	0.1347764284819915	0.9822432484054034	0.13051251008098871
221														9.42268830354718	-1.7662335792159165	1.2740427448705958	0.16789975404139534	-0.15236085347313522	0.9739588507333241	0.9765963360392257	-0.10901190716051282	-0.18540766039187367	0.1344219811920639	0.9822945456563252	0.1304919788578396
222														9.483372914538993	-1.7717795814123076	1.3059746791112463	0.16782505711244045	-0.15208586446972983	0.974014702165066	0.9766296192623101	-0.10892481016360772	-0.18528349227704743	0.13427336662481787	0.9823468204047481	0.1302512474255822
223														9.520004622281832	-1.8319577925719581	1.3322393242938417	0.16776312995288317	-0.15184534776234315	0.9740628945768054	0.9766305715161565	-0.10904972922209885	-0.18520497654386076	0.1343438089695136	0.9823701679710757	0.13000228487239304
224														9.52051909005406	-1.8305720324964656	1.3304664309483807	0.16775189566820392	-0.15169624415216182	0.974088061219237	0.976601891416006	-0.10930323076228629	-0.18520677478862996	0.13456614426520475	0.9823650305538438	0.12981101479667276
225														9.574048331753707	-1.9179966982124692	1.3204274860127856	0.16773565878712404	-0.15169709750865246	0.9740907244085125	0.9765396000492412	-0.10977950272910891	-0.1852535298347064	0.13503761811776138	0.9823117892950286	0.12972428571814015
226														9.54081542141176	-1.9554168286274258	1.3007773229872945	0.16773428079905323	-0.15189272407875337	0.9740604762625167	0.9765070530850655	-0.109980741813683	-0.18530572496615993	0.13527448510323925	0.982259047706891	0.12987677574534184
227														9.52238472719008	-1.9220104017025372	1.271764827883577	0.1677513456584826	-0.15217367370844131	0.9740136852528536	0.9765029849691933	-0.10993324783792394	-0.18535533811050808	0.13528269060017784	0.9822208784432768	0.13015659635260182
228														9.465835415769611	-1.8746162511195876	1.2793287088398428	0.16773064018467104	-0.15231135049349837	0.9739957314352496	0.9765186567769046	-0.10982184366308725	-0.18533881304538002	0.1351952118600001	0.9822120011307575	0.13031438725191694
229														9.456843484393467	-1.8567932168785337	1.2648134162452813	0.16765213610691893	-0.1523652226736617	0.9740008214464668	0.9765671878520935	-0.10956727680993755	-0.1852337427768168	0.1349417980813971	0.9822320758212183	0.13042568902827173
230														9.448123152662504	-1.8384026701551102	1.2490693380671825	0.1675269569191069	-0.15225913776232997	0.9740389487455294	0.9765879732022438	-0.10960936722051526	-0.18509920911298472	0.1349468388001656	0.9822438300062722	0.1303319190085532
231														9.416507177619101	-1.880643704534941	1.2963861059852153	0.16735951616706096	-0.15209389900290898	0.9740935469627238	0.9766199498570505	-0.10963948189577274	-0.18491256731449746	0.1349231851445084	0.9822660687897752	0.13018872537490042
232														9.464986720420363	-1.9118158363008613	1.308270015799934	0.167315838514627	-0.15187670978849666	0.9741349368572956	0.9766167868225905	-0.10976406021407153	-0.18485535637800632	0.1350002291793067	0.9822857609215058	0.1299600785333413
233														9.486352052879258	-1.8981738584508754	1.307560927775175	0.16738138970551558	-0.15173532422284602	0.9741457086921027	0.976580061094841	-0.10996747009052674	-0.18492847210174684	0.13518452075680776	0.9822848603663186	0.1297751842336403
234														9.52211774241727	-1.956719794717957	1.3004203834538846	0.16749601589364732	-0.15164184453106833	0.9741405625714241	0.9765609078779531	-0.10996623323482627	-0.18503032387349888	0.13518090791359244	0.982299434253812	0.12966859141788248
235														9.542486320036344	-1.9407770269878015	1.2674029338535222	0.1675515733890614	-0.15167439554715229	0.9741259405180913	0.9765740854388856	-0.10978749823862274	-0.1850669091969408	0.1350167615670524	0.9823144012819471	0.12972621604762588
236														9.580742944663411	-1.8116523358277026	1.2293264985299401	0.16762233862334808	-0.15186509601603826	0.9740840539740288	0.9766212961086825	-0.10930924987114954	-0.1851008694728445	0.1345867585664952	0.9823382719331695	0.12999201480828682
237														9.513285137077338	-1.7995430266398937	1.3212467415664046	0.1676083558398146	-0.15206607387806398	0.9740551053343879	0.9766918441960708	-0.10877460952703091	-0.18504357811910288	0.1340913141614798	0.9823665270649002	0.1302901606756787
238														9.499160651831435	-1.7292600140493868	1.3650982805348437	0.16750977839164588	-0.15211916809659143	0.9740637724711778	0.976765501900456	-0.10836141436201818	-0.1848971556693425	0.13367732956762635	0.9824039711722788	0.13043315906856
239														9.513651874132627	-1.7949244796260502	1.3248832667494024	0.16737287624063013	-0.1520626755708105	0.9740961261585972	0.976799635592706	-0.1083121619355103	-0.1847456291304695	0.133599372022835	0.9824181483844356	0.13040624800983225
240														9.528751373508513	-1.8639808183411883	1.3182741813701992	0.16724925254583717	-0.15204383729280896	0.9741203000985743	0.9768099878109393	-0.10841193651606085	-0.1846323366413104	0.1336784770845753	0.9824100587647276	0.1303861235033592
241														9.505096258215648	-1.9167740627087306	1.3134091672667423	0.16723545087820563	-0.15204453701099213	0.9741225604279351	0.9767886616219248	-0.10858764074875599	-0.18464190966155986	0.13385146430432426	0.9823905450693893	0.13035567675347343
242														9.496173870903798	-1.899515391312549	1.2974138323826923	0.16726010383777468	-0.15203473178273458	0.9741198581262618	0.9767514100497618	-0.10882838467633546	-0.18469722698119018	0.13409228400612222	0.9823654223457232	0.13029749172386215
243														9.516711907646599	-1.8833302573031545	1.263571159630276	0.16728687301226602	-0.15197833522214987	0.9741240617810862	0.9767169801562731	-0.10905394952714886	-0.1847462496694865	0.13430950372996014	0.9823491343283373	0.13019652642132185
244														9.501450038786754	-1.9503665860700259	1.240432523098547	0.16728570836476625	-0.15205781253555756	0.9741118587840921	0.9767164370636119	-0.1090444635697563	-0.18475471992494996	0.13431490366545706	0.9823378882093903	0.13027578455589386
245														9.484139150721086	-1.9230166154912747	1.2794910655442038	0.16722587862738136	-0.15218175849446403	0.974102775839815	0.9767575995123912	-0.1088027032357636	-0.18467962411533478	0.1340898851968012	0.9823455014149161	0.13045006147099228
246														9.419372118845295	-1.8655661613068344	1.3398482590522498	0.1672185066920932	-0.15231717870453737	0.9740828753710623	0.9767895055933973	-0.1085533371372272	-0.18465761494987926	0.13386647370522897	0.9823521008619371	0.1306296947476558
247														9.47901482614208	-1.8687435079250765	1.3400812145278613	0.16724926950581398	-0.15236729951673939	0.9740697551447474	0.976799881753275	-0.10842484296183644	-0.18467821862766953	0.1337522816873037	0.9823585188039433	0.13069838436936712
248														9.467380988847095	-1.8968683163900306	1.3551457417227788	0.16729690120543383	-0.15230621457327803	0.9740711287423613	0.9767904573916297	-0.1084393093985444	-0.18471956725213812	0.13376153855166956	0.9823663945695237	0.13062969656538626
249														9.499203049589166	-1.8484765946156585	1.2722231678990938	0.1673960684655843	-0.15229877011820192	0.9740552555593285	0.9767579389427254	-0.10854134375107335	-0.18483155955915814	0.1338748855260936	0.982356280235025	0.13058963859426562
250														9.40444418104041	-1.7884564531506473	1.3136015292566212	0.16749741148384317	-0.1522703356721231	0.9740422793803718	0.9767235957397999	-0.10865754156808577	-0.1849447381935877	0.13399863682637636	0.982347842433971	0.1305261728313301
251														9.416820589607529	-1.904786924606287	1.3361815639324033	0.1675388967905243	-0.15212057132627888	0.9740585453870727	0.9766936769615274	-0.10884746372094162	-0.1849910566078511	0.13416474740253093	0.98235001981009	0.13033901615989857
252														9.518674023894313	-1.882981841695832	1.335029679833479	0.1675343099059588	-0.15195061106855906	0.9740858621293222	0.9766785805360882	-0.10899660499741973	-0.18498294629788903	0.1342803236753074	0.9823597873971265	0.13014623612969636
253														9.569445596378527	-1.8699825200894036	1.3172563040549659	0.16752784683206529	-0.15190305604523752	0.9740943907547817	0.9766779839266178	-0.10901897846088893	-0.18497291166109014	0.13429272597147368	0.9823646593294475	0.1300966558051706
254														9.587289065277409	-1.8989856360040094	1.3147929395960698	0.1676310973075038	-0.15198558559642011	0.9740637540666404	0.9766732732761725	-0.10889425917040316	-0.18507122301356582	0.13419810909059088	0.9823657272577475	0.13018619522002903
255														9.499959064864758	-1.845759903037606	1.270521350221312	0.16772182432656785	-0.15210341476792455	0.9740297433140865	0.9766953668716769	-0.10858362750903577	-0.1851371280115907	0.13392367220162776	0.982381874350762	0.13034685639138083
256														9.443709151012488	-1.802734218385663	1.3111810746623334	0.1678413179863263	-0.15211792975560667	0.9740068929034753	0.9766872377655534	-0.10847380556960112	-0.1852443604840438	0.13383322293999683	0.9823917594076802	0.13036525413382355
257														9.446789565375498	-1.7609261830080811	1.3146621816330277	0.1680190453925754	-0.15199029548674597	0.9739961757949667	0.9766185115392598	-0.10875405299187244	-0.18544227909697875	0.13411145851197231	0.9823805301591093	0.13016378398041015
258														9.426205584274996	-1.773483205634246	1.3115539015437347	0.1681056771123608	-0.1516600838423628	0.9740326998060803	0.9765909949309235	-0.10889762957498247	-0.1855029242162467	0.13420324117704208	0.9824156580805687	0.12980356241528687
259														9.513499251522216	-1.8228815760328325	1.3190633115216086	0.16822714012191414	-0.15123446141284985	0.97407790602578	0.9765641543795212	-0.10900581337193255	-0.18558066987737615	0.1342463470915098	0.98246927195322	0.1293524176824586
260														9.555994950919137	-1.7968321350840322	1.3169413191258206	0.16826515359253558	-0.150891866220622	0.9741244698676546	0.9765596223669968	-0.1090512474350944	-0.18557782571007558	0.13423167304667638	0.9825169057788821	0.1290053789955383
261														9.509103531005431	-1.7661541357540707	1.3352012459334304	0.1683466478061359	-0.15065667237110641	0.9741467924509646	0.9765310013817434	-0.10919186003106973	-0.18564574070881756	0.1343376697460809	0.9825373808527701	0.12873882753145038
262														9.512488703508867	-1.8659839191473737	1.341577320213803	0.16841562393901843	-0.1505479033509109	0.9741516855243213	0.9765161516264043	-0.10922504454151594	-0.18570432212972698	0.13435915758141936	0.9825503643282358	0.1286172551894289
263														9.469259909341615	-1.8809539195045741	1.2362715644521214	0.16851345195490697	-0.150554460334886	0.9741337541546913	0.976505855648647	-0.10916266308783851	-0.18579512068801712	0.13431131893531933	0.982556292260572	0.128621934929516
264														9.410325510370585	-1.8789744785586298	1.2722023554897919	0.16851090831693233	-0.1505326878275583	0.9741375589071665	0.9765381269776732	-0.10893407861674062	-0.18575966482220885	0.1340796790611466	0.9825849970416465	0.1286443284856635
265														9.482475365819584	-1.8557097541018224	1.2910026564145554	0.16846052859852223	-0.15053597292172333	0.9741457648426222	0.9765841377681863	-0.10866638050201702	-0.1856745529364746	0.13380759381991503	0.982614135154335	0.1287050474185983
266														9.515450269876704	-1.811965512684224	1.2773465972562885	0.1683864444887157	-0.1504372019207365	0.974173831300507	0.9766432016112883	-0.1083546962659252	-0.18554599576270076	0.1334693300309166	0.9826636800428614	0.12867800847743804
267														9.513952406560122	-1.8579771467127704	1.3423106990471738	0.16829346606448897	-0.15037668255570763	0.974199241748597	0.9766951898512704	-0.10811353758813175	-0.18541296910294947	0.1332059135376218	0.9826995045962524	0.12867738054875094
268														9.537802815430016	-1.7979866856532754	1.312135954423404	0.16824696446960524	-0.15019883243627058	0.9742347097499369	0.9767282115375098	-0.10796891485608276	-0.1853232694821042	0.13302240312631586	0.9827426032077679	0.12853799479888753
269														9.52715051351393	-1.828366018338542	1.3602878061108543	0.1682530813657015	-0.15009221081792212	0.9742500853798968	0.9767305647473727	-0.1079632124940661	-0.18531418897710072	0.13299738530973498	0.9827595194144653	0.1284345066601041
270														9.580642158353987	-1.9117818694596793	1.316139324825848	0.1682049223279654	-0.15000590627564847	0.9742716932083499	0.9767435603735255	-0.10795127042985858	-0.18525263960718436	0.13296285711992256	0.9827740082516436	0.12835936791487462
271														9.542165844792331	-1.8934398451771237	1.3185200345386907	0.1682072763161625	-0.15002820456075994	0.9742678533291411	0.976730045758021	-0.10804357733985773	-0.18527008152732094	0.13305912185127383	0.982760460759325	0.12836333923783264
272														9.498159723931122	-1.9620349749372454	1.3486990440765736	0.16812525648812326	-0.15010335357695015	0.974270435441698	0.9767846427638746	-0.10774088203752286	-0.18515848346329306	0.13276166536863254	0.9827822167615414	0.12850468717450558
273														9.510518100482901	-1.9342981967804587	1.370006857390431	0.16813328739268968	-0.1501782564655182	0.9742575064917406	0.976841065707642	-0.10729697691219559	-0.1851185865672646	0.13233567175061045	0.9828193374321041	0.12866009463634737
274														9.49575620666476	-1.8609678326427892	1.3783866638191713	0.1681218222803379	-0.15016439585437763	0.9742616214810214	0.976927604242197	-0.10667158048566375	-0.18502332281713074	0.1317099424597099	0.9828895299749514	0.12876592298772052
275														9.51056869941275	-1.7883657462279823	1.3682261468540342	0.16822025109992983	-0.15020053239697584	0.9742390605942377	0.9769580949097459	-0.10629716360690222	-0.18507780471857843	0.1313576336198144	0.9829245714075896	0.12885829043181563
276														9.547157463040508	-1.8490775795248287	1.3966022679745183	0.16826850474727917	-0.15006237085876672	0.9742520183003783	0.9769692693358287	-0.10617111262028914	-0.18509117109788542	0.13121264071548777	0.9829592970704412	0.12874107044472052
277														9.479159531906646	-1.8310769919030951	1.415402165162815	0.16836683905374977	-0.14993199761499942	0.9742551019102875	0.9769486213738395	-0.10621058215963833	-0.1851774917020566	0.13124023279011376	0.9829749276194621	0.12859351837752256
278														9.524527446372762	-1.9053690543622757	1.4239718968731105	0.16839700017864856	-0.14981417404504072	0.9742680142476372	0.9769353163151351	-0.1062896787405962	-0.1852023000112782	0.13130056384905148	0.9829843424228195	0.12845989445931388
279														9.524231187766102	-1.901284162286723	1.3891291489310433	0.16842157023585802	-0.1498191314434747	0.9742630048055863	0.9769208417820474	-0.10636210853676387	-0.18523706637568138	0.13137672385602744	0.9829757523566568	0.12844775867145608
280														9.550355418157505	-1.939743252304678	1.3337777571855862	0.16845373821173398	-0.14990200491274702	0.974244695651781	0.9769214908486656	-0.10629571884764177	-0.1852717487170762	0.13133064684418844	0.982970299183959	0.1285365789247761
281														9.552631015855319	-1.8940185145194013	1.3049023945487077	0.1684764995282182	-0.15011799192075514	0.9742075023363344	0.9769394410338721	-0.10608778654113149	-0.18529627653903225	0.1311678224990584	0.9829598008303717	0.1287828881970431
282														9.540123038225488	-1.9197420979831137	1.2879068770964957	0.16860654772023287	-0.15035098131055263	0.9741490720032628	0.9769246464565833	-0.10596886289559307	-0.18544226929773666	0.1311108966163535	0.9829370185904935	0.12901453512254737
283														9.491262738315712	-1.8841759374127043	1.2414980501310975	0.1687794897014046	-0.15033003642210407	0.9741223557672118	0.9768972080467615	-0.1059316261777295	-0.18560801568300878	0.13109282500036273	0.9829442358163919	0.1289779070568043
284														9.467958089956763	-1.9422820890057508	1.2709757648247593	0.16896806103971873	-0.15011839045338538	0.9741223040235566	0.9769075754443213	-0.10562429937148574	-0.18572855575215175	0.13077225771537038	0.9830096521550373	0.12880465978394193
285														9.48396634273023	-1.8772449962753375	1.3266797203537026	0.1691333494600209	-0.14976007914494538	0.9741487713870685	0.9769356139453642	-0.10524418289380133	-0.18579684650771477	0.13034844189950906	0.9831050710181067	0.1285056536999618
286														9.538961269937	-1.828157525947049	1.379968805600904	0.16922286401425984	-0.14943597897979866	0.9741829964032226	0.9770009865570696	-0.10468270177598116	-0.1857702996051699	0.1297408746745793	0.9832143307210442	0.1282843922831025
287														9.54242996432246	-1.78494178813125	1.381678153334633	0.16929345441129984	-0.14912858953887115	0.9742178350223507	0.9770545880080463	-0.10423210405646996	-0.18574175765397516	0.12924418109112668	0.9833088692095217	0.12806095965584494
288														9.642359722945667	-1.8111714102062142	1.4454206432008416	0.1693887017528552	-0.149004484094028	0.9742202684395118	0.9770382422575735	-0.10424194077043103	-0.18582220252339193	0.12924295294023902	0.9833266402901357	0.12792567221242446
289														9.569916767912343	-1.8301551288631863	1.3927218846713327	0.16955322853863186	-0.1490935248933244	0.9741780245555791	0.9769709833145827	-0.10449745983377237	-0.18603219788420244	0.12953532511814853	0.9832860223369256	0.1279421659319662
290														9.489677043284997	-1.8428453178463804	1.4283445647932071	0.16975600066163365	-0.14921239758388716	0.9741245098274842	0.9769032853943119	-0.1046942831351525	-0.18627688548130977	0.1297800879378957	0.9832470531286048	0.12799359862410142
291														9.497433043383062	-1.8541179653920004	1.3760627789478994	0.1699883599672437	-0.14931859265775627	0.9740677160045677	0.976830345224575	-0.10488947572437923	-0.18654938898507145	0.13002474427617777	0.9832101279833182	0.12802894245811247
292														9.45275034658761	-1.782666082739488	1.4012938041262046	0.17008889668844257	-0.1493926345304512	0.9740388123536761	0.9768096382651119	-0.10488622892764318	-0.18665960884379745	0.1300488285825358	0.9831992268759111	0.12808818233904792
293														9.428280329651317	-1.8340993286069105	1.3631403892125336	0.17022858931610652	-0.14948711248071866	0.9739999130295782	0.9767513368589316	-0.10510615945004625	-0.18684089806557935	0.13030369650834567	0.9831613796563814	0.1281196637071082
294														9.466592126937897	-1.8470099416757055	1.3269734084114924	0.17022836288478943	-0.1494647037328598	0.9740033915791122	0.9767596673560945	-0.10504791557069401	-0.1868301037324132	0.1302415321469168	0.9831710114584855	0.12810895960752652
295														9.509051420788047	-1.8238078392231514	1.3631259539309393	0.17026437803159067	-0.14946157888965172	0.9739975759771318	0.9767577517042053	-0.10501081704403908	-0.18686097181993283	0.130208817133334	0.9831754496220684	0.12810815431182437
296														9.479034901261205	-1.8199477738175935	1.3463687092137326	0.17037939479585673	-0.14939382949432573	0.9739878569766758	0.9767220811072357	-0.10512644352615783	-0.18698237122544886	0.1303258919269214	0.983173389886322	0.12800487222324983
297														9.472231543062978	-1.7589297760856324	1.299210575290596	0.17051258940334957	-0.1493909579902697	0.9739649883469705	0.9766643510618909	-0.10536927738220503	-0.1871471633469442	0.1305840810352495	0.9831478307226751	0.12793803471008136
298														9.492955410677439	-1.8858352891024301	1.2694124912985498	0.17062256451072488	-0.1493167809791317	0.9739571034690462	0.976608709906447	-0.1056430209447157	-0.1872831542358802	0.13085628840315494	0.9831297223885083	0.12779898568316564
299														9.469183317037105	-1.940379891900291	1.2647381539515357	0.17071528041724382	-0.14940331321528932	0.9739275861337722	0.976583666909281	-0.10568052458210525	-0.18739255121288506	0.1309222462306714	0.9831125452990341	0.12786355507950758
300														9.443239049847541	-1.9000902464245861	1.321390147183228	0.17076774603091233	-0.1493743715847357	0.973922827553183	0.9766280248230987	-0.10527656521440051	-0.18738875619094897	0.1305223277667642	0.9831602829296572	0.1279053557284525
301														9.445107998578138	-1.8510492737572304	1.2572245748090665	0.17084496723931264	-0.14939048177685227	0.9739068133674179	0.9767054570481473	-0.10457644538629554	-0.18737720577150552	0.1298400837236645	0.9832325518537552	0.128044139396478
302														9.465959283766106	-1.8377491767810257	1.2590608295898242	0.17095948845603792	-0.14938412429222586	0.973887692044773	0.9767481281687205	-0.10408675244152807	-0.18742743151704666	0.1293674898332306	0.9832854780660706	0.12811604582810118
303														9.435842130920738	-1.8338010400013753	1.2431949634535728	0.17110068655987343	-0.14936860065139174	0.9738652762051767	0.9767699297663133	-0.10371692396766191	-0.18751880968851536	0.12901573300590657	0.9833269145213768	0.12815272066880729
304														9.396595434126848	-1.8136722367208573	1.2106950386880224	0.1711752932005396	-0.14925390999102411	0.9738697496842688	0.9767688120065561	-0.10363798791395429	-0.18756826851162212	0.12892519881314984	0.9833526518058199	0.12804630138138096
305														9.411806176637901	-1.8849571332199733	1.202465053729818	0.17132863801177606	-0.14901879447606176	0.9738787895266701	0.9767479896662681	-0.1036167521656999	-0.18768839429633544	0.1288792554290044	0.9833905468142015	0.12780129090323092
306														9.439356716282262	-1.9307656475338093	1.211946566124293	0.17148703706312718	-0.14861239118749459	0.9739130111590284	0.9767077391613153	-0.10376919395934642	-0.18781359548078713	0.12897359567641287	0.9834359722780959	0.12735580099757743
307														9.434181954574829	-1.8759314349323513	1.2295390554031078	0.17168349519241782	-0.1480925514611368	0.9739575831011564	0.9766451944927459	-0.10405723929030478	-0.18797940053502432	0.12918568633073063	0.9834839536835418	0.1267689681832556
308														9.521593494863676	-1.9262292182812248	1.2354020179380594	0.17190536627888964	-0.14753023859894693	0.9740037852818948	0.9765832856579284	-0.10431088065368307	-0.18816037401859825	0.12935853747660603	0.9835415948886919	0.12614396499921263
309														9.53434013630063	-1.901305472048292	1.2494418320038523	0.17211708046584134	-0.1470244850761403	0.9740428693851264	0.9765574103164142	-0.10429423206278901	-0.1883038435999947	0.12927232870190464	0.983619089864836	0.12562703166698566
310														9.553275599550329	-1.9344573813505617	1.276874094383417	0.17232473008574328	-0.1466660232487722	0.9740601957914443	0.9765385951749641	-0.10420106635074586	-0.18845293817045045	0.1291377541022915	0.9836824769181154	0.12526861166971567
311														9.506143445951293	-1.904956865127592	1.295214231719895	0.1725645019856275	-0.14645006713761027	0.97405024022883	0.9765588826063616	-0.10373386846998828	-0.1886054965658885	0.12866328713765468	0.983764027786969	0.12511633056996524
312														9.467611696651597	-1.8882796800372013	1.2956058553972734	0.17274782651571707	-0.146152828649264	0.9740623897430356	0.9765957592418344	-0.10323684235292477	-0.18868724761324313	0.12813630034053453	0.9838605109764367	0.12489829252725629
313														9.539132698241417	-1.8630690487531623	1.2775389767000085	0.17280816855800818	-0.14594466983272947	0.974082896999553	0.9766364056591702	-0.10287469475518077	-0.18867466263429233	0.12774454203903468	0.9839293422428477	0.12475729017894435
314														9.511497724500328	-1.8143393306787083	1.2287636961035764	0.17295383660831898	-0.14575517955986078	0.9740854161899438	0.9765950989992447	-0.10301212095902854	-0.18881344111629933	0.12786314173020552	0.9839430525020214	0.12452745247489069
315														9.464710813585988	-1.9273421131948312	1.251871799917681	0.17313505770872	-0.1454353653833304	0.9741010246827663	0.9765067332808068	-0.10348300285581566	-0.18901287780780973	0.1282920560652333	0.9839409650054012	0.12410207788266334
316														9.459686456897652	-2.015728047331156	1.275179560062813	0.17342553755026524	-0.145054290333952	0.9741061727456176	0.9764267283257553	-0.10373785154296519	-0.1892862973601398	0.1285084710688874	0.983970381166508	0.12364409347224667
317														9.497939179309421	-2.0307936788370435	1.2348260312200343	0.17370278283202017	-0.14474527673786935	0.9741027400117965	0.9763994879845226	-0.10359362615554732	-0.18950567401401597	0.12834088631443158	0.9840310795305309	0.1233347129481551
318														9.410880533890943	-1.8937199643989633	1.3501954183638631	0.1739443707235217	-0.14447583759691873	0.974099629526809	0.9763983624197915	-0.10329372532740438	-0.1896751016130897	0.1280218487507005	0.9841021992957109	0.12309860918709553
319														9.431260938394363	-1.8784872660699712	1.3142101372546897	0.17419967120811342	-0.14418146123498854	0.9740976238484151	0.9763662027396949	-0.10321588812841345	-0.18988290756550918	0.1279199464456348	0.9841535381605891	0.1227937320360433
320														9.496785690580603	-1.9376639995052878	1.2881731344923595	0.17430143359366734	-0.1439472389048322	0.974114060394812	0.9763768748977735	-0.10302660358666335	-0.18993082192802208	0.1276996805479555	0.9842076566279454	0.12258907056862142
321														9.491555993356007	-1.8818606267052902	1.3088741165210083	0.1743882544650771	-0.14376742008916593	0.9741250769924408	0.9763756903243495	-0.10294025825434577	-0.1899837218663183	0.12759015654929456	0.9842429741438004	0.12241944208455052
322														9.539090605368187	-1.9116180319408165	1.286579826717336	0.174508251878419	-0.14365656700661772	0.9741199416818301	0.9763368531009302	-0.1030808242822272	-0.19010705652939358	0.12772321364306383	0.9842444485091955	0.12226874611084604
323														9.527269236192208	-1.7987626796715008	1.2955053633512104	0.17470773423497366	-0.14368054084610354	0.9740806484992164	0.9762542200962838	-0.10341224010671801	-0.19035127091855225	0.12808163546222923	0.9842061830624123	0.12220181618551729
324														9.48420407668713	-1.9616046821701192	1.2289847611200433	0.1749210627976639	-0.14363930836068906	0.9740484438072878	0.9761456807892859	-0.1039326860494513	-0.19062425513813408	0.12861660727199248	0.9841573786057847	0.12203287454466108
325														9.42699053131756	-2.0561909647634256	1.2031725014424475	0.17514819172537538	-0.14352571389877244	0.9740243736093975	0.976065680625146	-0.10422641550047543	-0.19087336487234924	0.12891430502896817	0.9841428878784677	0.12183545541888943
326														9.455634827304385	-2.0548895872090625	1.1488213543985155	0.1754128577463676	-0.14327153979560447	0.9740141658219601	0.9760375856597817	-0.10409445676786924	-0.19108892026914165	0.1287670793202857	0.9841938883953703	0.1215789016586534
327														9.48895415176798	-2.0172540498587384	1.1666118955065417	0.1756576408912605	-0.1429165794248916	0.9740221991936354	0.9760588599106348	-0.10363328149397524	-0.19123086821102542	0.12827117831558688	0.9842941604481251	0.12129101583073579
328														9.434983831746317	-1.9805009004192273	1.2724314806036037	0.175931095694073	-0.14244387409481019	0.9740420895940511	0.9761034457963806	-0.10296971198994911	-0.19136170337123276	0.12755513581316796	0.984432314151445	0.1209243820828351
329														9.487354511240842	-1.974162765317793	1.3208074212335346	0.17613439584034501	-0.1420100232474078	0.974068697730929	0.9761847251719624	-0.10211597941210715	-0.19140456914516663	0.12664934639743475	0.9845839121405433	0.12064187917603808
330														9.532700269246039	-1.9059582344727242	1.3230609117458958	0.1762757221658215	-0.1416132328226819	0.9741008993243087	0.9762587655014182	-0.10139999680273135	-0.19140758456773077	0.12587967491443985	0.9847150516458631	0.1203768021901229
331														9.576483113414966	-1.8856354619325424	1.391909750061587	0.17632943181118793	-0.14149515798551243	0.9741083367592127	0.9763457390639634	-0.10065796049395614	-0.19135561868113943	0.12512765197504533	0.9848081514974647	0.12039923361616511
332														9.577742198570814	-1.837800131966727	1.3273259593749427	0.17651783792188602	-0.14161553012930966	0.9740567203821234	0.9763109326794026	-0.10061679267443144	-0.1915547539545449	0.12513359111788713	0.9847950561706257	0.12050013160090908
333														9.507668146330847	-1.958515160330315	1.285330020322828	0.17678781344487454	-0.14178301379379915	0.97398339103751	0.9762302497281452	-0.10080038512002196	-0.1918691790657835	0.12538169137917482	0.9847521816981174	0.12059258728335973
334														9.509308707864898	-1.9162577139589372	1.254674662099553	0.17711988670898843	-0.14184404637628345	0.9739141708794452	0.9761010621410956	-0.10128757288132301	-0.1922694569265619	0.12591768032813921	0.9846934010581225	0.12051408089251275
335														9.456959735320078	-1.9253739093016107	1.201777028691911	0.17741834478062846	-0.14166835408380885	0.9738854185100458	0.9759862388775178	-0.1017582246762602	-0.19260354418455816	0.12638667832101347	0.9846701687173838	0.12021258828034767
336														9.41114019053593	-1.9922981141489853	1.1592541676383348	0.1777305021681148	-0.14135540467210633	0.973873974479786	0.9758699409289651	-0.10224408028617957	-0.19293523897342196	0.12684528761592956	0.9846648148565167	0.11977259867437859
337														9.45086833260177	-2.013825750350133	1.1869715911981005	0.1779985244675802	-0.14089588080713294	0.9738916141229205	0.9758102572701459	-0.10238603726456538	-0.19316169697854602	0.12692859052922978	0.9847159235763593	0.11926308213953682
338														9.513920541930652	-1.9766249890081595	1.184931105631759	0.17818554352220956	-0.14050460667193748	0.9739139425963976	0.9758203644765651	-0.1020968980575794	-0.19326365328184253	0.12658802610246656	0.984801847536338	0.11891506522092501
339														9.543144551386929	-1.8857753199328633	1.2584425540920636	0.17837254311107376	-0.14015024676338117	0.9739307697142807	0.9758581937403265	-0.1015828773521753	-0.1933434890000698	0.1260318276228483	0.9849054915884143	0.11864717048892637
340														9.5799130908616	-1.805272252740376	1.2793149766612533	0.17855176641302495	-0.13989620329500557	0.9739344531406775	0.975847376137075	-0.10143959282708137	-0.1934732733311293	0.1258616907449383	0.9849563753338104	0.11840512443347662
341														9.573772929475913	-1.747683707726553	1.265399196442962	0.17875027043017366	-0.13984769651044754	0.9739050069703216	0.9757876925912221	-0.10160741957418643	-0.19368611533864405	0.1260425317448005	0.9849459650499603	0.1182993073655291
342														9.505621338276338	-1.7316371891849147	1.284611800411856	0.17893694352327455	-0.13983831735940294	0.9738720733446667	0.9756553064334348	-0.10235122672974803	-0.193961205954172	0.12680021005830178	0.9848702815015828	0.11811958069754533
343														9.502803618779904	-1.866760142607698	1.1852090066783514	0.1791099713761788	-0.13990032018926102	0.9738313604339134	0.9755343862027863	-0.10300838861153272	-0.1942213510703919	0.12748442842001284	0.9847929590967828	0.11802774344968614
344														9.438987756143797	-1.9029772166172352	1.1484161844834946	0.179242561874155	-0.1399465676677884	0.9738003194756075	0.975438065343091	-0.10353765904420512	-0.19442359383411745	0.1280339200857244	0.9847308827073777	0.1179508539597374
345														9.444202430002726	-1.9590457922704936	1.1257461576427843	0.17936096048431327	-0.1399492601342926	0.9737781320413852	0.9753810438983974	-0.1037935285742713	-0.19457318065389978	0.12830224104752735	0.9847035635225287	0.11788734846545726
346														9.482023383720362	-1.9727113949892892	1.0891282647336227	0.17937117647567075	-0.13996603386087175	0.973773839459138	0.9753901390500239	-0.10370467798936525	-0.19457496346420583	0.12821878838028677	0.9847105407826096	0.1179198591328531
347														9.476697124008552	-1.9170095189558434	1.1121219821037631	0.17947697399724072	-0.13996237505570103	0.9737548712964477	0.975406064253832	-0.10342041622982767	-0.19464641615940054	0.12794930879705096	0.9847409563309615	0.11795856604223542
348														9.4726618882376	-1.9559610149100597	1.0745574992490436	0.17962798027480087	-0.1399149578829485	0.97373384107928	0.9754228561312236	-0.1030677934432101	-0.19474927905271888	0.1276089355774186	0.9847846640333918	0.11796238826608135
349														9.449542708432052	-1.8713695164731057	1.0995400522855416	0.17977928979664348	-0.13971382336515759	0.9737347968111769	0.9754552343627758	-0.1026236810653208	-0.19482162569608524	0.1271475234303709	0.9848595979353061	0.11783496781613864
350														9.46133818404869	-1.8424479648820988	1.0825956639337306	0.1799238148757234	-0.1393937282395762	0.9737539778445259	0.9754648890156149	-0.1023885953209899	-0.19489696212601343	0.12686871615303974	0.9849294208600257	0.11755154097677181
351														9.44672933665621	-1.8215306049996407	1.1856098756449693	0.1799726337614999	-0.13893726389201327	0.9738101908478624	0.9754736494073404	-0.10233600601040849	-0.19488073579952142	0.12673204176085184	0.9849993799876418	0.11711195931708707
352														9.415921408341783	-1.865204361947031	1.2299808958499543	0.1800802104251818	-0.13836586993489658	0.9738716567650898	0.975464441745796	-0.10235455556459475	-0.19491707940746478	0.12665007186252958	0.9850778806735703	0.11653895616866719
353														9.477398592741523	-1.8715977434875728	1.2566434174660372	0.1801866178708117	-0.1377645168718591	0.9739372262273074	0.9754301001007966	-0.10257632721932666	-0.19497234909479816	0.12676317508499196	0.9851390942325136	0.11589677500739518
354														9.544251059469731	-1.9328471090577253	1.261280816836412	0.1801798164366441	-0.13730559559850447	0.9740032890941377	0.9754126519041966	-0.10281428518574767	-0.1949342998729764	0.12690702208341742	0.9851783575470408	0.1154045560921895
355														9.506191606175406	-1.9148897490859327	1.260654749223363	0.18019534001967213	-0.1371363955637418	0.9740242545475852	0.9753474066354929	-0.10332961467225613	-0.19498827426566212	0.1273855400138208	0.9851480090542069	0.11513611271846583
356														9.518340135907517	-1.9760948269333778	1.1498007608887657	0.18014480001436134	-0.13713233153262833	0.9740341753122479	0.9753311982363659	-0.10353385805749166	-0.19496100631291846	0.12758097340356223	0.9851271308233046	0.11509835507618288
357														9.435912232983375	-2.0283152869453733	1.1826062455426174	0.18003013411747704	-0.13718890061340777	0.9740474097076222	0.9753663454568839	-0.10342827194318871	-0.19484117817578728	0.12747408740495586	0.9851303457468614	0.11518923095907607
358														9.415182016286558	-2.039701375247317	1.182838578952891	0.18003323116099723	-0.13716092406049257	0.9740507772126684	0.975388557834542	-0.10325729862227542	-0.19482066504014212	0.12729963441889358	0.9851521766671902	0.11519545079869267
359														9.368332814739853	-2.0086514118712526	1.2036372403499374	0.18008037198111376	-0.13691689958520248	0.9740763944553424	0.9754392087959592	-0.10284030970255273	-0.19478762959643192	0.12684403640162756	0.9852297363093845	0.11503459097629706
360														9.388679226828954	-2.042840294825343	1.2671614565463292	0.18012928367666203	-0.13649169037343734	0.9741270243767671	0.9754969879942695	-0.10239948605959284	-0.19473051036968886	0.12632920318058238	0.9853346455462395	0.11470208677276175
361														9.442818661053442	-1.9869241659556116	1.2495310143341554	0.1801770950526319	-0.13596451655275438	0.9741919034035187	0.9755530905513972	-0.10199168062570924	-0.19466346498190412	0.12582679338683217	0.98544981978877	0.11426403959369008
362														9.5586283217307	-1.9410994510252941	1.298210948586301	0.18017822429521752	-0.1355425042233792	0.9742505001480253	0.9755853158700404	-0.10182157587092774	-0.19459100222239017	0.12557507295867137	0.985525543167713	0.11388724606121722
363														9.548841275048654	-1.971503221883235	1.3451494329319829	0.18021022790266922	-0.13533391908761983	0.9742735776483189	0.975579642097877	-0.1018575988310825	-0.19460059476924985	0.12557322837073026	0.985550485720926	0.11367323524823517
364														9.500272976555536	-2.0770188999449997	1.3013452091827395	0.18028523018529397	-0.1352045324456762	0.9742776658546486	0.9755768877483494	-0.10178743753502192	-0.19465110750082898	0.12548693903462954	0.9855754927788134	0.11355164536685078
365														9.464021622299207	-2.156865114558905	1.2778267157364365	0.18039785882445863	-0.13516232157925145	0.9742626747222016	0.9756303281974987	-0.10119800044675412	-0.19469059403787453	0.12490826727159582	0.9856419793874887	0.11361255756438984
366														9.495489690498806	-2.1114020483277853	1.2292308378374361	0.18046670586638236	-0.13505669137019632	0.9742645729933284	0.9757088720234437	-0.10048864538487398	-0.19466440147970687	0.12419325717798108	0.9857290308522159	0.11364115718644938
367														9.449591014997582	-2.082846890626206	1.2860576439872906	0.18058877580089422	-0.13504244053578207	0.9742439290592855	0.975817568199116	-0.09943069392029397	-0.1946628128341215	0.12315749124067837	0.9858382607510567	0.11382071863520132
368														9.482155713584472	-2.0393055962589113	1.2729671645504255	0.18058001454975364	-0.13497692502439973	0.9742546320424491	0.9759567430121516	-0.09833875746737067	-0.1945197279169551	0.12206266470269844	0.985956752850109	0.11397362587434604
369														9.448809577789747	-1.9840914308734656	1.3492964939314949	0.180662957608965	-0.1348495099193675	0.9742568990889866	0.9760885819549644	-0.09715960882519367	-0.19445074078049274	0.12088000630843959	0.9860910810302677	0.11407192462402768
370														9.420860189048947	-1.9845495425388133	1.4025309386889684	0.18075550857763734	-0.13462537451544915	0.9742707296513708	0.9761918774359586	-0.09620693399780075	-0.19440587511389967	0.11990356352877102	0.9862151055359665	0.11403026381528766
371														9.475474059810045	-1.9318715153269346	1.4220959775339743	0.1808904910457167	-0.1344308827349726	0.9742725327218948	0.976257318328228	-0.09548355184686741	-0.1944338955462328	0.11916492210300939	0.9863119329572174	0.11396706649897181
372														9.502006184594622	-1.9736976645384443	1.3997443249776143	0.1810159156918943	-0.1342293466484088	0.9742770246519037	0.9762848094911603	-0.09508825611749783	-0.19448957377027165	0.118748511666605	0.9863775676924502	0.11383358436811042
373														9.499082840432	-2.0154903403282725	1.3960099563291377	0.18123920415284245	-0.1342314494298812	0.9742352225525406	0.9762623195576104	-0.09490407426761951	-0.1946923216241484	0.11859272443973518	0.9863950195896977	0.11384476728687035
374														9.504285046599936	-2.071025364066842	1.374797654887556	0.18140509434077867	-0.1342951244225572	0.9741955713836641	0.9762656323027341	-0.0945875852517806	-0.19482967920925337	0.11831148267077296	0.9864167518207341	0.11394904473349646
375														9.479750544715527	-1.9837130640992542	1.3668370526883404	0.18159907886660476	-0.13440287891726704	0.9741445686824681	0.9762630350282726	-0.09426372302949806	-0.19499958194315326	0.11803499901379721	0.9864330776385032	0.11409435721561492
376														9.461687572066591	-1.954174487824112	1.3714441247711648	0.18171901379041416	-0.13444980803146278	0.974115726773437	0.9762964547139358	-0.09377340761380917	-0.19506865595859774	0.11757309445633646	0.9864734143122138	0.11422245976673853
377														9.433420663910015	-1.9556096187536054	1.4252931741003572	0.18184208154744186	-0.1344681095774709	0.9740902344676058	0.9763002584524327	-0.09353076940866514	-0.19516608444997963	0.11735102353284799	0.9864939547105622	0.11427342033608948
378														9.44081746532072	-1.9654593404515717	1.3728877150260574	0.18189720028729617	-0.13443338586742465	0.9740847361969411	0.9763267642569615	-0.0932216527981779	-0.19518138447379751	0.11704468344686014	0.9865279459872371	0.11429415498190726
379														9.438995439060704	-2.0090742588592887	1.4046227293533924	0.18196738614196722	-0.13443341163647138	0.9740716237610245	0.9763515669432787	-0.09289359980797621	-0.1952137209371298	0.11672826610579062	0.9865588867120372	0.11435066655442419
380														9.50710059562763	-2.025638214436633	1.3845492738300984	0.18206810639726873	-0.13442551759613308	0.9740538921702044	0.9763774613692469	-0.0925050686688968	-0.19526870000260504	0.11635401825058511	0.9865964689221092	0.1144078229290641
381														9.499455259360658	-1.964757956811184	1.3388893906985089	0.18224030741164876	-0.13451807826709505	0.9740089101100848	0.9763542700464135	-0.09239027055274734	-0.195438934885875	0.11627901666527313	0.9865946100230418	0.11450006880713776
382														9.457276838852579	-1.9904675822274505	1.340412131527164	0.18243470702619458	-0.13469087265148455	0.9739486364776369	0.9763604511466122	-0.0919714291917886	-0.19560553583475954	0.11592172837328701	0.9866101687276496	0.11472806044794995
383														9.42851206670616	-1.942739689651898	1.2954950849448672	0.18257207972548178	-0.13480899871547009	0.9739065507378234	0.9763743650922785	-0.09159387836199906	-0.19571321017564774	0.11558778004340364	0.9866291579473716	0.11490156566686993
384														9.384157642970516	-1.8706979732129687	1.3214256299449645	0.18276882893230384	-0.1348109258227408	0.9738693800759576	0.9763958803248929	-0.09107110190847115	-0.1958497875458498	0.11509404873968021	0.9866772869971177	0.11498387395072299
385														9.361074299732275	-1.877998171782492	1.253138758299964	0.18288061993413413	-0.1347932044434707	0.9738508463252304	0.9764193620306971	-0.09067994326162893	-0.19591420913663754	0.11471664353559685	0.9867157341027499	0.11503109044948817
386														9.339269676224092	-1.8875381093460173	1.2181248328676941	0.18297591009143022	-0.13460026403034098	0.9738596332373447	0.9764294693890394	-0.09046665141869048	-0.19596243591496892	0.11447841558500016	0.9867616499966199	0.11487444651051137
387														9.303133656013381	-1.967799266004463	1.1941758309831851	0.18310031354614686	-0.1343306115238716	0.9738734835628934	0.9764279955501591	-0.0903176413322831	-0.1960384992037824	0.11429192747172057	0.9868120441460955	0.11462698130459165
388														9.351842384207433	-2.092287721399358	1.1121318052117293	0.1831880214978845	-0.13402680428268454	0.9738988471671285	0.9764731429126082	-0.0898352736421282	-0.19603526412361955	0.11376444941221286	0.9868973803508727	0.11441682877322348
389														9.402053361330996	-1.9372839688996446	1.0863961201556558	0.18331192779765448	-0.13381313691973268	0.9739049140007503	0.9765251843426193	-0.08920851798443999	-0.19606224691060203	0.11311631832640923	0.9869832241262874	0.11431891279030662
390														9.41137829911051	-1.8103794310847623	1.0952990422783062	0.18346222727454986	-0.1336827150175281	0.9738945234823964	0.9765779516142286	-0.08850803271338728	-0.19611688495936203	0.11241492598591635	0.9870639593515451	0.11431371118475944
391														9.413417909326311	-1.7656222989110564	1.0635777068681913	0.18364729182335182	-0.1335306521276401	0.9738805045529537	0.9765673570119608	-0.08830411916807884	-0.19626150859662528	0.11220458735997457	0.9871028049196886	0.11418486368630881
392														9.417723644626534	-1.7264021740656594	1.0990612544430691	0.1838555310757426	-0.13319080209600648	0.9738877522229545	0.9765388499520895	-0.08825403235483253	-0.19642581375003204	0.11211163288038734	0.9871531978422265	0.11384000071485711
393														9.465255728839583	-1.7566693848698827	1.074184552801541	0.183908958441176	-0.13272275588700277	0.9739415614269888	0.9764946920898834	-0.08864198088528938	-0.19647064804956527	0.11240823513144371	0.987181477386246	0.11330101226442332
394														9.488050537999486	-1.8379446059777367	1.0104263580569652	0.18387722309978605	-0.13214483282818817	0.974026134137027	0.9764926777631406	-0.08883241441592069	-0.19639463440738164	0.11247762933171412	0.9872418879412725	0.11270420397691125
395														9.575898959278648	-1.885387712698249	1.0165694134846401	0.1837705281321786	-0.13169157795358388	0.9741076538484418	0.9764955198025289	-0.0890874751814398	-0.1962649270027264	0.11262722937020764	0.9872794690774704	0.11222458350334466
396														9.518326679827611	-1.881005758111093	1.0500274131239258	0.18364491718374515	-0.13131216220271996	0.9741825601242418	0.9765616125872032	-0.08880564314261788	-0.19606370027903458	0.11225845720326144	0.9873553938697415	0.11192571189262526
397														9.549596846320716	-1.8813295563230092	1.0634524025350316	0.18354087516011697	-0.13093055946656224	0.9742535274471587	0.9766134522045626	-0.0886101930723597	-0.19589384537745375	0.11197728393984652	0.9874236285817006	0.11160495329510631
398														9.51528425214181	-1.9613712348533738	1.073349539587147	0.18338043110956742	-0.13050914923533796	0.9743402790873101	0.9767078990016177	-0.08814489349447416	-0.1956327114229453	0.11141497885793822	0.9875210578598899	0.11130526838101193
399														9.462110037055265	-1.916468491775696	1.1448620968151941	0.1832477798726116	-0.1301159193183754	0.974417825530554	0.9767796828942381	-0.0878227252457385	-0.19541908815528564	0.11100316327380338	0.9876016486774136	0.11100126698765098
400														9.47987132840737	-1.9397326730659075	1.1048684088371443	0.18308999857987518	-0.12962635658306876	0.9745127295725906	0.9768805415124296	-0.087303024049845	-0.19514760978842394	0.1103741819195237	0.9877120985746564	0.11064515486384649
401														9.411337302694156	-1.9627998121863006	1.1542338082556254	0.1829119949468781	-0.12914740192661667	0.974609742758689	0.9769641308959346	-0.08696870154943145	-0.19487824889801558	0.10992856338233581	0.9878043295746433	0.11026476058235887
402														9.39125862738276	-2.018360704431796	1.216653451926868	0.18272943136358666	-0.12859500335985347	0.9747170256153422	0.9770647473891911	-0.08650110669236327	-0.19458169993679397	0.10933633578475377	0.9879174477920085	0.10983934643509091
403														9.327601578363982	-1.9548550892115728	1.2366915027681429	0.18255625379873036	-0.12810658709590161	0.9748137855722054	0.9771468447583614	-0.08616798650891058	-0.19431706533338455	0.10889103717823706	0.9880100102952603	0.10944844255907629
404														9.322995457687588	-2.0357774214916144	1.2266109165748553	0.1824507205142386	-0.1275016527502833	0.9749128489920422	0.9771854784277616	-0.0861286201398174	-0.19414015953098712	0.10872108964566735	0.9880916907548392	0.10887853474170908
405														9.396130221680943	-2.104260431886343	1.144796167388197	0.18243762139357755	-0.12695569819785701	0.9749865460586356	0.9771858811946559	-0.0862573594633399	-0.1940809664347224	0.10873944957593501	0.9881507570373594	0.10832272832797318
406														9.419470548830391	-2.0453214004535774	1.1092376224019798	0.18242879661893585	-0.12653975182739546	0.9750422685051291	0.97721760285993	-0.08606748514997373	-0.19400552739716304	0.10846884725514194	0.9882206632161767	0.10795568520333007
407														9.421804280782522	-1.998975725192366	1.074766950130045	0.18244519065988096	-0.12623641587911844	0.9750785197670366	0.977229874880255	-0.08598621983140087	-0.19397974543912622	0.10833062377094432	0.9882665315111615	0.10767422462362031
408														9.389544850797023	-1.8962233189557083	1.0804660348347	0.18243972346846354	-0.1258798830731344	0.9751256341304155	0.9772699765708397	-0.0857006230345691	-0.19390408996387237	0.10797749855401068	0.9883368141726692	0.10738343241412024
409														9.37228827565856	-1.8649732083488362	1.0805718225007146	0.18244695983291465	-0.1256012305208798	0.9751602113188211	0.9772890651624573	-0.08556797046135228	-0.19386646317766226	0.10779234648906016	0.9883837581237189	0.1071370930892585
410														9.399318852335803	-1.905515908985705	1.0563741008814183	0.18232793353375992	-0.12518996093775175	0.9752353553546517	0.9773361427732987	-0.0854346552175971	-0.1936878512371415	0.10756667087123029	0.9884474661651247	0.10677554939884851
411														9.44193466147698	-1.8773234341781815	1.0529333778737577	0.18218863344191277	-0.12471441052975585	0.9753223147507615	0.9773967127036166	-0.08522607845785235	-0.1934739815759723	0.10725188968373484	0.9885255845737688	0.10636823211070334
412														9.48171325814049	-1.8446531319331188	0.9805609823747204	0.18209592123069845	-0.12431428999917743	0.9753907077541506	0.9774280832728335	-0.08518564728565975	-0.19333325509626487	0.10712337513697728	0.9885794671135563	0.10599631927920367
413														9.578086829754971	-1.858144707393553	0.9031798225343213	0.18197688278891766	-0.12393519081339788	0.9754611640698337	0.977435197366769	-0.08541267037367589	-0.19319707732836683	0.1072606595123008	0.9886074773223619	0.10559548618810283
414														9.589977657595156	-1.8270588525268958	0.8844419223973846	0.1818647977492825	-0.12358103180676544	0.9755269980462806	0.9774754555943808	-0.08531610110939236	-0.1930359982025377	0.107083747833977	0.988660149631342	0.10528142989512468
415														9.561765210274585	-1.776417654998882	0.833674626537879	0.18169231927566726	-0.12316899219589261	0.975611244542455	0.9775192740519124	-0.08530789492501262	-0.1928176130971596	0.10697649261988312	0.9887122748428442	0.1049002745555841
416														9.544984160707848	-1.789928757604989	0.8977376688826162	0.18146940461091438	-0.12247115168535172	0.9757405762778466	0.9775880186328366	-0.08521688704168881	-0.1925090854698786	0.10672638387805145	0.9888068057855326	0.10426207276151375
417														9.569956512175908	-1.8702073826883827	0.8667230093071954	0.18112956640455108	-0.1215467834032512	0.9759192895001219	0.9776724956576873	-0.08523664028876188	-0.1920708368981447	0.10652967384052597	0.9889191547323812	0.10339407137173684
418														9.681572011322883	-1.9023087529980824	0.9036857344350702	0.18062747490712144	-0.12063170148632679	0.9761258668354152	0.9778331730064957	-0.08483879539565278	-0.19142796181295735	0.10590562344241061	0.9890654029902817	0.10263346204306859
419														9.71029988324581	-1.9838168685770916	0.9424113632439619	0.18003189724253227	-0.11991526336520902	0.9763241498535755	0.9780385830138225	-0.08414567449229018	-0.19068307633492748	0.10501926543053203	0.9892117240895855	0.10213284883983889
420														9.693080404792097	-1.850655779371672	0.9995609099268414	0.17945698947614586	-0.11940994053263582	0.9764919124243432	0.9782379057574164	-0.08341878742006392	-0.18997869787086769	0.10414311627516581	0.989334408583548	0.10184124569710795
421														9.649320838996791	-1.9556578327334062	1.0264821067529695	0.17907921368677926	-0.1190478903646277	0.9766054653876644	0.9783045311478356	-0.0835536390335915	-0.18957593133058348	0.10416755522204896	0.9893666606491124	0.10150237058850145
422														9.616294334865996	-2.0338640992167174	1.0374655543607156	0.17876027106692816	-0.11871417441417398	0.9767045153377961	0.9783690619636396	-0.0835929039327252	-0.1892252758076518	0.10410928911709105	0.9894034420827811	0.10120318529709768
423														9.641168449910372	-2.114681150018251	1.0106494342843684	0.17849473711577812	-0.1184122856815682	0.9767897211895897	0.9783761686213222	-0.0840715850728306	-0.18897629813604822	0.10449737554518795	0.9893990596230667	0.10084542290634443
424														9.548309631118137	-2.191085654254433	1.0245939023792625	0.1782448104279183	-0.11821334134537193	0.976859454314426	0.978400857579927	-0.0843335769064037	-0.18873158106961163	0.10469264273280693	0.9894005527258082	0.1006280121213104
425														9.569752281621307	-2.2682854303973716	0.9302732918850248	0.1780913097783302	-0.11807098858985121	0.9769046662980243	0.9784223173574558	-0.08443838678132462	-0.188573401450559	0.10475330199237182	0.9894086114903099	0.10048554737131263
426														9.57219622489316	-2.2672154695784745	0.9641450261592205	0.17789788366074227	-0.11794308928266761	0.97695535756732	0.9785027327349869	-0.08405510744007891	-0.18832721774454098	0.10432998140128263	0.9894565006121783	0.10045440944583048
427														9.593144434376033	-2.2043971923893735	0.8974513029995185	0.17779238195658353	-0.11777368806752142	0.976994998614209	0.9785775186545717	-0.08356995725555946	-0.1881544637476491	0.10380707539501216	0.9895177717672776	0.1003925816714368
428														9.589915042877877	-2.148034738441807	0.951450415183898	0.17775387370594015	-0.11737118265238755	0.9770504418223829	0.9786500491424042	-0.08302483995168261	-0.18801850245273272	0.10318741055043207	0.9896114800434452	0.10010732675543385
429														9.641973317156173	-2.136054914300419	0.9643326984195898	0.1778333065604632	-0.11700146911478121	0.9770803300152738	0.9786808483580818	-0.08265307331636784	-0.1880219841626654	0.10275754052564123	0.989686377443048	0.09980862772716192
430														9.61299445040999	-1.994460781764969	1.006484202538396	0.1779666840430973	-0.11665927915614421	0.9770969613899504	0.9787003164877197	-0.08228329320751257	-0.18808282793961995	0.10234036289530402	0.9897575825653958	0.09953078858706063
431														9.581646736485046	-2.035880850572376	1.0207221361594572	0.17820683450788466	-0.11645106590220361	0.9770780282991323	0.9786638389981706	-0.0822288152499461	-0.188296341387593	0.10227127833386135	0.9897866291240908	0.09931271034025294
432														9.571810841408082	-2.0207974624423026	1.0029693103023165	0.17846555077135512	-0.11615289053765132	0.9770662992896774	0.9786579049074465	-0.08186012234908324	-0.188487733105263	0.10187616183408454	0.9898522245207826	0.09906473268128213
433														9.532993348023638	-2.00487029351575	1.0043856994653668	0.1787024748231208	-0.11597191118304845	0.9770444930035904	0.978636224515274	-0.08166113952469026	-0.188686508150475	0.10166890162966286	0.9898898797886966	0.09890126558006088
434														9.588458998115838	-2.0480414990937676	0.963831837937393	0.17881059910008518	-0.11578162360626687	0.9770472789402594	0.9786884946996738	-0.08098317656753068	-0.1887075924691915	0.10097326374815718	0.9899678483406058	0.09883349260203339
435														9.561481061672833	-1.9580186199752352	0.9188121894624598	0.1789737932809619	-0.11575989673700782	0.9770199729923958	0.9787231363947729	-0.08033659164022458	-0.18880427518785636	0.1003464179938851	0.9900230696054867	0.09891874465806463
436														9.631473951006027	-1.8823501733383479	1.0248368110746833	0.17906609037025745	-0.11573961034015834	0.977005464610009	0.9787914839523538	-0.07948663483351004	-0.1888097079739115	0.09951163862513918	0.9900940447660278	0.09905158402058578
437														9.576983101283533	-1.7941603772985404	1.0341048515721396	0.17930247491013732	-0.11581558995053337	0.9769531061496812	0.9787802904850493	-0.07912798408000463	-0.18901826656023973	0.09919559188342442	0.9901138880249307	0.09917017339428566
438														9.522716046578752	-1.8471555651192837	1.0175975365830814	0.17956557941932436	-0.11584905128354256	0.9769008138007182	0.9787633064335977	-0.07878207050920008	-0.18925056233854354	0.09888676689514025	0.990137557455017	0.09924225234263698
439														9.488329394343374	-1.8417683703474392	0.9339457571276548	0.17986286266273344	-0.11591367630271021	0.9768384565939019	0.9787256141926122	-0.0785696750893562	-0.18953358087591266	0.09871941429151515	0.9901468708238907	0.09931591735264134
440														9.48538866200605	-1.8851771559987136	0.9324082378520073	0.18012539681566606	-0.11590776741686087	0.9767907815261349	0.9787162273130092	-0.07815292487134759	-0.1897542271683117	0.09833304539262777	0.9901805440355269	0.09936348623774746
441														9.473589880073707	-1.868156557768624	0.8829861219146746	0.18032703570498093	-0.11595032307722614	0.9767485258612586	0.9787111735088119	-0.07780035582029982	-0.1899250996662622	0.0980132595257367	0.9902033261974643	0.09945236922577033
442														9.507770061922807	-1.7845092381196461	0.8694220341623844	0.18046943479177208	-0.11585247018478417	0.9767338369576548	0.9787483653746928	-0.0771617063358743	-0.1899939692508787	0.09737772015356455	0.9902647505730073	0.09946508628797382
443														9.511390454326976	-1.698122872881697	0.8391494023812772	0.180680940856029	-0.11568386122349478	0.9767147187709437	0.9787309029762543	-0.07695324390834604	-0.19016839330253876	0.0971607800023579	0.9903006828758659	0.09931938544376731
444														9.46907282415256	-1.767930743863005	0.8707392079200632	0.1808701349586085	-0.11540799664791579	0.976712336663037	0.9787424008740486	-0.07651300322035154	-0.1902868179078786	0.09669181460371096	0.9903669797847249	0.0991157825006917
445														9.581928622335143	-1.763294716665527	0.9158897736041424	0.1810604804541209	-0.11523482208343389	0.9766975162234839	0.9787224918032784	-0.07637053744760822	-0.19044638365783023	0.09653696937497497	0.9903981405421574	0.09895522600920245
446														9.452191465105958	-1.6945030644294081	0.8377476108210211	0.18119575144438396	-0.11488884689539319	0.9767131884629963	0.9787421845506403	-0.07596419908813254	-0.19050768130954587	0.0960824429307765	0.9904695822265044	0.09868217085425621
447														9.569695334995666	-1.6487016698852808	0.918179057951279	0.1812860836022571	-0.11456733677822889	0.9767341916999221	0.9787182641956289	-0.07609181956211264	-0.19057962725753974	0.09615568221406029	0.9904970269209654	0.09833475702251915
448														9.609881925303506	-1.6200714252673696	0.8803612587232474	0.18131392077993344	-0.11429447957152866	0.9767609912721138	0.9787136389249704	-0.07613675324115232	-0.19058543435462083	0.09615027360154338	0.9905250964742741	0.09805691276487882
449														9.556984579743377	-1.717196648576543	0.9285343116388776	0.18134332435223713	-0.11430834181690513	0.9767539105137736	0.9786756813774535	-0.07646539301736566	-0.19064877222546356	0.09648061667120611	0.9904981810491977	0.09800430574711716
450														9.559170501244793	-1.7683978222332308	0.839704738075136	0.18133709253324626	-0.1144235690483898	0.9767415757086502	0.9786657233684314	-0.07655755309016207	-0.1906629040180381	0.09659327500055803	0.9904777574035042	0.09809970088431039
451														9.480963836534531	-1.8289985151838593	0.7550438113446757	0.181374254409101	-0.11459403612485247	0.9767146905428213	0.9786226687208066	-0.07689065183216251	-0.1907498359805116	0.09695902280504687	0.990432246317456	0.09819833680490334
452														9.427071035745133	-1.8801232199978768	0.7388720986489914	0.1813275947775905	-0.11465934937507499	0.9767156889151817	0.9786443442817998	-0.07674946638384364	-0.19069548189467145	0.0968274278157778	0.9904356379950588	0.09829392764510217
453														9.431199994667455	-1.9324852601060152	0.68461856620417	0.1813246337676098	-0.11463923132945858	0.976718600124536	0.9786524356263229	-0.07667651143247523	-0.1906833050825681	0.09675116243078635	0.9904436173931037	0.09828862260483251
454														9.492978425108278	-1.9357479985155734	0.7158541628616468	0.18125902479149528	-0.11443244512591116	0.9767550263162926	0.9787342618929686	-0.07600765701193082	-0.19053104910324442	0.0960437948462175	0.9905190818848784	0.09822188093024722
455														9.551335416078668	-1.9352496612548284	0.6776442045112231	0.18127447468602234	-0.11418462746099478	0.9767811605876215	0.9788035667534116	-0.07530724892440821	-0.1904531332644266	0.09530552207562204	0.9906011756055166	0.09811303863840959
456														9.603741988696788	-1.8282741089054613	0.7834166841520328	0.18127071270072911	-0.11385059451182794	0.9768208489002844	0.9789211742689785	-0.07414973743738237	-0.19030278769847442	0.09409709498604657	0.9907269344109253	0.09800958191889372
457														9.648710086967922	-1.8983157169745766	0.7597026411806975	0.18131643095580033	-0.113631565196607	0.9768378674357475	0.9790124953297147	-0.0731312025947351	-0.19022713054486345	0.09305313457232478	0.9908277825121863	0.09798683354536847
458														9.625592840184039	-1.8999746066547767	0.8820417098962098	0.1813199246976087	-0.11334787903855542	0.9768701772626257	0.9791634214618072	-0.07155792393890217	-0.19004856640543444	0.091444403759115	0.9909751368419969	0.09801121967471207
459														9.59342701839943	-1.8415506075235595	0.9559486688526192	0.18129291179368032	-0.11311629546745278	0.9769020338975083	0.9792727751133727	-0.07046779168091835	-0.1898923965233153	0.09032005344950905	0.9910797112419032	0.09799639743145253
460														9.624812726113584	-1.8405712530144909	0.9714375357615067	0.18119603899130932	-0.11280584583283249	0.9769559030989061	0.9794054848024665	-0.0692695564716388	-0.18964868806577123	0.08906678276835689	0.9911995609826316	0.09793129487111174
461														9.636208419969142	-1.809035444082596	0.954367250171771	0.1811340155400112	-0.1126255561708337	0.9769882048988929	0.9794429922644409	-0.06902062453307503	-0.1895457155758012	0.08878002770009275	0.9912374274038862	0.09780832886465299
462														9.649315132583517	-2.0151297766515412	0.8578831283446602	0.1810212498321276	-0.11252779570519239	0.9770203694411623	0.9794942635169981	-0.0687106707869719	-0.18939332474323906	0.08844373831147179	0.9912700635617597	0.09778223887678716
463														9.57513006732235	-2.0780675529502606	0.8422828979057916	0.18092550592793583	-0.11261978094333386	0.9770275053676818	0.9794970878344305	-0.06886899847605793	-0.1893211978959944	0.08860821761320997	0.9912486297539986	0.09785058907451599
464														9.617582395002932	-2.1901564088364798	0.819462499127789	0.18083616147246342	-0.1126611986757502	0.9770392709696207	0.9795669107924836	-0.06827149491596288	-0.18917629413435993	0.08801675967891187	0.9912852552594951	0.09801322727439335
465														9.569014192798425	-2.156148104280666	0.8082513037015492	0.18084285979441056	-0.11270723089092383	0.9770327221573901	0.9796204217693456	-0.06764314981434882	-0.18912491516361307	0.08740531627898507	0.9913230978788371	0.09817752440389327
466														9.555382463379024	-2.084092733615616	0.8488875199056435	0.18087964994355327	-0.11266489437514315	0.9770307947100423	0.9797277259493635	-0.06634388743309086	-0.1890292876946733	0.08611698579483523	0.9914157100710601	0.09838066162569217
467														9.547422975120973	-2.068183898844626	0.8693273096230661	0.1809482600985907	-0.11249725529404508	0.9770374070211432	0.9798250432043167	-0.0650937144205399	-0.18895950109109533	0.08485641918529946	0.9915176124982568	0.09844903366110358
468														9.52563292510397	-1.9821600259256817	0.9270055862128358	0.18103563443409748	-0.11227950880957005	0.9770462685904517	0.979936180545308	-0.06362653170098811	-0.18888289102503725	0.08337374360862532	0.9916375226690366	0.09850808348302378
469														9.517597565856612	-1.9668617178931485	0.9464385642956121	0.18123919885270262	-0.11224509273151678	0.9770124830097735	0.9799446556171694	-0.06306226371237572	-0.1890281006168586	0.08283009553644716	0.991677462713136	0.09856462458843468
470														9.492356391003003	-1.9676157628071222	1.0354734569259427	0.18145360387566364	-0.11211185828668041	0.9769879839957305	0.9800037439630542	-0.06187518444156495	-0.18911404857577213	0.08165323912087591	0.9917673077803233	0.0986425656562088
471														9.441443193574331	-1.8818630236837233	1.1107657437565803	0.18165726832045503	-0.11188916432688462	0.9769756659060567	0.9800348599773092	-0.061056981377300534	-0.18921870482156083	0.08082270779680178	0.9918431629704993	0.09856383704518312
472														9.523177682086322	-1.7857043994185668	1.0398435746894235	0.18185532844104513	-0.11169182606518291	0.9769613991902777	0.9800395991777318	-0.060564470214571675	-0.18935239367692053	0.08031826418163451	0.9918955998177699	0.09844844082562199
473														9.578390121151145	-1.830448297261946	1.0007448722729944	0.18203854548136036	-0.11185628079231874	0.9769084606074112	0.9799738053994711	-0.06090537396037157	-0.18958342795093708	0.0807050722687957	0.9918561931399422	0.09852909945813595
474														9.548684523645548	-1.9256904857167938	0.9323106323477913	0.18217329907059018	-0.11216111863899164	0.9768483877098779	0.9799738956560002	-0.06052297009277274	-0.18970538717693947	0.08039933419214679	0.9918451762028184	0.09888929924243639
475														9.469752604085338	-1.9363180248063696	0.9750212152659112	0.18234345030997556	-0.11264012679036994	0.9767615205185463	0.9799365752544141	-0.060482388932724285	-0.18991100312420145	0.08046846964931825	0.991793366818734	0.09935161260219527
