// Start Time: 1748342924.2155054
// Update Rate: 100Hz 
// Filter Profile: 46.1 human
// Option Flags: AHS Disabled ICC Disabled 
// Firmware Version: 4.0.2 
PacketCounter	SampleTimeFine	Year	Month	Day	Second	UTC_Nano	UTC_Year	UTC_Month	UTC_Day	UTC_Hour	UTC_Minute	UTC_Second	UTC_Valid	Acc_X	Acc_Y	Acc_Z	Mat[1][1]	Mat[2][1]	Mat[3][1]	Mat[1][2]	Mat[2][2]	Mat[3][2]	Mat[1][3]	Mat[2][3]	Mat[3][3]
0														9.723326817715007	0.2643765084298659	1.0562463990239461	0.04958431525513553	-0.10049165338226296	0.9937015765717484	0.7675377360775718	0.6404570172862027	0.026469467425244253	-0.63908310834945	0.7613909880011448	0.10888775878419703
1														9.69681465170765	0.22373926826294305	1.0497615949821348	0.0497168167126214	-0.10044232161605843	0.9936999437276528	0.7673447966094622	0.6406923201176133	0.02636880844280004	-0.6393044667858554	0.7611995079942488	0.10892707549992803
2														9.743478677797357	0.21698913711788367	1.0863225185208087	0.049651676544985535	-0.10041527199075295	0.9937059344530934	0.7671952770240237	0.6408689643531966	0.02642683183609451	-0.6394889505912547	0.7610543631567227	0.1088583409381732
3														9.749797158916513	0.30565622268243053	1.062918922052541	0.04972202635885732	-0.10047507534174466	0.9936963718006823	0.7670659742285688	0.6410234511161845	0.026433431481238168	-0.6396385786329227	0.7609163517458193	0.10894399648574886
4														9.703509266903223	0.2794680265381673	1.0526117723496344	0.04974947769123124	-0.10059559250443278	0.9936828046404604	0.7670771224385269	0.6410078494008298	0.02648820941385105	-0.6396230747095344	0.7609135718169342	0.10905438333196964
5														9.643487083170353	0.26667384272542366	1.0136619352859564	0.04975354277605759	-0.10063750701780777	0.9936783569961019	0.7669248880588142	0.6411879178358152	0.026538087673153854	-0.6398052837052903	0.7607562988254606	0.10908277930168586
6														9.677262327710633	0.32747964733829127	1.0479421108341829	0.049793880567491344	-0.1006636945275372	0.9936736838933077	0.7669711329472444	0.6411335080255418	0.026516148145664276	-0.6397467082241618	0.7607986892016371	0.10913067316488112
7														9.656081854859234	0.3207362912136359	0.9931415915071536	0.04976173333445745	-0.10069405092175254	0.993672218593495	0.7668610734734588	0.641262537129569	0.026579173525208166	-0.6398811326228375	0.760685918486149	0.10912868335226548
8														9.689429711647735	0.2933128464376698	1.0270425846315383	0.04975767431397225	-0.1006604670804449	0.9936758245091866	0.7669527712291817	0.6411542800577827	0.026544978196738733	-0.6397715377779349	0.7607816109309776	0.10910417003269553
9														9.722341593234194	0.1777873630704299	1.0605760823412733	0.049835876259901976	-0.10062020947705297	0.9936759828446103	0.7666594137137077	0.6415065200055883	0.026509020247349024	-0.6401169649380981	0.7604899461762229	0.10911147035634668
10														9.755267543752819	0.18438447702637992	1.068425502329776	0.049767564284625795	-0.10054137893538379	0.9936873857843559	0.766590346583844	0.6415885044174499	0.026522283533702118	-0.6402049906628641	0.7604312080136846	0.10900434766196583
11														9.827977061218439	0.2519472795868788	1.0857610899556014	0.04967456098157065	-0.1004718605054743	0.9936990707643123	0.7665468760047915	0.6416390414711786	0.026556116945876562	-0.6402642617533669	0.7603977549325858	0.10888952849057708
12														9.822088832544477	0.2522088340662818	1.1093567367814363	0.0496668548403181	-0.10048839662463305	0.9936977838729846	0.7665788177766331	0.6416004178951391	0.02656727108609197	-0.6402266158685139	0.7604281595920765	0.10889855110586591
13														9.775414711410232	0.25930054756975296	1.0728988490555058	0.04971267313555813	-0.10045752883505127	0.9936986137808946	0.7666036924236714	0.6415731495451787	0.026507971349618464	-0.6401932746382998	0.7604552443655275	0.10890542881259782
14														9.702739954005015	0.3138445506490381	1.0296628163409085	0.04970609178651765	-0.10041650299865457	0.9937030896423896	0.7665115142608345	0.641683513616042	0.02650220479380644	-0.6403041487799938	0.7603675389434321	0.10886598539597046
15														9.729277243033488	0.3544735947942137	1.0358062880666772	0.04962063416106295	-0.10034135782986625	0.9937149513690092	0.7662827409052102	0.6419543835546013	0.026558057644147592	-0.6405845406004208	0.7601487889511436	0.10874403431847394
16														9.755314415120898	0.307317317834522	1.042176908509345	0.04959235421781262	-0.10037085903677956	0.9937133837577885	0.7662733659500164	0.6419638214695205	0.026600386461136494	-0.6405979449223727	0.7601369235739496	0.10874801322674481
17														9.709643376210387	0.24685631850509548	1.056288711084264	0.04949962369793574	-0.10034992779221552	0.993720121183958	0.766507986502947	0.6416829290154428	0.02661813737586799	-0.6403243661465344	0.7603768214525346	0.10868208461738084
18														9.709176106290766	0.1587780110897335	1.0563350669126277	0.049471142365607124	-0.10032769172962502	0.9937237847335885	0.7666515601763306	0.6415120876348095	0.026601253685240245	-0.6401546620561627	0.7605238955421676	0.10865271721004649
19														9.721441727277744	0.12464238492645789	1.0344932071619954	0.04954542821681071	-0.10030890036310036	0.9937219807626071	0.7666491171467601	0.6415178518608349	0.026532563425988198	-0.6401518427067964	0.7605215120243518	0.1086860065845068
20														9.682607133923845	0.11767087270144094	1.0505244439431718	0.04960885569731503	-0.1002939607957965	0.9937203242685011	0.76662742769918	0.641546027159847	0.026477955637774497	-0.6401729051871392	0.7604997149659616	0.10871446546320247
21														9.702681014185435	0.19162332059165518	1.0558330998816152	0.04967611274650843	-0.10023366962812719	0.9937230475818075	0.7663485989437525	0.6418808511789298	0.026434783652603933	-0.640501450989257	0.760225087959278	0.1087000778194955
22														9.696235620087393	0.22515571806784518	1.0547951709991863	0.049763462765196984	-0.10025742505069601	0.9937162806836872	0.7662868202937119	0.6419562946942916	0.026393649738679026	-0.6405685808855826	0.760158249593188	0.10877191162083617
23														9.650461356346153	0.28605430155608014	1.0444393006012715	0.04985277741757459	-0.10029636077004095	0.9937078748807621	0.7660731889822656	0.6422115032941603	0.026386628416629254	-0.6408171109655986	0.759937513913441	0.10885038006715077
24														9.677338578411137	0.2923193705867617	1.0774128835335182	0.049952284729983115	-0.10030989171623839	0.9937015119612789	0.7660116968078458	0.642287190122875	0.0263295605285635	-0.6408828673040186	0.7598717595936427	0.10892226295960564
25														9.68315450184262	0.29168767085822306	1.054687285691117	0.0501300709348137	-0.10029197006972301	0.9936943678654945	0.7659168818779309	0.6424056370667679	0.02619785333243768	-0.6409822977606	0.759773991529306	0.10901915314827831
26														9.704132616811357	0.29753927067111824	1.111338937044273	0.05027428706441728	-0.10029724063035972	0.9936865499653809	0.7659035475088469	0.6424258014426409	0.02609301734458641	-0.6409869358836644	0.7597562458859533	0.10911551156345656
27														9.72957782035322	0.28301709465602326	1.0936385097553125	0.05049521531250295	-0.10027125594419112	0.9936779702005667	0.7657256007469619	0.6426441970969293	0.025937237677655045	-0.641182140730111	0.7595749542797059	0.10923072479725815
28														9.74276713262606	0.30259118374193494	1.0976871912266524	0.05058494245200251	-0.10024909681255267	0.9936756423428094	0.7656606606424408	0.642724468746706	0.02586522798750268	-0.641252615075922	0.7595099577112414	0.10926896995835311
29														9.721658116556346	0.2953967131474497	1.0427025831104841	0.050638509507284074	-0.10021871494536227	0.9936759786417205	0.7655724259986258	0.6428314010330201	0.025819573902430837	-0.6413537260400529	0.7594234648867684	0.10927670874397707
30														9.722554119854777	0.3491416492760175	1.0688565863512458	0.05074644611548687	-0.10025439160978189	0.993666873338143	0.7655576034456858	0.6428513431658742	0.025762499807474804	-0.6413628879294052	0.7594018748678361	0.10937293282192526
31														9.636087065476193	0.29488276740576996	1.0232548396694203	0.05082384540328619	-0.10024391267477184	0.9936639747470344	0.7657891616501007	0.6425797090644843	0.025656917153823455	-0.6410802575634802	0.7596331189924876	0.1094240736405214
32														9.701241564973786	0.21946219721875385	1.040668381336711	0.050905546363027326	-0.10027784080239205	0.9936563691706969	0.7658702229583114	0.6424852670868951	0.02560240539613079	-0.640976931671701	0.7597085205658098	0.10950587584436003
33														9.733057368130346	0.1711328337171355	1.0245946605393441	0.05113277516867565	-0.10024277745660354	0.9936482400081706	0.7657418059681	0.6426452568981407	0.025427551573735774	-0.6411122568601085	0.7595778165231712	0.10962032087906642
34														9.706465943921822	0.1297827244290728	1.0187990354292515	0.051215509332042025	-0.10021017687210276	0.9936472674219564	0.7657514517853029	0.6426371655043441	0.025341420663464898	-0.6410941316940594	0.7595889638243856	0.10964907817047945
35														9.648995900941141	0.19037644942183565	1.0549235436570414	0.05134991851555047	-0.1001120809778186	0.9936502186940521	0.7654626875692867	0.6429856963192606	0.02522435862496708	-0.6414281407980567	0.7593068981453592	0.10964932567609349
36														9.715357674630043	0.290968806471846	1.0711292041500966	0.0513719391347046	-0.1000178999710849	0.9936585648777524	0.76532401732424	0.6431528649953651	0.025170235496326188	-0.6415918269244293	0.7591777209149568	0.1095861108450575
37														9.735566159573581	0.3649215786080767	1.0758914193710283	0.051499732701702564	-0.09995430097023383	0.993658349358171	0.7651699229797978	0.64334058612381	0.025057518092638897	-0.641765351587902	0.7590270271626858	0.1096138929964262
38														9.700654202004273	0.24958173104663725	1.017622585780227	0.05155755779319192	-0.0999745803122285	0.9936533105292793	0.7652968599729868	0.6431916373854629	0.02500467382099969	-0.6416093315639113	0.7591505785341942	0.10967162240666435
39														9.641176437096275	0.20224943853702537	1.0034506333309703	0.05155059670026686	-0.09995883253783455	0.9936552560005506	0.7652725337556527	0.6432206080418887	0.025003969073455534	-0.6416389055060875	0.7591281059135515	0.10965415520195342
40														9.727005019736254	0.16773093217609772	1.0500308578772866	0.05149592180056679	-0.09988154074279681	0.9936658632844115	0.7653246364693882	0.6431592765583494	0.02498691237306716	-0.641581149076957	0.7591902415045819	0.10956188366994128
41														9.739900186834793	0.22182627659899604	1.0275057705173116	0.05141827519134183	-0.0998286328504503	0.9936752009784471	0.7655842607090244	0.6428509527242561	0.02496782601935288	-0.6412775535842212	0.7594582915767831	0.10948151727259677
42														9.746264393609477	0.1881644088951836	1.0289820232705393	0.051377239660191656	-0.09981339870516437	0.9936788538978899	0.76555239006835	0.642887856134231	0.024994849384821882	-0.6413188889355569	0.7594290551947936	0.10944218939881882
43														9.714393501022737	0.23577094118189842	1.0458481853631054	0.05124535360350205	-0.0997284862370223	0.993694189762084	0.7656166397538036	0.6428099717717621	0.025030004452282373	-0.6412527385252612	0.7595061350796706	0.10929481282382356
44														9.688073333535156	0.31701399339722824	1.0132616617189523	0.05117925624454775	-0.09962868874446507	0.9937076069495061	0.7655502433835204	0.6428891463279852	0.025027392774873203	-0.6413372814562461	0.7594522170042916	0.10917335527306463
45														9.734772246917501	0.31007099035356567	1.0489763724200818	0.05109151193607672	-0.09949382036169313	0.9937256347291851	0.7652644432042599	0.6432282119137931	0.025055924757625858	-0.6416852728365837	0.7591827494800055	0.10900258490797052
46														9.709355766268107	0.32407232478792974	1.0665115604922486	0.05096790820627019	-0.0994111106893677	0.9937402595268967	0.7653144983979719	0.6431673833978868	0.025088552668030506	-0.6416354033833687	0.7592451172082848	0.10886166047070915
47														9.708864745349137	0.23647924100272213	1.0657773449740606	0.0509605814071742	-0.09936092092177573	0.9937456548514915	0.7650784279788819	0.6434476695005928	0.02510170622923269	-0.641917454338177	0.7590141658808699	0.10880936452420768
48														9.72793980465818	0.13505023816643708	1.070574481736244	0.05093602071945416	-0.09935636301739059	0.9937473697682039	0.7651871134857915	0.6433185172776892	0.02509913709507261	-0.641789843444526	0.7591242312399146	0.10879429394898857
49														9.733407737854678	0.1688452333610416	1.0216414932446953	0.0509188735555587	-0.09932290677518335	0.9937515929574963	0.7654262471346944	0.6430358885559087	0.025050074379345533	-0.6415059847835645	0.7593680308117015	0.1087670228885023
50														9.656794567055503	0.21000592263819565	1.077900321712758	0.05090208570597843	-0.09928728471224302	0.993756012693886	0.7653950640307176	0.643073196077713	0.025045168073083324	-0.6415445219376399	0.7593410956749709	0.10872776458172856
51														9.65742968958541	0.29826183111979154	1.0771151563464962	0.050791499282870536	-0.09915587096995065	0.9937747918179389	0.7650414532992076	0.6434915164443717	0.025104640964543234	-0.6419749203313427	0.7590038086309664	0.10854225052601733
52														9.691457828224022	0.3596624452159492	1.109176928219659	0.050646679719197646	-0.09905789298214207	0.993791953917599	0.7648690615899074	0.6436934267975822	0.025181162009720703	-0.6421917411926092	0.7588453769612911	0.10836725247269444
53														9.691558369862383	0.36045965778132416	1.1080390091622851	0.05059300577875814	-0.09899523460705606	0.9938009314200531	0.7647050581179674	0.6438871523446255	0.025209306502277984	-0.6423912529409685	0.7586891844297134	0.10827834305303036
54														9.7294362922047	0.3136374210196895	1.0663105199800411	0.05043000334595757	-0.09894295793477015	0.9938144222326646	0.7646816124401113	0.6439112777206556	0.025304110736083185	-0.6424319780011871	0.7586755284700245	0.10813230850310665
55														9.798719417103287	0.2529599838231054	0.9824557870729904	0.05036178545634405	-0.09894803056155854	0.9938173764900864	0.7646998130014525	0.6438876006591592	0.02535653195795856	-0.6424156649406931	0.7586949617371794	0.10809286966968253
56														9.746054012574781	0.13839962990168472	0.9954604457825065	0.05041831430890152	-0.09904201922168138	0.9938051479091571	0.7650102895621169	0.643520054226993	0.025321861538496526	-0.6420414709707899	0.758994478396372	0.1082133601616931
57														9.677747163968398	0.05035451804200418	0.9041021341903557	0.05047158799843751	-0.09902380010074169	0.9938042593079004	0.7649783161748349	0.6435599169171764	0.025274673486944288	-0.6420753807671111	0.7589630559857083	0.10823255084125119
58														9.689458709281688	0.1310883725666663	1.0828548956036663	0.05046917175769648	-0.09889827255164557	0.9938168817183543	0.7649913819375418	0.6435475868677656	0.025193034711332496	-0.6420600036315788	0.7589898781426382	0.1081356398863993
59														9.754853275870136	0.17761863679555323	1.073342765706532	0.05049938894502849	-0.09879941207097986	0.9938251797426988	0.7649791512472881	0.6435654506181865	0.02510794550713419	-0.6420721998912252	0.7589876065819778	0.1080791523921396
60														9.75544327043064	0.2657872698204932	1.072814572136429	0.050438508997449144	-0.09875570399890438	0.993832615553442	0.7648400426777033	0.6437291392361002	0.02514964045705248	-0.6422426846036347	0.7588544697279123	0.10800105484246889
61														9.774615740957111	0.28640759221984396	1.0522527427533248	0.05036397255362279	-0.09876281288196076	0.993835689166102	0.7648155644616095	0.6437556490998739	0.025215404205955916	-0.6422776834250803	0.7588310556663076	0.10795742832463878
62														9.781911179533923	0.30700002312374175	1.0796885414089392	0.050380755333986824	-0.09880882564870602	0.9938302649174555	0.7648595275006329	0.6437030402070414	0.02522497214508118	-0.6422240128518124	0.758869693690646	0.10800511707497619
63														9.716484274843348	0.2600707659170478	1.0895666271501585	0.050451269932891854	-0.0988463195960042	0.9938229593164384	0.7650167142515583	0.6435184199649934	0.025168831548327775	-0.6420312268713323	0.7590213753696815	0.10808540814563648
64														9.727205989708889	0.20605903230596118	1.0178647919451083	0.05042597348477054	-0.09894203411099045	0.9938147186896023	0.765149598718222	0.6433581042780774	0.025227787082157782	-0.6418748419898208	0.7591447974831274	0.10814741640392758
65														9.688746338817875	0.166161333496285	1.0596724193089115	0.05046178905980049	-0.09901284854379672	0.993805848075029	0.7651412468687504	0.6433672591980935	0.025247616364077352	-0.6418819830662165	0.7591278058503567	0.10822427731246352
66														9.661691741342977	0.15990423750568836	1.0284853313240812	0.050430567394465955	-0.09904932498378011	0.9938037980871928	0.7651711717874938	0.6433300003055225	0.0252900884191834	-0.6418487639137633	0.7591546232008037	0.10823318499988875
67														9.720069991787767	0.15307153466552673	1.0183779234390926	0.05047098444498983	-0.0990539987166627	0.9938012804718019	0.7651541312311196	0.643351251709618	0.025265042719508524	-0.6418659012512695	0.7591360037976775	0.1082621473507173
68														9.701371732623526	0.22119543055356838	1.0390867263426582	0.05044388791284472	-0.09906681712593374	0.9938013785041624	0.7650844452133705	0.6434325187660493	0.02530583898879707	-0.6419510930474266	0.7590654514196484	0.10825171867596338
69														9.728329087454934	0.22820131701108862	1.070998487886696	0.05038877060359212	-0.09902743430984956	0.9938080997109384	0.7650519235808011	0.6434703146072378	0.0253280169886701	-0.6419941791187631	0.7590385507161481	0.10818480717898724
70														9.755837201806767	0.3232494173780106	1.102494423146085	0.05032964360114764	-0.09898810013157444	0.9938150144807243	0.7649222314110602	0.643622840460052	0.02536964980559142	-0.6421533359471905	0.7589143530534096	0.10811150660969818
71														9.735722936900856	0.3711703505836353	1.072329273367601	0.05042262188887739	-0.09902199861381794	0.9938069244035164	0.7649597353744588	0.6435804523243566	0.025314119416143366	-0.6421013646284282	0.7589458776332485	0.10819885565849993
72														9.66252967428509	0.33827003100488634	1.0295731254734468	0.05037421103404609	-0.09908034960649476	0.9938035636807467	0.7649672793377666	0.6435685874127363	0.025387690681713204	-0.6420961769122071	0.7589483234169702	0.10821248531152718
73														9.661500241971371	0.28490214141094616	1.0047183294054363	0.050400080818499546	-0.09912491025352177	0.9937978084201635	0.764910693405286	0.6436351076017891	0.025406286164607328	-0.6421615551928761	0.7588860918673266	0.10826096527651198
74														9.71393186219427	0.2790067801218687	1.0183315917347266	0.05030282532818067	-0.09924022852325237	0.9937912269720715	0.7649756195692252	0.6435524703387399	0.02554445899966279	-0.6420918370674733	0.7589411011162579	0.10828886280573521
75														9.726091109701587	0.24607053328265352	0.9974683649649796	0.05031104717233702	-0.09939300385477307	0.9937755427243862	0.7652586382438784	0.6432141201344436	0.02558929957616579	-0.6417538586760099	0.7592078940872513	0.10842213072086938
76														9.647802077985244	0.14520403544304583	1.0303654524792576	0.0503927835682437	-0.09954631314407181	0.9937560560337063	0.7655974093634124	0.6428116781968208	0.025568596946620004	-0.6413432576555834	0.7595285892665329	0.10860546922929229
77														9.69191786988742	0.06362306685590284	0.9927039642885642	0.05032986129155319	-0.09959757089513438	0.9937541088891967	0.7656941563559247	0.6426938454892148	0.025633569643607246	-0.6412326909825804	0.7596215800265771	0.10860797011805641
78														9.69141211039834	0.09761580219636892	0.9678508797939681	0.050311759348786275	-0.09959122751390875	0.9937556612535612	0.7656062990697834	0.6427975193992833	0.025658212696863747	-0.6413390068410771	0.7595346841694597	0.10858794522275396
79														9.72116558129501	0.26707632774219864	1.0752887210011421	0.050314277256408205	-0.09948302538213599	0.9937663715204808	0.7652721051108482	0.6431959663659061	0.02564281555989384	-0.6417375465432702	0.7592114833901322	0.10849352443892078
80														9.72762096024351	0.355424679207522	1.0509260675690844	0.05025332564815474	-0.09945544056507288	0.9937722166589826	0.7651922061014396	0.6432893297069816	0.025685132017462864	-0.6418375892567469	0.7591359915240152	0.10842995614652687
81														9.687862672390086	0.29505959901118145	1.0412270330300084	0.05028240168094254	-0.09947832322893652	0.993768455571395	0.7651454087834162	0.6433449726389324	0.025685591250160733	-0.6418910994077232	0.7590858379575862	0.1084643126257392
82														9.707367113700274	0.2816316891078505	1.0473120120706814	0.05034285926709005	-0.09960754581469727	0.9937524507328704	0.7653150133169024	0.6431428576154076	0.025694261811467722	-0.6416841332872137	0.7592401474599849	0.10860880062120569
83														9.66012029845846	0.20095315234647357	1.0124490224586424	0.050373287613077966	-0.0997909344559324	0.9937325099318539	0.7656312493469302	0.6427646902073098	0.025736026230948228	-0.6413043910020491	0.7595362548444367	0.10878122842833693
84														9.693224586470675	0.17459301312231781	1.0479525583344866	0.05038089830885155	-0.09997392552746931	0.993713731061527	0.7656116567622617	0.6427833779718289	0.02585188644701275	-0.6413271833591162	0.7594963747232455	0.10892520675633156
85														9.706764512345087	0.16272236546168303	1.077682456931523	0.05037005037581749	-0.10009734585637292	0.9937018563823095	0.7652301909682448	0.6432312981216317	0.026004844692184836	-0.6417831509597629	0.7591007959877731	0.1089971039747758
86														9.766431264010365	0.3003127856472463	1.0927223377747892	0.050205842877490706	-0.10023505072900235	0.9936962855653204	0.7649678336829049	0.643532751955949	0.02626424547719125	-0.6421087032360204	0.7588270763259288	0.10898569384648059
87														9.811090937496228	0.3094387895788061	1.053788323244036	0.049991003181204266	-0.10037567071306469	0.9936929225519519	0.7647924807128252	0.6437294358251942	0.026549480170058593	-0.6423343062970092	0.7586416401576437	0.10894723848203051
88														9.790947580343094	0.23711635459037986	1.0494712977638234	0.049911393815164684	-0.10051173075769015	0.9936831712107843	0.7647794606756695	0.6437386480300438	0.026700740833976055	-0.6423559988791725	0.7586158085701515	0.10899920041631356
89														9.725151069302807	0.22489897814321227	1.033393674577689	0.04992420593759542	-0.10050364621706359	0.9936833453160903	0.7647525377820785	0.6437710660399318	0.02669026949434422	-0.6423870559229627	0.7585893695714998	0.10900017777849438
90														9.743830688539543	0.2794519224862147	0.9875903760994188	0.0498695358233886	-0.10051012987368557	0.9936854347274768	0.7647693095592368	0.643749350123681	0.026733450425007854	-0.6423713354073699	0.7586069390719499	0.1089705439044838
91														9.705420545480182	0.23950866126211118	1.0290048804834615	0.0498068627097127	-0.10059841212661252	0.9936796445055219	0.7649025685349253	0.6435875729191305	0.026815977191541718	-0.6422175153915456	0.7587324926887392	0.10900306171224121
92														9.652938646355917	0.12546015199197286	1.042052943554002	0.049717431606952245	-0.10067377418670187	0.9936764907078226	0.7648802822772616	0.6436090053477621	0.026937000922921728	-0.6422509873700974	0.7587043162037961	0.10900197152283769
93														9.731850291033156	0.16056855814837911	1.0618183137281312	0.049612302480075504	-0.10071442767578148	0.9936776255408825	0.7648160207479671	0.6436804324433061	0.027054672366239374	-0.6423356395607142	0.7586383228835326	0.1089624761217832
94														9.771439933213282	0.22336263861381717	1.071634742813238	0.04948964906731376	-0.1008350386216561	0.9936715099173186	0.7645830294484398	0.643948249399745	0.027266154375905016	-0.6426224130192169	0.75839498091771	0.10896553218420071
95														9.701718042820175	0.2871148048159759	1.1554713201218234	0.049487752804065005	-0.10104589449822254	0.9936501846864714	0.7641826945835368	0.6444145307384932	0.027472201807160423	-0.6430985706883894	0.7579707380751202	0.10910815093478957
96														9.687242936036368	0.3371179542133255	1.103085368210786	0.04941514936114125	-0.10136057919729557	0.9936217469431743	0.7640248121705797	0.6445894398356313	0.027758610197518296	-0.6432917140779344	0.7577799727078938	0.10929448092880703
97														9.673727138158377	0.3194610208672626	1.1018619300019603	0.04937008735442536	-0.10162917857700993	0.9935965501834125	0.7638792275122264	0.6447518670897141	0.027992064226347646	-0.6434680413586527	0.7576057945568329	0.10946387442425645
98														9.65176881753717	0.26055225895640677	1.0231198142035274	0.04933490152892213	-0.10190006556619724	0.9935705531711052	0.7638385505799495	0.644790923548302	0.02820165877478359	-0.6435190254678202	0.7575361651745296	0.10964589510608418
99														9.645592355022549	0.26265705578108384	1.0481893047970778	0.049285826491018495	-0.10203380970624643	0.9935592629450584	0.7635246741574188	0.6451547716551915	0.028379439094986247	-0.6438951616994072	0.7572083083850625	0.10970231744465224
100														9.679573179042016	0.2916779470315271	1.1074379105607435	0.04918122812881798	-0.1021075308239911	0.9935568725285779	0.7633073283165019	0.6454046415939814	0.028544196385050125	-0.6441607946297765	0.7569854032661212	0.10968121946788711
101														9.716560698042773	0.3130910062138012	1.016411212022587	0.04924036310546315	-0.10221153833674035	0.9935432492207263	0.7628958836365891	0.6458868392799055	0.028636717258802014	-0.6446435118509992	0.7565599726894423	0.10978046434844513
102														9.743761556578685	0.2876798198622091	1.074987601300523	0.049219938986348646	-0.10240141280188114	0.9935247094372432	0.7628464849335963	0.6459386292490072	0.02878415655130029	-0.644703527236075	0.7564900778596452	0.10990961772871104
103														9.677647105336598	0.18750974861849803	1.0607864666643836	0.049254837428425305	-0.10262300474679714	0.9935001156953321	0.762895952914824	0.6458753368035306	0.028893153775743974	-0.6446423240961473	0.7565140898923595	0.1101031597105777
104														9.748359594211692	0.14766669542010807	1.0308026610699725	0.04931740109444552	-0.10282116190962787	0.9934765234331632	0.7628054969675967	0.6459778400694408	0.028989721199738472	-0.644744575584245	0.7563996554750503	0.1102904957460876
105														9.708440945455605	0.2975029335256292	0.9970477297018342	0.04945206723324275	-0.10301147757858209	0.993450113761852	0.7624536267683177	0.6463894660183822	0.02907103796409738	-0.6451503391258492	0.756022019327181	0.11050677001095405
106														9.677907688653448	0.4205687231587151	1.091191162543726	0.04951618436019417	-0.10309296290503966	0.9934384673878236	0.7622790757568199	0.6465937707538463	0.029105090373529208	-0.6453516546424407	0.7558361837209058	0.11060246483908626
107														9.722573624212213	0.427456563055196	1.0535018793345428	0.04957137852248575	-0.10320286299679049	0.9934243038604634	0.7624302698454382	0.6464153253969774	0.029108602084817303	-0.6451687857102147	0.7559738065311428	0.11072868546145406
108														9.71486755128003	0.23116923207742923	1.0295217822022598	0.049691614296678385	-0.10338109110654864	0.9933997651853002	0.7626274285992327	0.6461831426933322	0.029098990482328724	-0.6449264676044177	0.7561479326828766	0.11095113916810274
109														9.6823337610842	0.19065245467973388	1.0485736221524002	0.049709093179213334	-0.10344443535561743	0.993392296552202	0.762952471298999	0.6458005958809208	0.029070894354970067	-0.644540559308761	0.7564660198275963	0.11102534959253403
110														9.755013819925253	0.2250135239047677	1.0930777412442207	0.04969183714510693	-0.10352204276132837	0.993385075377955	0.7628288601338062	0.6459427751719348	0.029155811601401294	-0.6446881815793595	0.7563339988825706	0.11106768506724952
111														9.774047005671715	0.24652553194871124	1.073648791381879	0.04965547907457034	-0.1036870752694733	0.9933696813472503	0.762608777449328	0.6461947647801632	0.02932880031557672	-0.6449513051038167	0.7560961026171027	0.11115978432918773
112														9.701695633292694	0.26894037025965795	1.0564926974059956	0.049578319645739485	-0.1039085080452557	0.9933503974816309	0.7623940923838592	0.6464371112603666	0.029568717989527316	-0.645211002788465	0.7558585073551541	0.11126849841505855
113														9.668821557327778	0.35242624898189984	1.048655442647406	0.04942469050911792	-0.10404413934227613	0.993343856394453	0.7622277756550178	0.6466224651770962	0.029802777526590385	-0.645419257528068	0.7556812850645573	0.11126444811842466
114														9.687844759927271	0.3743912635577529	1.0289851873427571	0.0493561330593235	-0.10419057931794651	0.9933319159831835	0.7622115751127803	0.6466346136861139	0.0299531492018158	-0.6454436357216067	0.7556507126737871	0.11133064960770107
115														9.70124849849151	0.2741945436747886	1.059244234074403	0.04934855634292429	-0.10428988305727971	0.9933218714388445	0.7624268143976916	0.6463792756033127	0.029986409553745264	-0.645189950847235	0.7558554440912864	0.11141128741427825
116														9.674860931957523	0.23460621489147476	1.0534870282372788	0.04927401083554832	-0.1043683364627867	0.993317332074785	0.7623607953880509	0.6464515953220218	0.030105689842804872	-0.6452736547477174	0.7557827632657439	0.11141959091165261
117														9.72734238741827	0.22924465055192597	1.0666505873607706	0.04908640259106138	-0.10434675967632356	0.9933288875421475	0.7622446915515921	0.6465815378536026	0.030254670850777543	-0.6454250965697623	0.7556745785402088	0.11127612531891685
118														9.727992376553223	0.2851977788890809	1.0905486729995402	0.048899347157379605	-0.10431615661287191	0.9933413277001522	0.7619806508968141	0.6468847993638513	0.030422754820323583	-0.6457509903255665	0.7554192185942246	0.11111913728985494
119														9.747224053981308	0.30719596432524204	1.0689538605821014	0.04866926993488095	-0.1043087637286556	0.993353403363277	0.761597856013745	0.6473242879302504	0.030658962325253614	-0.6462197829525748	0.7550436729520973	0.11094613132387034
120														9.746743944857096	0.3427781360837266	1.0423889586868562	0.04847573818922396	-0.10432251217128541	0.9933614227768672	0.7614302871169809	0.6475125984525318	0.030844006001206292	-0.6464317602562253	0.7548802873963013	0.11082297159215565
121														9.733648328056066	0.41201632180198366	1.0378964972573477	0.04830987496776047	-0.10434122946364532	0.9933675371254158	0.7613864983969131	0.6475571190942471	0.030989959168202075	-0.6464957509833202	0.7548395096604139	0.11072740679767994
122														9.721510575700881	0.32545993969494424	1.0862379814425724	0.048267497228374104	-0.10445847880310677	0.9933572745580764	0.7614972175729483	0.647422614465206	0.03107967032796305	-0.6463684988765824	0.7549386627304089	0.11079431020975465
123														9.675950545263959	0.2656262030606741	1.1015007241654178	0.048289114265557695	-0.10460647580396831	0.9933406498595139	0.7616399362352183	0.6472520438436636	0.031135177401328262	-0.6461987070360478	0.7550644190796394	0.11092769746490773
124														9.609111401930003	0.2322259805733092	1.0355309742047427	0.048268959259544275	-0.10471212598173335	0.9933304979936869	0.7616257922577783	0.6472645148746765	0.03122179289792726	-0.6462168832054079	0.7550390840588553	0.11099424040846845
125														9.623203925193128	0.2742310677676237	1.0898231520641193	0.04820882934224423	-0.10475301908948093	0.993329106472316	0.7615357905175797	0.6473661591897268	0.0313096741711949	-0.6463274313644869	0.7549462636026357	0.11098193789173257
126														9.655417072872861	0.31576312156552766	1.0727297816122752	0.04814964035799646	-0.10479330812428461	0.9933277277443556	0.76136032800342	0.6475675974140378	0.03141110825704352	-0.6465385240462632	0.7547678910445117	0.11096561436904656
127														9.636739574312957	0.35095255379398654	1.1182086375411635	0.0480898319270469	-0.10481053494585557	0.9933288075101779	0.7613112880945329	0.6476220866101243	0.031476269705797644	-0.6466007196756526	0.7547187454271376	0.11093748066283061
128														9.668971136686407	0.3923406882144638	1.1008622568267943	0.04801655913279046	-0.10482265243690503	0.9933310735022529	0.7611732919653039	0.6477800237611031	0.0315635931852849	-0.6467686059540527	0.7545815080905149	0.11089237124389933
129														9.74716318423696	0.37284812196738387	1.0956870635514981	0.048001104520363894	-0.10483141056383244	0.9933308961891918	0.7612110961673471	0.6477350638145958	0.03157458118183293	-0.6467252593153694	0.7546188855735718	0.11089083144773303
130														9.727970555795403	0.35315893591047864	1.1164555313205236	0.048012059274038024	-0.10485922402774439	0.9933274310621678	0.761217776984293	0.647726790512789	0.03158323693183862	-0.6467165825671686	0.7546221226470244	0.11091940247017999
131														9.694042125253903	0.32551133989324454	1.058361154689813	0.048037551193934394	-0.10487367917252932	0.9933246725477564	0.7611346055173952	0.6478243126036164	0.03158753367281386	-0.6468125740577167	0.7545363950244344	0.11094288000751261
132														9.745920331833153	0.3521153423234787	1.0469672937153727	0.04810409366446315	-0.10487407147512989	0.9933214108761323	0.7612441362053821	0.6476989714524913	0.031518367221456844	-0.6466787156429707	0.7546439369077409	0.11099174393955381
133														9.712544671548063	0.29031692320694047	1.0146398569363224	0.04819071686148868	-0.10487950598024737	0.9933166383554215	0.7611825149053573	0.6477739061011054	0.03146657872841885	-0.6467447980546357	0.754578859894614	0.11104913502325503
134														9.687313701862593	0.2699007969466766	1.059300179223442	0.048219044709417444	-0.10483519145678111	0.9933199415895828	0.7611995980928752	0.6477564227101676	0.0314131931037398	-0.6467225800840399	0.7546000261528936	0.11103470151036522
135														9.7529138435763	0.28329220626329166	1.07604919914265	0.048234615102390035	-0.10479523267478796	0.9933234020773711	0.7612334326201505	0.647718779092836	0.03136947994197381	-0.6466815931873029	0.7546378882743194	0.11101610069538913
136														9.720120742281377	0.27619972926877306	1.0677133515890334	0.04823581206838544	-0.10473733255702355	0.9933294506874055	0.7612244674696791	0.6477311122745588	0.03133235256195116	-0.6466920569789048	0.7546353406516304	0.11097245640243682
137														9.734288819444084	0.3175214671326073	1.1211954282570087	0.048294929814136967	-0.10472430481918216	0.9933279517532903	0.761071490320702	0.6479121666443948	0.031305126340458234	-0.6468676730021943	0.7544817057386517	0.11099355535535088
138														9.764938947654894	0.3713641665448915	1.0280329546199445	0.048328132333669754	-0.10476554333674126	0.9933219883575	0.7609591460977133	0.6480430978306493	0.03132604865435362	-0.6469973489863607	0.7543635226357471	0.11104101098787053
139														9.668013983767063	0.4263041559830782	1.0788230017758165	0.048356528102821664	-0.10476013400077278	0.9933211769181114	0.7607495297968636	0.6482886333541654	0.03133689163972786	-0.6472416852333389	0.7541532749964885	0.11104521020007484
140														9.719961147476026	0.4537515535830473	1.0665307474518486	0.048274424587239614	-0.10474414736514864	0.9933268563385969	0.7607938073194083	0.6482345229074462	0.03138130104688219	-0.6471957684311682	0.7542020066956227	0.11098184725929734
141														9.675647215226894	0.3262479209395892	1.1318324704553064	0.048129191844389144	-0.10475633293258652	0.993332618815532	0.7608571250293195	0.648154987378409	0.03148884927419382	-0.6471321473891747	0.7542686676821538	0.11089977803613503
142														9.68118563142995	0.2724280398744741	1.0831789837778312	0.04800522061616336	-0.10477380231372602	0.993336775289387	0.7609310067639452	0.6480637221874728	0.03158187660236972	-0.6470544812755744	0.7543446575228347	0.1108360768340117
143														9.739770769945185	0.17845133264867546	1.073564698563399	0.04801167082570858	-0.10478896849114366	0.9933348637529473	0.7607266763053755	0.6483016132669689	0.03162186257674049	-0.6472942170465457	0.7541381109041022	0.11084180736568593
144														9.707975057930799	0.19335888050602598	1.1157978464282072	0.04793841475645433	-0.10485120569945022	0.9933318343101715	0.7606003641896895	0.6484440380387775	0.03173980980529584	-0.6474480630793099	0.7540069987707914	0.11083524448258286
145														9.694708163974969	0.35026006139245336	1.1109174001978903	0.04782267995020703	-0.10484636893182614	0.9933379234702516	0.7603650682935352	0.6487137986197355	0.03186487720548614	-0.6477329343188808	0.7537755941937657	0.11074474884385185
146														9.674940654978686	0.453362869058965	1.10429123255279	0.047633547817248184	-0.10487796593982734	0.9933436753624931	0.7601619963765909	0.6489419418683998	0.03206392597337199	-0.6479851729685622	0.7535747928005518	0.11063565098334158
147														9.694114648886515	0.4752729457403443	1.0827027773926003	0.04752728479411249	-0.10483910933270729	0.993352866988576	0.7599162446970782	0.6492248911885046	0.03216118323017181	-0.6482811567873847	0.7533364466263389	0.11052483856044011
148														9.734123132189957	0.41639806691434517	1.1176450350163492	0.04732331735960972	-0.10487062426117516	0.9933592783082836	0.7599331265232576	0.6491965556394212	0.032333811382191824	-0.6482762889745921	0.7533564789082152	0.11041679600653047
149														9.701455074826194	0.3232138697557106	1.1095768920564295	0.04718832070139664	-0.10490445987967462	0.9933621276688258	0.7599624939336578	0.6491562072757345	0.03245344926998478	-0.6482517028157488	0.7533865361504266	0.11035604624915055
150														9.726742716031469	0.25689349769928477	1.0658181907425752	0.04700735732640138	-0.10497012956224727	0.9933637703564964	0.7599295044801807	0.6491855028083315	0.03263941120795294	-0.648303521953796	0.7533521453100003	0.11028639344508967
151														9.758877351541498	0.2992632002298874	1.0486051446488673	0.04688024703812474	-0.10511782178959062	0.9933541593912294	0.7599283419350624	0.64917711894716	0.03283265690271708	-0.648314088664955	0.7533387762339574	0.1103155957281299
152														9.68770457520192	0.2535301591721736	1.0823088941490333	0.04684530280449302	-0.10526153820173795	0.993340589214273	0.7600232800558058	0.6490606838854607	0.03293694593236829	-0.6482053157591112	0.7534190316215418	0.11040666380291013
153														9.752739108870195	0.21402833203572896	1.0750821232921572	0.04684164191830616	-0.10536494647760658	0.9933297985242204	0.7600750965294187	0.6489968791297133	0.0329984623230688	-0.6481448204052793	0.753459540342853	0.11048535128307611
154														9.69406928982349	0.22177355076048888	1.0862560484872728	0.04683159146571911	-0.10549712715353288	0.9933162427963913	0.7601174371461873	0.6489428704517943	0.03308523290076543	-0.6480958908889178	0.753487562639316	0.11058123331181838
155														9.655545177679178	0.2703171678234564	1.12706598065763	0.046700821000904905	-0.10550728597349113	0.993321320582796	0.7602569433230932	0.6487752333180947	0.033167405115249016	-0.6479416744174347	0.753630485874583	0.11051098277353048
156														9.674440768573454	0.379153572330157	1.1056067926335038	0.04665634955441754	-0.10549176984162484	0.9933250583479398	0.7600786063479275	0.6489813920155768	0.033221453756824504	-0.648154069044119	0.7534551342403915	0.1104611400825898
157														9.693909063078884	0.45447100906892735	1.1099235300773036	0.04654556636599971	-0.105535702677653	0.9933255889747341	0.7599926479850451	0.6490755144235231	0.033348936782427396	-0.6482628211307107	0.7533678995259707	0.11041794556809748
158														9.71890105662698	0.4752664711440285	1.066821144064933	0.04655824083833224	-0.10571376909884572	0.993306060201465	0.7601082478753083	0.6489356584270399	0.0334359497217262	-0.6481263624648896	0.7534634100238582	0.11056721047964638
159														9.679058976451806	0.36052433431784703	1.0346371365546059	0.046585982758800076	-0.10591664694779479	0.9932831469977397	0.7603858916640732	0.6486070056650525	0.033499969558901666	-0.6477986122002959	0.7537178624004816	0.11075351881461684
160														9.764949008437766	0.24022016356390824	1.0848023678505978	0.046552292341700316	-0.1060764383805119	0.9932676745461106	0.7606132182494723	0.6483356978101038	0.03359099833685347	-0.6475341043542908	0.75392878454506	0.11086465411705927
161														9.810272429853564	0.21397913706904875	1.0727837419153572	0.046550280862171015	-0.10619115115343358	0.9932555113204063	0.7606045113860145	0.6483418718013247	0.033668895562476764	-0.6475444761642982	0.7539073263245711	0.11094996486363305
162														9.836217815511251	0.25588295245778525	1.0804716259763527	0.04652364594583831	-0.10637917739451191	0.9932366389661501	0.7605765681834284	0.648366961841897	0.03381666338105954	-0.6475792108292436	0.753859239784707	0.11107390464460525
163														9.756756980492973	0.2566092236096104	1.036945822559441	0.04652389790833049	-0.10661655878624027	0.9932111740793071	0.7606915761697111	0.6482249686898838	0.033951670230498665	-0.6474440924650223	0.7539478094401362	0.11126027041385463
164														9.724642035567147	0.27149858708840474	1.0812550190855286	0.04657884243897299	-0.1067950817793718	0.9931894189653769	0.760730010430543	0.6481762905770705	0.03401981134714793	-0.6473949819603113	0.7539643936164936	0.11143352498741947
165														9.710780447470897	0.2852715704710614	1.0542147842343323	0.04665207494893789	-0.10691037377702095	0.9931735779217129	0.760612477966334	0.6483121153367267	0.0340596457634561	-0.6475277926582551	0.7538312630068328	0.11156246971384029
166														9.638714991410996	0.36007781429792257	1.0616718465906747	0.046677203971233525	-0.10701632575098335	0.9931609862717057	0.7605935287581695	0.6483315422294567	0.03411297937105123	-0.6475482396243721	0.7537995206771717	0.11165822847530295
167														9.729302310124234	0.3947676126075949	1.0353837059879671	0.046720295694375885	-0.10713635576934333	0.9931460190942194	0.7604741034698644	0.6484681334904258	0.03417920126553364	-0.6476853803521712	0.7536649660956177	0.11177104704777249
168														9.683875279762544	0.33502835573500117	1.0510102762559848	0.046708585805108796	-0.10735979260055628	0.9931224410639671	0.760594465946941	0.6483198775225909	0.034313186677729035	-0.6475448759607126	0.7537607122567869	0.11193936874561598
169														9.665152561674232	0.2823118965299924	1.0985325751580506	0.0466071992265428	-0.10744174004116297	0.9931183421310799	0.7608177647940206	0.6480529429308169	0.03440511491824383	-0.6472898097097526	0.753978551190705	0.11194751712422177
170														9.69086136785826	0.26936034334085845	1.0807876654059718	0.04657656887888943	-0.10750280732020318	0.9931131706153865	0.7608536936996968	0.6480077354827619	0.03446203038172957	-0.6472497817805724	0.7540087009927529	0.11197588495842938
171														9.717395826927259	0.27713975818393627	1.113883849723213	0.04666933720816123	-0.10763583956509704	0.993094405887813	0.7607827682352105	0.6480894827436449	0.034490606162334625	-0.6473264651788319	0.753919457500728	0.11213339859688144
172														9.638315121243652	0.33153932107831763	1.094579644942215	0.04668230973737747	-0.10777700217655212	0.9930784862030889	0.760769297068471	0.6481007883394683	0.03457520486857968	-0.6473413617215634	0.753889571459637	0.11224827592830422
173														9.64424382884908	0.332124638682091	1.0721737534610833	0.04671584245257662	-0.10787087181696348	0.993066717334437	0.7606151462945927	0.6482783561685805	0.03463772727270542	-0.6475200609179621	0.7537234558754367	0.11233308850017168
174														9.649612045263206	0.3660842348920975	1.023961961157382	0.04673872018435493	-0.10796345512171446	0.9930555797102748	0.7606401821424036	0.6482469113971591	0.03467643543409049	-0.6474890001736705	0.7537372448156089	0.11241957317066831
175														9.676144719419506	0.3735666245630442	1.0570266984789483	0.046782068105620675	-0.10801851249266275	0.9930475512595726	0.7608257990841376	0.6480306136850094	0.034647181342982	-0.6472677510518691	0.7539153299183554	0.11249948338704936
176														9.657515164186398	0.3199255224811965	1.1038330779991348	0.04677172488033533	-0.10804143654253423	0.9930455446461376	0.7608974075998742	0.6479459769409364	0.03465755435466639	-0.6471843175321149	0.7539847869525496	0.1125139999493822
177														9.703209661447723	0.34736551565931767	1.1161930888353344	0.04685491874245126	-0.1080964881395231	0.9930356317079163	0.7609542792809875	0.6478811751139121	0.03462033762067679	-0.6471114289159106	0.7540325803205845	0.11261290503974278
178														9.675855742826338	0.3738222878576513	1.0595785252524839	0.04689316801724311	-0.10816270579854531	0.9930266158908555	0.7609928472534084	0.6478354773298352	0.03462774526266299	-0.6470633023301954	0.7540623471485383	0.11269010333822652
179														9.67029059242717	0.34025436117173674	1.1092785992204373	0.04693295684525438	-0.10807592375714342	0.9930341848424967	0.7607807250162697	0.6480872350040225	0.034577800227319266	-0.6473098068201045	0.7538584287045422	0.11263872986516661
180														9.695794355014128	0.41448394518264486	1.089863557058647	0.04692007434353698	-0.10805313798317967	0.9930372732156555	0.7607044326405215	0.6481763458270211	0.03458599241588617	-0.6474003960337519	0.7537850781770075	0.11260898335844863
181														9.663859245841872	0.42830550018056773	1.1319057261769436	0.04688497829700737	-0.10800235322387147	0.9930444554541327	0.7607718781497776	0.6480981540412933	0.03456779056762632	-0.6473236811878185	0.7538595853515253	0.11255122099327698
182														9.708620494833568	0.3802058413822562	1.0680828234855326	0.046863304229586095	-0.10793521815035506	0.9930527777512737	0.7608185330494852	0.6480452740043332	0.034532341494288576	-0.6472704152710169	0.7539146579842337	0.11248865716773984
183														9.721193734745826	0.29139316122123676	1.021650890337899	0.04687561500935439	-0.10789779323379661	0.9930562637296907	0.7610175160697261	0.6478152316933812	0.03446397860253847	-0.6470355608098832	0.7541176909483884	0.1124788479942434
184														9.695132430714343	0.24999952402095416	1.0153745060876491	0.04691084534216394	-0.10782096146453374	0.9930629450634777	0.7610602524023737	0.647769505497144	0.03437964457671849	-0.6469827391843769	0.7541679574317977	0.11244566323621114
185														9.688738553990214	0.33746310383975114	1.0379382702074282	0.046904132941731166	-0.10770360136635648	0.9930759973766867	0.761080087722014	0.647750171089744	0.03430475078263234	-0.646959892409132	0.7542013326068338	0.1123532265137059
186														9.669440464346444	0.26202287603979857	1.0329393616463605	0.046899240721836086	-0.10754375452102483	0.9930935515263588	0.7610683860356647	0.6477691294204513	0.034206238421359225	-0.646974012613168	0.7542078598326805	0.11222803201439598
187														9.690359079138346	0.3229170254316836	1.112613023484724	0.046911384758784244	-0.1073884542159595	0.9931097833981497	0.7610232029373905	0.6478276263274692	0.0341035358552747	-0.6470262796602069	0.7541797441379763	0.11211559642194265
188														9.703507957417854	0.34238320061387506	1.1151388298654425	0.046927142431384086	-0.10724946594413498	0.9931240583924662	0.7610058812958854	0.6478532119312339	0.03400388835790241	-0.6470455099421505	0.7541775439809129	0.11201937430025614
189														9.67695785665834	0.33434872997055687	1.0824282775941738	0.046928642544626906	-0.10710191420106618	0.9931399108299831	0.7609621480302303	0.6479092883623164	0.03391405783823992	-0.6470968333828696	0.7541503391422064	0.11190600608349145
190														9.670413612266271	0.36761198033973824	1.0794641675047851	0.0468919034615755	-0.10695347465540872	0.9931576428990947	0.7607853954555411	0.6481188322277551	0.033875675244745385	-0.6473072929075547	0.7539913352094083	0.11176016722351219
191														9.742146183313947	0.38130110897284286	1.0715810931806788	0.04677484992496757	-0.1068603754327469	0.9931731840806364	0.760715408751856	0.6481988694122821	0.03391596350004278	-0.6473980076444426	0.7539357305865083	0.11160973901499192
192														9.743082516336798	0.4027008959114536	1.1211204868102325	0.046661314058459746	-0.10680545239546385	0.9931844325748052	0.760582099466147	0.6483514424977359	0.03398936573066663	-0.647562809109669	0.7538123124158327	0.1114872454960158
193														9.782026916706988	0.4100562901218842	1.104851215397999	0.04652892841421434	-0.1067119792957501	0.993200690845213	0.7606111542799614	0.6483155425127436	0.034023952170663674	-0.6475382079889415	0.753856425860515	0.11133174921503781
194														9.8214683986182	0.3836764343624544	1.115035500724071	0.04651601389062547	-0.10675991356659831	0.9931961444281686	0.760616588843913	0.6483070572190435	0.03406412094027622	-0.6475327522428321	0.7538569363050501	0.11136002136128854
195														9.670388884819767	0.31489780783032995	1.0518229546663453	0.046441163461337476	-0.10670342791503828	0.9932057172648259	0.7607255873485232	0.6481790873943534	0.034065399129717844	-0.647410070272004	0.7539749658548373	0.11127421882267002
196														9.683199066913312	0.28048219844790284	1.0298995707104392	0.046418742991924666	-0.10660230698531975	0.9932176239095123	0.760820115832006	0.6480715523550904	0.03400021137340836	-0.6473005883238658	0.7540817005958115	0.11118784637767859
197														9.676327092855821	0.25918054978948424	1.0024746489557514	0.046445804299871635	-0.10646250244384736	0.9932313541347414	0.7606745854380899	0.6482469103953385	0.0339133930990132	-0.6474696613213072	0.7539507137315355	0.11109166904939352
198														9.68427037136901	0.2997849267527629	1.0789099033073506	0.04644875892952645	-0.1062997291227476	0.9932486498265864	0.7607043669695239	0.6482178947749855	0.033799807203316656	-0.6474344591288004	0.7539986263130166	0.11097158487955998
199														9.646961514850148	0.2791406768720029	1.1698423075866116	0.04651651748788166	-0.10616164036423376	0.9932602477276414	0.7606212786697484	0.648322017666133	0.033672419635544626	-0.6475272071778896	0.7539285559815931	0.1109064851120668
200														9.665052914515716	0.36518973499116314	1.0975009724455078	0.04655086198824357	-0.1059932929563569	0.9932766176128484	0.7605136229626703	0.6484543939737553	0.03355485396070562	-0.6476511765884055	0.7538383916890932	0.11079545423552498
201														9.73104279176969	0.43278425245601104	1.1380574223413222	0.046559420091281056	-0.10585251582687677	0.9932912288417154	0.7603981090731506	0.6485939104496274	0.03347618624691523	-0.647786180864289	0.7537381403516621	0.11068820922066375
202														9.717495501128269	0.44580605426566433	1.1085666320111411	0.04651997130261541	-0.10581164205368931	0.9932974321299266	0.760358946105606	0.6486393068289978	0.03348615704391816	-0.6478349831146637	0.7537048135989977	0.11062951057708016
203														9.769670212666377	0.3852665023295095	1.0971111440405317	0.04641747746368184	-0.10579180796156684	0.993304339643259	0.7603794514132195	0.6486120953172021	0.03354757333638031	-0.6478182674596631	0.7537310151350092	0.11054885421888662
204														9.78236914280488	0.35174187018807396	1.0756842557426765	0.04639476257944844	-0.10584991870704291	0.9932992100645756	0.7604567814188579	0.6485192549390952	0.033589575277349404	-0.6477291174551817	0.7538027399014637	0.11058218535450567
205														9.716733830262422	0.3380605974747272	1.0597832946869084	0.046444106854203526	-0.10591553510891799	0.9932899095234515	0.7607120209998071	0.6482218225016284	0.03355130309028781	-0.6474257996441788	0.7540493142064773	0.11067730435747325
206														9.684124999580767	0.24271837837849647	1.053378409283333	0.04651192258938015	-0.10593192496407267	0.9932849884753346	0.760953905742059	0.6479421074750238	0.03346907074793848	-0.6471366118471008	0.7542873806674953	0.11074634518946395
207														9.644330778769804	0.2141626571078068	1.0189577974192352	0.04658131486608362	-0.10587065348154118	0.9932882692535627	0.761097129448945	0.6477799126552325	0.03335182611125209	-0.6469631679237409	0.7544352785307503	0.11075229053300241
208														9.67709517621289	0.2202822258814574	1.027535049478709	0.0465892230964024	-0.10580522331383718	0.9932948701220513	0.7611199565475746	0.6477557971127872	0.03329923500316456	-0.6469357433596415	0.7544651628977224	0.11070890631480973
209														9.717217573072803	0.3020554193841331	1.08696391321622	0.04654705409823724	-0.10569499000857252	0.9933085828894586	0.7609497844374348	0.64795624925389	0.03328850578583048	-0.6471389320071836	0.7543084701499245	0.11058903445045169
210														9.737685313368752	0.39758040541900597	1.1406934513585343	0.046482741452510065	-0.1055829741634034	0.9933235073800827	0.7607591094149566	0.6481796784209375	0.033296875593550435	-0.6473676947370955	0.7541321767760214	0.11045237780074464
211														9.750519063140846	0.5067499369071575	1.1424574627620345	0.0463523172086083	-0.10564706326854012	0.9933227877745109	0.7606070174440382	0.648349551482614	0.03346377305651771	-0.6475557332803697	0.7539771595446554	0.11040840176678693
212														9.750070983240361	0.45366873230197585	1.1182513930441127	0.04628443044113034	-0.10576802819622594	0.9933130804082985	0.7605842802952223	0.6483692726190149	0.033598197738697766	-0.6475872945530504	0.7539432409239918	0.11045490210257236
213														9.742948372409144	0.4343425454093053	1.0922932812353112	0.04617742525588793	-0.10589259108422427	0.9933047893522946	0.760676309620508	0.6482536687130767	0.0337451179011361	-0.6474868318188887	0.7540251588332487	0.11048467073595451
214														9.716662066753553	0.2518985577733689	1.0633268027142917	0.04616422474533058	-0.10600972409011994	0.9932929088400858	0.7610021957891242	0.6478694659304699	0.03377592514053129	-0.6471047228677856	0.7543388452899029	0.11058202443843199
215														9.690457474566951	0.2113940196283581	1.0579030694855354	0.046126708404980885	-0.10605423858149027	0.9932898999036596	0.7613066501910937	0.6475113891445152	0.033781434293937485	-0.6467491872020693	0.7546399799951233	0.11060736614901463
216														9.657059435158324	0.23834545951272382	1.0243417672346553	0.04609201457423989	-0.10609737206260744	0.9932869040885905	0.7613771796980717	0.6474262394644578	0.03382387748205096	-0.6466686295371828	0.75470697101214	0.1106212975795462
217														9.65731437589795	0.2933152654670122	1.0492651884039939	0.046067236294252994	-0.106105315237561	0.9932872051016	0.7614116169878113	0.6473847910443904	0.03384201294867434	-0.6466298471739584	0.7547414089625331	0.11061304778838024
218														9.65730290301834	0.29422063835260986	1.0491173353582635	0.04596337009849366	-0.10613583960379064	0.9932887556802339	0.7612938628619705	0.6475170277797617	0.03396105275108835	-0.6467758676526885	0.7546236693126327	0.11056262811298606
219														9.709443275839584	0.37699769278889084	1.0617219179058501	0.04593032654087012	-0.10619278579249264	0.9932841976743007	0.7611834821346384	0.6476425222475108	0.03404217828326567	-0.6469081168367238	0.7545079559703216	0.11057862699568813
220														9.742407169486768	0.4396371445252714	1.094998948748239	0.04584047318654559	-0.10626330241831311	0.9932808070113848	0.7611508953062147	0.6476745081283013	0.03416205636829672	-0.6469528310414765	0.7544705707182467	0.11057211369735855
221														9.729869871695442	0.3870561702702176	1.11776310621033	0.04572268831702579	-0.10635295344457069	0.9932766407535625	0.7612052378563701	0.6476033057371053	0.034300790929671254	-0.6468972264843094	0.7545190572092866	0.11056658932479509
222														9.703366432211107	0.4357541473395418	1.1107774359099254	0.045608344746843874	-0.1064555610107133	0.9932709058556719	0.7612941717477316	0.6474913969293266	0.034439439098862434	-0.6468006361719103	0.7546006257832041	0.11057500899935942
223														9.68938339293777	0.3957439965128052	1.0576614382143517	0.045529470228745136	-0.1065553706064516	0.9932638221216008	0.7614176676786873	0.647340629866936	0.034543367962985516	-0.6466608096115285	0.7547158815861768	0.11060621770118635
224														9.708546442203467	0.2743610856585387	1.0138732751611665	0.045454330186035424	-0.10662295974302194	0.9932600104317988	0.7616436572965642	0.647071379765346	0.03460590684385023	-0.6463999096281285	0.7549371986756311	0.11062089716024712
225														9.66331930260928	0.21397290351243484	1.0282871139621805	0.04536170819411625	-0.1066513788980033	0.9932611936489149	0.7618980251527123	0.6467694197195522	0.03465136337911384	-0.6461065815313365	0.7551918968678022	0.11059604064839854
226														9.721876177802335	0.2077578602278516	1.018372057309519	0.04532835174997921	-0.1066532254377226	0.9932625181850767	0.7619029456647153	0.6467622433000204	0.03467711102376547	-0.6461031201867544	0.7551977821374047	0.11057607308855275
227														9.742703289222538	0.2700701951226277	1.0983202265573453	0.045256190367823246	-0.10657172847092028	0.9932745561646648	0.7617724107474748	0.6469146893741352	0.03470128089777891	-0.6462620764499274	0.7550787054093676	0.11046029684887537
228														9.821306181415224	0.30532484763865525	1.1174161926885733	0.045146541694906964	-0.10655946116730991	0.9932808620972834	0.7616108136423161	0.6470993954578879	0.034804323598156495	-0.646460175351954	0.754922150710766	0.11037113775871037
229														9.768384377999444	0.4008028546729698	1.1029791572237078	0.04517165493773871	-0.10665557042791302	0.9932694049888391	0.7613923881634326	0.6473520355750035	0.03488514416888999	-0.6467156661446904	0.7546919446592735	0.1104487022532787
230														9.702735031269333	0.38767680418539235	1.0871779108850057	0.04517025091396597	-0.10676840468928406	0.9932573464075034	0.7614164495684871	0.6473199314807759	0.034955638089491536	-0.6466874351329932	0.7547035272660578	0.11053482335120392
231														9.64988145843325	0.3401191825580364	1.050124962084366	0.04524055664778305	-0.10686837326752746	0.9932433955629161	0.7613703743429332	0.6473730674131346	0.034975200657194117	-0.646736766472342	0.7546437983467842	0.11065393128867072
232														9.63629677524962	0.4079252241878019	1.0474140512422387	0.04529519482631099	-0.10696268928079194	0.9932307528603151	0.7614440412778045	0.6472860237156848	0.03498250283876869	-0.6466462072324967	0.7547050990977602	0.11076504894445834
233														9.60951003926707	0.4008145193991352	1.016679720239019	0.04529357975408803	-0.10703592099507314	0.9932229373357206	0.7616269029585288	0.6470698979869437	0.03500011155648436	-0.6464309339154959	0.7548800293661921	0.11082954904373256
234														9.675927853017933	0.29369846023732304	1.060812713922253	0.045221411509173345	-0.1070799999057575	0.9932214745771966	0.7616801387197314	0.6470031980822613	0.0350746055033635	-0.6463732592094202	0.7549309473663858	0.11081910705055532
235														9.735093584159602	0.25444533066509434	1.0765106487359135	0.045003888850727855	-0.10708389198355212	0.9932309349118997	0.7616894389860824	0.6469832049733807	0.03524104169061515	-0.6463774814497938	0.7549475296734386	0.11068142985430775
236														9.840215160573923	0.29753931069121087	1.1283332442161966	0.04486395289143827	-0.1071448823924746	0.9932306881626535	0.7615698717428376	0.6471148472892602	0.03540769508731023	-0.6465280784193005	0.7548260386306906	0.11063044436567396
237														9.826527726565576	0.31231583591570716	1.0995736942973169	0.04475170516135679	-0.10723336451089155	0.9932262030478385	0.761531271980487	0.6471520672701028	0.0355573286934589	-0.6465813225580626	0.7547815626813543	0.11062271898376064
238														9.767020117754038	0.29913447559089984	1.0600193746277569	0.04477913679112208	-0.10735247254147973	0.9932120999803988	0.761468478701941	0.6472222399114116	0.03562482431406272	-0.6466533730304007	0.754704457919315	0.11072757716630191
239														9.733694890917592	0.3805346161078647	1.0516852325876092	0.04476851591583819	-0.10738651106168023	0.9932088990865382	0.7615574133348033	0.6471167647868916	0.03563985025993843	-0.6465493687086064	0.7547900568858514	0.11075145077495008
240														9.699680371964263	0.44046049338384125	0.9923319605796698	0.044785558649035315	-0.1073476369596793	0.9932123330767029	0.7616372702928907	0.6470256341384978	0.0355878809213121	-0.6464541145644356	0.7548737070575768	0.11073736567150129
241														9.707172320971397	0.42726287438260674	1.0450733244552513	0.04481548906070845	-0.10734431402579414	0.9932113421556268	0.7617253346130318	0.6469241565695069	0.035547858662615006	-0.646348270322521	0.754961147273927	0.11075910598195313
242														9.656302775673536	0.27838862602806014	1.0844890225490202	0.04484833505498996	-0.10740881296414428	0.9932028864942091	0.76185832044157	0.6467678567663455	0.03554207405059456	-0.6461892342160658	0.7550858801166271	0.1108367593885405
243														9.701824165343135	0.2514700491706816	1.0719141761769426	0.04480898348576669	-0.10739643077717825	0.9932060016206583	0.7618797989086581	0.6467415550957734	0.03556027175379478	-0.6461666402824238	0.7551101691598543	0.11080300274586972
244														9.729055481392054	0.22553725290489693	1.1295892645099113	0.04474486100869893	-0.1073801871487875	0.9932106487655094	0.7617767332088299	0.6468598754981688	0.03561615100171622	-0.6462925855639966	0.7550111236785755	0.11074338339882592
245														9.714787384353123	0.27299430701681016	1.0751830720304185	0.04468469892376496	-0.10742268340423261	0.9932087619288938	0.7614996141093853	0.6471794184781322	0.03573706772475277	-0.6466232406845192	0.7547311888272143	0.1107213494232704
246														9.694474002626706	0.37509214154326903	1.069753099235433	0.04472073701115423	-0.1075020895752366	0.9931985483367044	0.7613493490159027	0.6473534188924337	0.03578714575568098	-0.646797668853437	0.7545706406859699	0.11079676791551576
247														9.674637215876546	0.38903171443493806	1.0652150614619	0.04468685950444455	-0.1075314106055435	0.9931968990692691	0.7612224835048808	0.6474989108284952	0.03585374572585187	-0.6469493142389838	0.7544416188208962	0.11079002029340874
248														9.661543338456623	0.3690330562841803	1.0627528912558142	0.044722610005897515	-0.10759745456042996	0.9931881372259628	0.7611887114865286	0.6475374124154628	0.03587540979231513	-0.6469865791959986	0.7543991564777921	0.11086153095576866
249														9.6615531542301	0.42376109935880935	1.0884896409344902	0.044792374454166256	-0.10767277100128941	0.9931768309700251	0.7611567913990931	0.6475748475409712	0.03587695275975422	-0.6470193058153639	0.7543562760507743	0.11096227595454558
250														9.701557644782865	0.3634344653217263	1.1253986423208702	0.04481028244301111	-0.10764273949389458	0.9931792784898542	0.7611829717225321	0.6475461608249371	0.03583926841524088	-0.6469872658306596	0.7543851869139097	0.11095254669376997
251														9.70130903606408	0.30885793101623277	1.1017541316115707	0.044928767436479736	-0.1077719604069245	0.9931599118000524	0.7612217753983551	0.6475012359138848	0.035826779779500884	-0.6469333926425623	0.7544052982581982	0.11112979548232836
252														9.648052582797202	0.34875578758018844	1.0640048921087732	0.04502125694242151	-0.10785344133381991	0.9931468781684696	0.7611902230086328	0.6475389790282512	0.03581501130975773	-0.6469640877354728	0.7543612568468124	0.11125000381620312
253														9.686931016862921	0.410123915593109	1.0745125939599527	0.04503398288918349	-0.10787529255690276	0.9931439279585307	0.7610438988152052	0.6477093007057293	0.035844746552971374	-0.647135321599191	0.7542118953152739	0.11126676279848295
254														9.77205257341963	0.41103020324730216	1.0972397713196762	0.04506967671405189	-0.1078956105535463	0.9931401016292558	0.7609348696961797	0.6478371161158388	0.0358496173364693	-0.6472610356891175	0.7540992031596312	0.11129934174405708
255														9.713499424796073	0.472350219866305	1.132340958131977	0.04507465462393204	-0.10790915092455461	0.9931384045828028	0.7606767627764568	0.6481374247715243	0.03589904152573786	-0.6475640030780457	0.7538391696889186	0.11129855416966747
256														9.648092283209593	0.5130829674040467	1.1405493859636087	0.04506916262285812	-0.10793335477696547	0.9931360236679888	0.7606540773225334	0.6481627259044063	0.035922909135740644	-0.6475910323908752	0.753813950305219	0.11131209769005904
257														9.73179168612786	0.47227782171658367	1.0623680373022173	0.04504197729387607	-0.10798112918162778	0.9931320637368019	0.7607916343632459	0.647999697729995	0.03595108934005825	-0.6474313163296627	0.7539472577591195	0.11133832742207236
258														9.770442167017084	0.42520459490925633	1.023290627081988	0.045005500006440866	-0.10809043678545277	0.9931218265876046	0.7609339697957251	0.6478284089306637	0.036025632448066836	-0.6472665591393462	0.7540787823947142	0.11140552662241
259														9.758471153525397	0.3385043355597817	1.0728556180597884	0.04505308446274697	-0.10825487156352087	0.993101758312389	0.7611728437454758	0.6475460595103113	0.036055550988638274	-0.6469823193293759	0.7542976757192312	0.11157461574994343
260														9.712487444690623	0.2572428700568042	1.0379431595112618	0.04506242286223379	-0.10837359641634053	0.9930883856160904	0.7612571179329517	0.6474438763762131	0.03611131871530138	-0.6468825074479914	0.7543683387727311	0.11167556140476097
261														9.65368548553954	0.21014616472549727	1.0239133823064301	0.04495154206460114	-0.10842130841540448	0.9930882029042063	0.7613175277007667	0.6473669761562157	0.0362162974080672	-0.6468191253214506	0.7544274770074649	0.11164318633281786
262														9.660008727121006	0.3198780889486978	1.049365085400931	0.04484192406587452	-0.10838821340490012	0.9930967712368036	0.7610865594867772	0.6476328125911182	0.036317888483475724	-0.6470984861786117	0.7542040408604369	0.11153391383403365
263														9.68612035488878	0.41626860359937634	1.0794463974287398	0.04475961957153493	-0.10835416871800568	0.9931041992546613	0.7609739932359345	0.6477617229302155	0.03637762945870937	-0.6472365549583613	0.7540982193507085	0.11144827274445948
264														9.692244135166948	0.4169011935975867	1.055724344607824	0.04473589677465471	-0.10844154913022275	0.9930957305124237	0.7609943674256676	0.6477337668897003	0.03644914233952845	-0.6472142398666574	0.7541096721652074	0.11150035901604922
265														9.673581736114663	0.363890020732879	1.1028843474444645	0.04475405569874508	-0.10854522088187696	0.9930835863723749	0.7611296992126295	0.6475730213803509	0.036479623857925136	-0.6470538273397398	0.7542328002705982	0.11159851038865232
266														9.76475011150986	0.31084613358071134	1.077420237431867	0.04466283795286652	-0.10861111170906934	0.9930804888423272	0.7610876141394602	0.647615737580806	0.036599180881164706	-0.647109630981876	0.7541866366165528	0.11158692862298764
267														9.74490347165843	0.32556366741935633	1.0726802644761675	0.044644133195397354	-0.10875333238319701	0.9930657652274509	0.7609767290739062	0.6477388916429863	0.03672527823033639	-0.6472413144872718	0.7540603695651078	0.11167649650720106
268														9.718875088274114	0.3407624469058454	1.0916715579238208	0.04455327984398781	-0.10885760035640235	0.993058421292418	0.760823966607285	0.6479090343017769	0.036888685339763416	-0.6474271365112066	0.7538991352394464	0.1116879438172035
269														9.69844716094642	0.3889528037265182	1.0607901275658416	0.04449550070159741	-0.10888495373024187	0.9930580130427821	0.7606500925085319	0.6481079276293196	0.03698041252868456	-0.647635381355958	0.7537242075157151	0.11166123687623691
270														9.750899202409652	0.43810852710877746	1.0992161160642657	0.04445219661385695	-0.10891465841546644	0.9930566949567609	0.7605472459542741	0.6482246162408488	0.03705041930630565	-0.6477591287566481	0.7536195619021886	0.11164975159301373
271														9.71198061095709	0.43188702648304217	1.1145365762288064	0.044378498226458715	-0.10891778100448729	0.9930596487000282	0.7606348002806689	0.6481194216627479	0.0370933399080306	-0.6476613694649015	0.7537095808364149	0.11160922120615553
272														9.777329989792673	0.3922583713895354	1.1070305646238032	0.044318805161751004	-0.10896494673392942	0.9930571402957169	0.760572171438619	0.6481879364366728	0.03718025135891456	-0.6477390026408623	0.7536438412414979	0.11160262101125253
273														9.756814955831645	0.3853063400581205	1.0522096973837425	0.04436100408241775	-0.10909910693721192	0.9930405259516362	0.760678500865611	0.6480610166021636	0.03721742980669751	-0.6476112411297739	0.7537335760240965	0.11173798251391978
274														9.717720926796568	0.3249166719471173	1.0443263890235208	0.04435232263788043	-0.10927366489662549	0.9930217206268379	0.7606200744579393	0.6481220770684195	0.0373480327208362	-0.6476804565588068	0.7536557830844117	0.11186146260083489
275														9.699065093288691	0.3271354121840644	1.116141120881217	0.044350841548889464	-0.10937131208696127	0.9930110366689194	0.760504239073528	0.6482530986328996	0.03743290616608019	-0.6478165675599071	0.7535289219434255	0.11192791693621218
276														9.769919749492013	0.43058281858246455	1.1086745221361334	0.04429253329088237	-0.10949077511058447	0.9930004741491112	0.7602833406990853	0.6485028777167403	0.037593343141372304	-0.6480797893393333	0.7532966133992571	0.11196784757730918
277														9.762916804597703	0.46591969801521954	1.1076907573383223	0.04432212403026353	-0.10970387687788913	0.9929756334973217	0.7602618934280343	0.6485210292407659	0.03771376451268338	-0.6481029260253857	0.7532499811021962	0.11214750664582324
278														9.69047777744656	0.43196560156344777	1.065834529514876	0.04437676144841676	-0.1098615593607351	0.9929557597487302	0.760231623725308	0.6485526274319839	0.03778052062971288	-0.6481346938186014	0.7531997923697922	0.11230089689209907
279														9.684094001861808	0.43298888896066806	1.0909883596156174	0.044384519518065685	-0.10997794314992987	0.9929425292773302	0.7602904187441721	0.648480207356446	0.037840452332824404	-0.648065192394224	0.7532451610780199	0.11239765887057443
280														9.684593309480947	0.3997938587718582	1.1177459285730957	0.044424359269244956	-0.1099777646696784	0.9929407674084992	0.7602579217476484	0.6485197474992994	0.03781573116300746	-0.6481005853441771	0.7532111446212855	0.1124215410623304
281														9.698087531887376	0.38683468994443126	1.1472944808156966	0.04443485412482487	-0.1099929719697299	0.9929386133372858	0.7600431840933196	0.6487691126959131	0.037854943204898905	-0.6483516808431934	0.7529941464108629	0.11242736952709573
282														9.736226944081457	0.48245924927521344	1.131335041430746	0.044396412716796146	-0.11007873142032132	0.9929308291249566	0.7597949174473091	0.6490523552618913	0.03798320089499363	-0.6486452358254993	0.752737479482645	0.112452856891223
283														9.781162044867036	0.5448369226628264	1.1173135854041005	0.0442810672864509	-0.11011616343327957	0.9929318292968092	0.7596017128860396	0.6492699320463164	0.038128639120299124	-0.6488793607910235	0.7525443414784982	0.11239479190837057
284														9.781634270685263	0.5130537614238992	1.1436527777990244	0.044204897548657154	-0.1102736609716849	0.9929177441906323	0.7594173491317778	0.6494742220279883	0.03832133555608502	-0.6491003134110902	0.7523449704869705	0.11245367273941441
285														9.827035294753555	0.48782924412602474	1.1325920224683275	0.04423695656757706	-0.11055328261839498	0.992885221652501	0.7594525025129601	0.6494240992788641	0.038473831400563374	-0.6490569991152095	0.7523472010834718	0.11268851281929951
286														9.722509126891756	0.3585133578279296	1.0850020020832178	0.04438231035117075	-0.1108328272195418	0.992847568833412	0.7595799387615174	0.6492720508084147	0.03852428675635633	-0.6488979327744411	0.7524372986831259	0.11300258577350546
287														9.682661492744751	0.38542859807989893	1.07720178547082	0.04448925285438009	-0.1110019711269124	0.9928238860877591	0.7596375289917292	0.6492035145171196	0.0385437580674276	-0.6488231892648407	0.7524715005530512	0.11320384237136329
288														9.66887202944972	0.3984674059636729	1.0504614189295365	0.0445966315790533	-0.1111322132083159	0.9928044981965104	0.7596383766944751	0.6492023096932513	0.03854734416184419	-0.648814824973032	0.752453315679033	0.11337253026568972
289														9.68829131247493	0.49421728472116855	1.1060006902945918	0.044646620180981686	-0.1111361573512396	0.9928018099477942	0.7597189173388699	0.6491109887207156	0.03849793448317623	-0.6487170769633486	0.7525315135269859	0.11341285290880133
290														9.760394854239692	0.4743804507957362	1.126170343401829	0.044721017721550405	-0.11116734319410743	0.99279496996163	0.759823521262559	0.6489917614762994	0.03844359598238639	-0.6485894287683972	0.7526297332307932	0.11349113422127183
291														9.747994171539967	0.365567088051874	1.125961213503594	0.04480102785168456	-0.11128158651600062	0.9927785636313442	0.7601012745818981	0.6486684886688712	0.03840890765196203	-0.6482583746334536	0.7528914930523023	0.11364629077567205
292														9.728625062921926	0.3452410495253357	1.1482781745726223	0.04491773181100449	-0.11138846454227641	0.9927613043102905	0.7601470899683633	0.6486163837024699	0.038382136539800216	-0.6481965743365081	0.7529205779892358	0.11380599394922682
293														9.709245291966578	0.3248963798987552	1.1706082108191254	0.0450643905665004	-0.11151455070158839	0.9927405026917625	0.760384865449871	0.6483418034617647	0.03831138575839527	-0.6479074448543186	0.7531383743149527	0.11401110488272022
294														9.668402114713182	0.4184376590913593	1.1097498478849048	0.0451563573336933	-0.11162984633622597	0.992723365696256	0.7602340751382607	0.6485167170509759	0.0383434310423269	-0.6480779693763901	0.7529706801146874	0.11414946559927439
295														9.634785666869469	0.5544794257065045	1.125117873845902	0.045131541656604005	-0.11166852830169516	0.9927201437135402	0.7600155113289835	0.6487679577211365	0.038426027295174914	-0.6483359981421994	0.7527484817794581	0.11414971174592929
296														9.640842375122478	0.6094298253566975	1.1261315710351667	0.04511986020374695	-0.11168370352856172	0.9927189675740757	0.7598294681172525	0.6489827862939219	0.038477558067411655	-0.6485548377707531	0.7525610230807347	0.11414258164169191
297														9.66100096711619	0.6181535785141572	1.1817201164888396	0.04502647818314606	-0.11170122338825805	0.9927212362773297	0.7597788190803068	0.6490366684222943	0.03856875834433876	-0.6486206613571279	0.7525119532185891	0.11409205898653449
298														9.69332032078166	0.550155208963222	1.1155146668812197	0.044993434348122766	-0.11171936997441723	0.9927206924599089	0.7599170082030826	0.6488741156694713	0.0385813770858211	-0.6484610485674817	0.7526494299384552	0.11409252431286297
299														9.7204123749775	0.4152558072486216	1.1261730065796942	0.045045061063908015	-0.11192934436144919	0.9926946984569652	0.7605030987478222	0.648187412558062	0.038576093584568705	-0.6477700049158724	0.753209731795933	0.11432025480722866
300														9.656168226398496	0.2248642478097034	1.1147227058856335	0.04520154618340319	-0.11213578957406312	0.9926642861104809	0.7607360678194707	0.6479154774402871	0.038550865254803	-0.6474854865873048	0.7534129669642843	0.11459252099886327
301														9.629508806389188	0.21752256940936474	1.0846517981939068	0.04526815921029555	-0.11223926602527545	0.992649555948029	0.7605653398991303	0.6481130718176635	0.03859805543278838	-0.6476813703556957	0.753227584001794	0.11470418123585817
302														9.642589690901106	0.3144449556942633	1.1632829434412006	0.045256153386587325	-0.11226311458013499	0.9926474065273214	0.7602532827433568	0.6484743317720503	0.03867799258936111	-0.6480484755468525	0.7529130322537662	0.11469585521648192
303														9.641541994321395	0.5123717140213495	1.2105725395096874	0.04527568063765848	-0.11224618121215951	0.9926484309895843	0.7599097108284876	0.6488748287036387	0.03871289272823608	-0.6484499549937227	0.7525704295799234	0.11467521262473544
304														9.666238280021952	0.6205287309221018	1.1650178293758453	0.04532091609067766	-0.11225610655428447	0.9926452443375602	0.759656754289668	0.6491699456602692	0.03872979877988114	-0.648743115745199	0.7523143945138336	0.11469708619008169
305														9.620417473580458	0.6474258111567689	1.178355071794527	0.045452193102775734	-0.1122836693513441	0.9926361245386683	0.759516534015306	0.6493373759810988	0.03867307475955267	-0.6488980911510873	0.7521657727861457	0.11479511117419608
306														9.639147535437258	0.6455527389845815	1.1084643554802813	0.04556896908578849	-0.11225661803722115	0.9926338301525413	0.7595859317834923	0.6492632433077921	0.038554547410788176	-0.6488086630841656	0.7522338018171559	0.11485480447349779
307														9.658643968554152	0.5548829064148038	1.0400480699327452	0.04568370571604352	-0.11215872007054728	0.9926396226950582	0.7598954227981705	0.6489131868312088	0.03834869446220196	-0.6484380814252357	0.7525503953016717	0.11487365707096697
308														9.672963487672895	0.3973296926224754	1.0469803655842904	0.045825795365903824	-0.11206911023395255	0.9926431942095072	0.7602126106163365	0.6485546917814868	0.0381260859270397	-0.6480561573960838	0.7528727158687528	0.11491688544957827
309														9.733243251287973	0.28873235428547445	1.1157148501508531	0.045908063494940074	-0.11195308704361795	0.9926524850155514	0.760285667949042	0.6484779189428518	0.037974883210195376	-0.647964623121837	0.752956104261698	0.11488669303980932
310														9.727142481086966	0.23279710619931715	1.114947169404659	0.04600079212538509	-0.1117916370576631	0.9926663875682533	0.7603077555290385	0.6484625255765029	0.03779510292802668	-0.6479321291664999	0.7529933484479874	0.11482583849837559
311														9.745860007425232	0.2844438641575314	1.0687290036820627	0.04618327592827427	-0.1116941517657336	0.9926688881423991	0.7604414624281346	0.6483188564562379	0.03756917065143389	-0.6477622150486191	0.7531315136313246	0.11487835275062612
312														9.71406658526613	0.26247416575934013	1.1373980074196646	0.046485227398536125	-0.11157850275312742	0.9926678001008575	0.7605603256940354	0.6481982196078605	0.037243242036399005	-0.6476010458715213	0.7532524847755693	0.11499382403216916
313														9.635182078599216	0.31232092093739783	1.1164346287703042	0.046757289643676356	-0.11131244108922467	0.9926848927650382	0.7605574138139152	0.6482233500314927	0.03686337975061671	-0.6475848795006465	0.7532702230492767	0.11496866925135114
314														9.706347944261791	0.464994280955864	1.1327549367237564	0.047035516399868485	-0.1109748700890083	0.9927095438272596	0.7604152848452334	0.6484130590338013	0.03645681621002078	-0.6477316224878485	0.7531567453612538	0.1148854305214692
315														9.764734290678355	0.4882098721677448	1.0970865582297773	0.047223054527480976	-0.11071562698837345	0.9927295870788106	0.7603970404259838	0.6484517273084989	0.036148281591645515	-0.647739395152479	0.7531616076853596	0.11480970636799477
316														9.725882722713488	0.42358901127962967	1.0884393536139103	0.047526799192408334	-0.11057941859733633	0.9927302733075078	0.760518985408264	0.6483276439409947	0.03580696769489217	-0.6475739928317912	0.7532884296765705	0.11491068498315281
317														9.688238200683607	0.31325370589500806	1.1825416637723003	0.04784355698916577	-0.11045942472980369	0.9927284168104513	0.760757503530439	0.648067613713593	0.0354455762783355	-0.6472704341129436	0.7535297496077578	0.11503869600839288
318														9.68186792511472	0.2010812437150912	1.1588189847022714	0.04817105189450781	-0.11035319064549631	0.9927243943178463	0.7608924981691806	0.6479277464097617	0.035103299876658944	-0.647087440759933	0.753665581505966	0.11517827600738774
319														9.680910351515742	0.2099891290487335	1.0841359664806358	0.04851901944729953	-0.1102334479155947	0.9927207521314906	0.7611192691239936	0.6476819946377035	0.034720195712053536	-0.6467946837444091	0.7538943034555743	0.11532569660402775
320														9.674620154598518	0.2616255095013876	1.1331694432623638	0.04880635185332417	-0.11003153886086997	0.9927290670040232	0.7610044330631516	0.6478345091889087	0.034390428351458835	-0.6469081796337102	0.7537927494742003	0.11535292784808192
321														9.65464332064169	0.36000933792169504	1.1266343727544417	0.04904380398385666	-0.10981666630068493	0.9927411571469162	0.7608944672904907	0.6479795775528941	0.03408924641429045	-0.6470195630253497	0.7536993876055479	0.11533827719152356
322														9.628867562658929	0.42529339784155573	1.1691849562515864	0.049309198445026126	-0.1095432711496252	0.9927582156268207	0.7607004078061197	0.6482254705903661	0.03374357481806223	-0.6472275430730003	0.7535277108532497	0.11529308940239708
323														9.700803660932689	0.49019632267335994	1.1870040952949652	0.049610714754763696	-0.10930122459086677	0.9927698722687237	0.7607326738089483	0.6482079444116728	0.03335055923191621	-0.6471665751419873	0.7535779343269879	0.11530707226558168
324														9.746222071496	0.493131273516948	1.1485458653410412	0.049864262405533086	-0.10910080259834454	0.9927792152372797	0.760745372507317	0.6482097269689927	0.03302465853702924	-0.6471321608013741	0.7536054436740627	0.11532043063292576
325														9.68822322397527	0.37560309072019665	1.185920979888729	0.05005212799881928	-0.10892603167868942	0.9927889524493725	0.7608279525926211	0.648126583871236	0.03275298204929583	-0.647020564616388	0.753702229598755	0.11531408440149679
326														9.734192295169818	0.3127101010760406	1.1995902240647314	0.050222105205719555	-0.10880517867549772	0.9927936206695221	0.760783155210619	0.6481892514776874	0.03255280351322681	-0.6470600674562456	0.7536657928831509	0.11533057591692931
327														9.759659645646687	0.2760261502110945	1.1316614624271188	0.05032307048786021	-0.10869101259276287	0.9928010134756283	0.7606401641748373	0.6483633493677229	0.032426961632967266	-0.6472203096479218	0.7535325016070833	0.1153023841948654
328														9.76631121728319	0.29559192396210787	1.1595840967752318	0.050517789596533386	-0.10873842323387511	0.9927859327402312	0.7605949971665054	0.6484217777464237	0.03231792736935779	-0.647258219893393	0.7534753834444614	0.11546273564946344
329														9.700689150844957	0.28045524796238563	1.144543954368304	0.0507749076027207	-0.10882505844546231	0.9927633229588397	0.760653658660831	0.6483603914069371	0.032168531525949284	-0.6471691589714608	0.7535156995769801	0.11569861782747064
330														9.641376617243752	0.2644655847938274	1.105967460918332	0.05104085582847821	-0.10882816229106712	0.992749345065836	0.7606713958210691	0.6483496408720788	0.03196514915769272	-0.6471273897896175	0.7535245014419878	0.11587479066078517
331														9.647715580389805	0.3164342354947563	1.108447098617067	0.051319687947960796	-0.1087215018441976	0.9927466568393299	0.7605056582404018	0.6485564127407023	0.0317131404506899	-0.6473001107780356	0.7533619412537735	0.11596703004340828
332														9.686880200235926	0.37490121574196855	1.1188201536500433	0.05157694920477485	-0.1085425040467024	0.9927529114165309	0.7604201977437202	0.6486710752908352	0.031415902731446066	-0.6473800592960276	0.7532890287906109	0.11599438749167412
333														9.699973673228119	0.39243849104560447	1.1226886452541018	0.0518075706688533	-0.10836218703766776	0.9927606015761329	0.7602481085952808	0.6488854048562951	0.03115356707955208	-0.647563733541873	0.7531303790081074	0.11599932420671502
334														9.680641322102565	0.36956731145102656	1.1436851702273683	0.05204733198159514	-0.1081460817433959	0.9927716254190322	0.7601809584815818	0.6489789492689684	0.03084207787695692	-0.6476233362037074	0.7530808378980941	0.11598821489739106
335														9.739393304337385	0.4476642545254397	1.1326088807301558	0.052217053438579464	-0.10787897008202996	0.9927917743133419	0.7600492259399549	0.6491464681596815	0.03056201930317337	-0.6477642730795428	0.752974760991265	0.11588984352340553
336														9.779657688176982	0.4600932023911665	1.2445661720966132	0.0524989792904129	-0.10771770909076073	0.9927944159400292	0.7601659742936042	0.6490257000468309	0.030221386549547036	-0.6476044693327253	0.7531019425197096	0.11595652406535746
337														9.791943910440121	0.3131438821590862	1.1761666519086529	0.052817089142218554	-0.1076476199653697	0.9927851454420213	0.7606165826591658	0.6485146254034668	0.029852886320999583	-0.6470492788640108	0.753552102082924	0.11613121960941936
338														9.732378847138742	0.24104528391538577	1.1134733572686988	0.05317135375980944	-0.10769447961462719	0.9927611526444231	0.7610019408526254	0.6480765085819284	0.029544627985382155	-0.6465669749978622	0.7539222360991829	0.11641481330707673
339														9.692405636592042	0.15570208306623232	1.0561971887720707	0.05350577035264935	-0.10762938990422022	0.9927502440028991	0.7612398974989044	0.6478124008555208	0.029204652945451715	-0.6462591979963054	0.7541584765330508	0.11659348729033205
340														9.672831192145376	0.13285770056594745	1.0782640178703056	0.05377440493815405	-0.10753659957806172	0.9927457847428695	0.7612418627105997	0.6478220051907511	0.028939178418391887	-0.646234585758488	0.7541634632769096	0.11669760420734193
341														9.718309862791891	0.22460796193903967	1.0389691525139646	0.05397372763100863	-0.10735905178440419	0.9927541844412279	0.7610043199727544	0.6481110305523223	0.028714405081983863	-0.6464976888654895	0.7539403995518216	0.1166816704337936
342														9.718856474686453	0.3649415665044958	1.0617729657445247	0.054164918248282665	-0.10714098396826666	0.9927673298338682	0.7607963957099821	0.6483661357723209	0.028463981772908153	-0.6467263763801945	0.7537520570704799	0.11663117317494094
343														9.745800640464008	0.3908567670403692	1.1442468659420486	0.05434689088355049	-0.10693154805113414	0.9927799652907381	0.7607218796737579	0.6484650047000626	0.02820211809371581	-0.6467987610044685	0.7536967438636943	0.11658722508211894
344														9.70658188976274	0.29330124407704516	1.1612861026662766	0.05464766934814831	-0.10677466998423141	0.9927803392919171	0.7609391462331065	0.6482260585377955	0.0278315066531738	-0.6465177862710713	0.7539244968047617	0.11667306952694965
345														9.693010746859157	0.21510591203003104	1.1351751721083465	0.054869392383912016	-0.10668199322753308	0.9927780729349442	0.7611765381442228	0.6479589211672012	0.027559286250078918	-0.6462194886864658	0.7541672154110373	0.1167569425814385
346														9.640716299720967	0.18539913897353683	1.1482827942540856	0.05514640161874741	-0.10653644278131769	0.9927783542906278	0.761207019234387	0.6479362875587004	0.027247772990635633	-0.6461600020558406	0.7542072351974308	0.11682764278647394
347														9.62789518870247	0.21744111985912273	1.1703434201617777	0.055299735878613226	-0.10643903110327851	0.992780273710931	0.7610247227913804	0.648156572450791	0.02710034850597748	-0.6463615942427725	0.7540316904790132	0.11684562140407165
348														9.673978036563618	0.364931385023123	1.1551143820518686	0.055388277292309135	-0.10634219926465616	0.9927857147411753	0.7607335964826296	0.6485014961938229	0.027022298513944387	-0.6466966320626649	0.7537487287484663	0.1168174644001351
349														9.707123951144006	0.4258109340003191	1.1880457266701474	0.055413236813641395	-0.10625507675574275	0.9927936501859114	0.7605216293758672	0.6487516319125981	0.026984650122176268	-0.6469437567805341	0.753545737665851	0.11675871191614447
350														9.713984402572148	0.4461549612676508	1.214517398837653	0.05544716579240887	-0.10616469697198355	0.9928014247181742	0.76037015825835	0.6489315483026556	0.026927087619912915	-0.6471188717969532	0.7534035457405053	0.1167058825846989
351														9.752412179593563	0.2759263605413625	1.2027317079863464	0.05547491915693109	-0.10610186508087938	0.9928065912205113	0.7603685585854372	0.6489359882625589	0.02686518662509335	-0.6471183728339329	0.7534085726642983	0.11667619370166343
352														9.70607659094478	0.2269349067504544	1.140670190250433	0.055515275504797484	-0.10602582082797563	0.9928124593816204	0.760318043626948	0.6489981208019754	0.02679387487460949	-0.6471742630242013	0.7533657574599869	0.11664265414428523
353														9.666135517698677	0.14386748346658185	1.0810606282537458	0.05558034588355293	-0.10596764885030974	0.9928150293728444	0.7605200828849285	0.6487664598661025	0.026669909664384484	-0.6469312395302658	0.7535734456242087	0.11664918932376472
354														9.659253005399544	0.15514574220831776	1.0286497670734427	0.05570674824589504	-0.1058502691640914	0.9928204665083	0.7604886130793886	0.6488102019855815	0.026502663564580142	-0.6469573614825455	0.7535522824046907	0.11664103097205898
355														9.608062949689346	0.16938772476510616	1.1404805303217362	0.055681307373665875	-0.10560307982642592	0.9928482167684707	0.760515901121201	0.6487842072182348	0.026355580168407278	-0.6469274736405668	0.7536093430918829	0.11643797427666709
356														9.687285917016347	0.25650420562674564	1.1841033214262355	0.055728282340952826	-0.10538068702168396	0.9928692105963229	0.7602714257265277	0.6490762303519091	0.0262184365649204	-0.6472107213041826	0.7533889818646101	0.11628982859186922
357														9.687944609575334	0.2767429076931824	1.2332887425124126	0.055714903888812325	-0.10514903118048863	0.9928945214505243	0.7597751868492983	0.6496591398630083	0.02616615066399719	-0.6477943461722826	0.7529187759873317	0.11608532135013434
358														9.675328955161989	0.3438752476138389	1.2274595641577761	0.055719765597513404	-0.10499735873779348	0.9929102992616425	0.7594495743382301	0.6500415463417533	0.026121486693958695	-0.6481756334198614	0.7526098210146535	0.1159603619908634
359														9.708143945817271	0.35064063556338637	1.2354388786141166	0.05569447305489296	-0.10492076115078247	0.9929198152674158	0.759079616297692	0.6504721085654477	0.026156683653892177	-0.648611025031557	0.752248409674598	0.11587091243945545
360														9.688108798829981	0.310077858577472	1.2056345169726501	0.05567212235378159	-0.10495691589142658	0.9929172476088761	0.7588494203758556	0.650737350995943	0.026238468210084465	-0.6488822481682284	0.7520139266166176	0.11587442421346829
361														9.688103861192252	0.24447194913603987	1.258179373568721	0.05563821263407566	-0.10504711305380121	0.9929096098507394	0.7587078655760693	0.6508979373521295	0.02634862166696217	-0.649050663668015	0.7518623405849009	0.11591486877145656
362														9.655251311978384	0.27225561098983686	1.223855478910064	0.05558378683923966	-0.10508464355521913	0.9929086868033143	0.7583658121887196	0.6512912840491616	0.026475615666831098	-0.6494549542069514	0.7515163877191677	0.11589383696115911
363														9.70106452212616	0.333791011037078	1.2095681702545966	0.055529142967999615	-0.10508551581840297	0.9929116519844148	0.7580914707016487	0.6516068894380944	0.026566589661119577	-0.6497798368144789	0.7512426345742041	0.11584760535875603
364														9.733795103933973	0.30835571295889214	1.2443460508351145	0.055492756506670335	-0.10510967731296217	0.9929111288078389	0.7577181563993484	0.6520364679366805	0.026676580429870533	-0.6502182321636825	0.7508664330064461	0.11582681186198764
365														9.70099358853335	0.3027238106043894	1.2360087452517277	0.055476560813327414	-0.10517901065225171	0.9929046917597574	0.7574222644199293	0.652375631384339	0.026787103928417932	-0.6505642662806742	0.7505620635857495	0.11585648080530248
366														9.687670355572733	0.3167378805383914	1.2074250318811681	0.05548210944230529	-0.10524106336807082	0.9928978064800984	0.7571004451152806	0.6527452248845229	0.026880985783614586	-0.6509382855064505	0.7502319574449043	0.11589373792535713
367														9.713908309547515	0.325340169584088	1.240461471715915	0.05552068306676404	-0.10537451830041988	0.9928814957711491	0.7568049190317162	0.6530832552647279	0.026992151122574748	-0.6512785642727676	0.7499189773474071	0.11600758222211895
368														9.688349688411032	0.329207744032567	1.335721834894636	0.05552998654993169	-0.10548275705159199	0.9928694821367806	0.7563905250039056	0.6535574415053008	0.02713013706860029	-0.6517590001511909	0.7494905327072783	0.1160781939215102
369														9.707583266228019	0.38426747791620286	1.2901454203074119	0.05546956878686349	-0.1056970183477296	0.9928500728967085	0.7558842879170106	0.6541313273094184	0.027407114270068922	-0.6523511862630385	0.7489595095496274	0.11617909810455684
370														9.713047523548777	0.3978832117662558	1.1924517151333063	0.05551450959759101	-0.10605550108872563	0.9928093321040845	0.7555482572587904	0.6545083968782341	0.02766928566278165	-0.6527365243169281	0.7485793138370196	0.11646476170049498
371														9.65397027201651	0.3743952084461931	1.231064254401121	0.05557920587394646	-0.1064123569577573	0.9927675267458724	0.7553492960057795	0.6547285856336711	0.02789122044131881	-0.6529612491549519	0.7483360805419099	0.11676779376684929
372														9.633207395892669	0.28030888185139363	1.1806970152202971	0.05565363329225771	-0.10671374050615035	0.9927310062089111	0.7550302877422365	0.6550879072502347	0.028090894723797832	-0.6533237617699562	0.7479786169147444	0.11703012836470615
373														9.679091517067958	0.33137236954208815	1.2448157797436927	0.05568405883068446	-0.10698413498186371	0.9927001966627804	0.7547924247754951	0.6553534366314988	0.028289019014668904	-0.6535959616564879	0.7477073411151358	0.11724355397574941
374														9.71785315448575	0.30683261419200375	1.2583571286931567	0.05571972048215999	-0.10726408268155124	0.9926679854391778	0.7543127029504741	0.6558949681756392	0.028533084120498875	-0.6541465118128662	0.7471922157573399	0.11745694442942585
375														9.730688193216352	0.26361298313625653	1.316136555849371	0.055671492132458936	-0.10751369528008464	0.9926436874785269	0.7538794143273997	0.6563807440808695	0.028812279556146292	-0.6546499168388575	0.7467296191574737	0.1175940570599203
376														9.737023246620574	0.32106991167074517	1.3183374482895889	0.05563815379181822	-0.10782828361229296	0.9926114330874218	0.7531473608749331	0.6572044969041696	0.02917708100652605	-0.6554948120692963	0.7459593222838393	0.11777623210170099
377														9.710590418183216	0.4378017768253019	1.2588577563031897	0.05565088186962702	-0.1080886846483411	0.9925823973847838	0.7524906312182952	0.6579438234392616	0.029458023131539335	-0.6562475365864815	0.7452695897788384	0.11795087653365444
378														9.671331684614298	0.5223309973131836	1.273084170973323	0.055772951170088764	-0.10839148449586183	0.992542525036868	0.7517849130521503	0.6587394895167398	0.02969392965566281	-0.6570455253823355	0.7445223777966703	0.11822692812994132
379														9.63838479011142	0.5729200677078036	1.290845199555616	0.05587658912805238	-0.10877788571610886	0.992494422335233	0.7513964037749574	0.6591713654056565	0.02994253535196273	-0.6574809892167801	0.7440836529640842	0.11856755968707666
380														9.605209220794997	0.5682161822137414	1.2848494943760516	0.05597142300795996	-0.10902233702089054	0.9924622561271369	0.750903652592037	0.6597244370665554	0.03012261046379422	-0.6580356406232118	0.743557527813228	0.11879098661884727
381														9.598392513154552	0.5711366881738713	1.310352330945608	0.05590493982972933	-0.10924484082116781	0.9924415360395757	0.7506619055713546	0.6599884266015212	0.030364128112487565	-0.6583170522070787	0.7432905498565191	0.11890255366213293
382														9.689379786119206	0.5732261132879359	1.3116446187173758	0.0559194498297208	-0.1094692880708536	0.9924159864190029	0.75015950890764	0.6605488322214514	0.03059332355801908	-0.6588882502565895	0.7427595271823431	0.11905695466318861
383														9.682611728866513	0.5768517258360721	1.336398139196505	0.055756498809724914	-0.1096514641011132	0.992405042944141	0.7496524631547379	0.6611086268992173	0.030928432315018906	-0.6594788831543542	0.7422344237907001	0.11906159252072798
384														9.636539849857032	0.5527112690119959	1.3256591838202185	0.05561571844903056	-0.10987955951283163	0.9923877136798216	0.7491755177902402	0.6616329061264257	0.03127204941198042	-0.6600325260205917	0.7417333617493322	0.11911626531633025
385														9.577596240757774	0.5957768775399837	1.3084899541620996	0.05545987730893061	-0.11001395335202596	0.9923815456147586	0.7488794670522914	0.6619556542764834	0.03153181883224254	-0.6603815153654401	0.7414254121887457	0.11909917012470748
386														9.551185063780455	0.622897317178218	1.2498143812216307	0.05533288866949751	-0.11012146987225624	0.9923767093723347	0.7486447225305677	0.6622111377259161	0.0317409593251024	-0.6606582708621901	0.7411812672652502	0.11908391241666286
387														9.603008423048681	0.6289672919667469	1.1884278477825425	0.0552124653175706	-0.11029074475742207	0.9923646181189705	0.7488180933261559	0.6620068250076885	0.031912799166181005	-0.6604718364782387	0.7413385969070365	0.11913873406650652
388														9.52428697778551	0.44193132569644394	1.2264957804455425	0.05520642130277549	-0.11048051282385757	0.9923438453142732	0.7491086097885011	0.6616742692630625	0.03199143847862512	-0.6601428192351106	0.7416071855648179	0.11929057184434332
389														9.491046068629942	0.23767003367806813	1.1759733832451535	0.055025382231194825	-0.11058669694617113	0.9923420729611571	0.7494023729342465	0.6613341043381948	0.03214476442156533	-0.6598244393403682	0.7418947262905521	0.11926409498015508
390														9.562719262563775	0.16446369174449552	1.1729841021006984	0.054831396421260406	-0.11058971416216667	0.992352474218725	0.7492144590054112	0.6615381475410436	0.03232605396880073	-0.6600539465708269	0.7417123394345647	0.11912847328317992
391														9.621785053023066	0.2694865106938772	1.2091236182280571	0.054529691875437394	-0.11056045121838498	0.9923723592131929	0.7490690343550942	0.6616914009189148	0.03255874260919894	-0.660243965874962	0.7415799866341812	0.11889923864075401
392														9.719680478571705	0.27087961300195224	1.1839852901447585	0.05430016067233984	-0.11060520071010876	0.992379958547549	0.7486862751422665	0.6621110919555706	0.03282930585621402	-0.6606968699521414	0.7411986181080474	0.11876133440713993
393														9.726101215278904	0.30527799307496506	1.1328600527116337	0.054042238184805594	-0.1106586040092224	0.9923880842950032	0.7485077078719251	0.6622999778494184	0.03309003773005448	-0.6609203036284279	0.7410218705945121	0.11862099119597978
394														9.713248235494751	0.30929235446227776	1.1790212967928695	0.05388028408936328	-0.11064998328454567	0.9923978517638882	0.7481695437794672	0.6626731485093176	0.033266078902880136	-0.6613163000768046	0.7406894622200848	0.11848996501327898
395														9.733014471189279	0.2646096277004988	1.2104862757832606	0.05366585389266239	-0.11053771497666925	0.9924219816659186	0.747909635360374	0.6629598437701698	0.033397947292382324	-0.6616276546979307	0.7404496330716689	0.1182505282142418
396														9.75268044351598	0.2849121627880235	1.1882145288126542	0.05356927887405674	-0.1103986166260934	0.9924426823791682	0.747449060486192	0.6634759765549711	0.03345938601851861	-0.6621557477959567	0.7400079553501246	0.1180592718904592
397														9.700793506732323	0.4020148217648694	1.2183082904543865	0.05345658103206721	-0.11029110321541424	0.9924607128223716	0.7472355969099675	0.6637138404419227	0.03350971077821252	-0.6624057341652226	0.7398106585859396	0.117893311038717
398														9.674866482380658	0.44929036910759323	1.2075680335045786	0.05338570836376508	-0.11008590448899042	0.9924873096293676	0.7467730166768847	0.6642343746664896	0.03350756742473332	-0.662932898343267	0.7393739170029321	0.11766980559997989
399														9.668936629642666	0.4732886403599834	1.2783712671844067	0.05313883546476675	-0.10985968110897981	0.9925256241690095	0.7464935442467048	0.6645442857665078	0.033589889149491736	-0.6632674065288009	0.739129043348802	0.11732265218125246
400														9.68238003951386	0.4945743349597266	1.2779005421128422	0.05292598704521827	-0.10960614964428617	0.9925650265123407	0.7459897597346573	0.6651058262308929	0.0336677632869955	-0.6638509759474014	0.7386614460453959	0.11696644758137738
401														9.66961992909243	0.5073894733975354	1.2450005973757654	0.052640292237658134	-0.10929612580267312	0.992614404750233	0.7457433546499055	0.6653796369310603	0.0337162832025521	-0.6641504713757556	0.7384607610713081	0.11653263804336152
402														9.58517673860476	0.4737042668416261	1.2457935830577955	0.05252659953601438	-0.10903868873865358	0.9926487398366742	0.7454859538273975	0.6656701794225617	0.033673504028972734	-0.664448379475214	0.7382369379716033	0.11625220181601967
403														9.500668027847677	0.4719171566157424	1.2196514246102694	0.052327969144035064	-0.10864268783482683	0.9927026493493833	0.7454597296064995	0.6657052525171392	0.03356051707134011	-0.6644934726393215	0.7382636948618804	0.11582375260981229
404														9.448655553732333	0.4537380369371352	1.151736126035868	0.05220669114292979	-0.10816831210537986	0.9927608360809668	0.7454338258481052	0.6657454754321942	0.0333372647801049	-0.6645320704686597	0.7382970799060735	0.1153886871439367
405														9.56680552471209	0.37174119791032934	1.1834536147331876	0.051995742055981425	-0.10766056864516033	0.9928270971156301	0.745649696657499	0.6655147023673352	0.03311662433728735	-0.6643063846468944	0.7385793003408084	0.11488100115099278
406														9.592987351266792	0.3322586150252857	1.1123217744087543	0.05188762629631864	-0.10719806798937126	0.9928827969386318	0.7457700933897856	0.6653921890896767	0.0328664343036944	-0.6641796760235326	0.7387569349371922	0.11447073442361246
407														9.632780812120636	0.2707238506680894	1.1475830863312748	0.05171589502818427	-0.10680857387953119	0.9929337312969354	0.7462527446946665	0.6648614789673928	0.032650494957476905	-0.6636507419095611	0.7392909727104153	0.11409009786908422
408														9.600234031918667	0.2062922274029851	1.1132497137417017	0.05163018509855266	-0.10645025624788595	0.9929766698827567	0.7463312255806954	0.6647826577022057	0.03246104960733409	-0.6635691566897206	0.7394135250069153	0.11377000187633646
409														9.613829607618992	0.19244905865892178	1.139966221641657	0.05149740978387268	-0.1061584902523845	0.9930147993523996	0.7466517825421992	0.6644299687259987	0.03230994096752671	-0.663218766631425	0.7397723917571559	0.11347984835110003
410														9.61375159874701	0.1684336805045507	1.0875347209384634	0.051380497533576194	-0.10582672762928919	0.9930562663779318	0.7466223188805461	0.6644693708879026	0.03218024395914992	-0.663261002488943	0.739784535436576	0.11315336365416263
411														9.601200435154615	0.23479908818324685	1.077546816659162	0.05115348905882876	-0.10539248364498643	0.9931141651130803	0.7463926251461178	0.6647313439635022	0.032098122685976505	-0.6635370145550253	0.7396111578009208	0.11266750006894823
412														9.693330153478673	0.28889001203685055	1.0956918268658855	0.05094854648960699	-0.1049930703650882	0.9931670054859396	0.746298885834453	0.6648413361757146	0.03199954240836633	-0.6636582091806373	0.7395690994676579	0.11222891115816448
413														9.680356498647214	0.21247205982759015	1.0661828618821263	0.050592725307435193	-0.10453983320905008	0.9932330035890823	0.7461356772382286	0.6650250016256805	0.03198903507474565	-0.6638689082177415	0.7394681673239134	0.1116463264796308
414														9.753179098135504	0.24808086165304874	1.104130631831764	0.050232314557505944	-0.10407996074145176	0.9932995904289166	0.7458552770934318	0.6653390932733707	0.03199682162416728	-0.6642112767832804	0.7392504668474864	0.11105011057940271
415														9.851070963328938	0.19162978036112038	1.05129492898073	0.04979763910800518	-0.10362690985551659	0.9933688432264552	0.7456644583682072	0.6655504255693243	0.032049127147859735	-0.6644582083665739	0.7391238695768714	0.11041374351046528
416														9.910432746539884	0.27257798628784186	1.0323742227501127	0.04946656033363557	-0.10324397335932528	0.993425257064535	0.7453779425149352	0.665869482066362	0.032086689839817883	-0.6648043187442156	0.7388900559742658	0.10989405334860307
417														9.871312351646758	0.24414432702474048	0.9932344540409728	0.049074440515586445	-0.1028503108023176	0.9934855373159437	0.7452799182914085	0.6659770550206928	0.03213106872665622	-0.6649432627522698	0.7388480058535938	0.10933472260235556
418														9.884886916709084	0.143811476076998	1.022907340222093	0.04886121063813094	-0.10251734437007565	0.993530460629307	0.7453571371685132	0.6658943432935569	0.03205404251573146	-0.664872408937936	0.7389688205012099	0.10894843808020453
419														9.826732717649064	0.029556913076955744	1.0596644304194804	0.048628664592682044	-0.10207703864209816	0.9935872036021763	0.7454879501594944	0.6657547710064304	0.031910829653445716	-0.6647427842007224	0.7391555066859988	0.1084719677558988
420														9.793995108389337	0.08607161770903159	0.9930829030090981	0.04845501780584156	-0.10159077292298013	0.9936455233665308	0.7452253230346103	0.666056084699447	0.031757045561634056	-0.6650498696770012	0.7389510179245675	0.10798177601266438
421														9.762176265066635	0.13257659048496223	1.0029108831298836	0.048236166741360983	-0.10105977295965629	0.9937103171988514	0.745148881038452	0.6661501871362342	0.031576466957253135	-0.6651514243427897	0.7389390032118364	0.10743710824038012
422														9.742576146570991	0.20877714064783226	0.9386718364141936	0.048146416766481	-0.10052697821155115	0.9937687101152872	0.7448968465529764	0.6664437917868727	0.03132667208891482	-0.6654401630109046	0.7387469113575968	0.10696910961408891
423														9.717043447830891	0.25327587853344097	0.9246266486484565	0.047929583562574984	-0.0998927663527377	0.9938431416727267	0.7448243481260625	0.666536625326853	0.031074387145631543	-0.6655369602494698	0.7387491877005943	0.10634938746230699
424														9.764566495964866	0.2684317513410755	1.0068538373596658	0.04780275468889042	-0.09932427503938179	0.9939062254720282	0.7447430428029181	0.6666401810160338	0.030800474859321247	-0.6656370608979069	0.7387323990748004	0.10583829985589013
425														9.771466643194586	0.1116078035748307	1.0371321060331937	0.04762746760800546	-0.09877763954898028	0.9939691153423127	0.744862320395419	0.6665186413393169	0.030545448144410847	-0.6655161515578718	0.7389153393131872	0.10532033679815594
426														9.80496881947472	0.08357794318309143	1.0682284269362672	0.04756739616562558	-0.09828875762088424	0.9940204539884305	0.7447280161566507	0.666680650869969	0.030283522037141353	-0.6656707330004841	0.738834372427906	0.10491065410939196
427														9.81799657903083	0.16646810097279124	1.0136381384862445	0.047576615407339054	-0.09794107026993876	0.9940543307187801	0.7448174024663086	0.6665922825766047	0.030029415456413466	-0.6655700584083724	0.7389602665662693	0.1046624182148733
428														9.804524443079389	0.20881107976852037	0.9554770263790882	0.047639332972753884	-0.09767274720723201	0.9940777275479539	0.744663211981416	0.6667736130537051	0.029826995437511106	-0.6657380826386848	0.7388321753878216	0.10449795182809787
429														9.779334948744788	0.3096678922936336	0.9675344649861806	0.047616487312657746	-0.0974749238423876	0.994098239289219	0.744697224017842	0.6667410285367515	0.029705982661343833	-0.6657016709278449	0.7388877046532014	0.10433717092292519
430														9.831196380143869	0.24697492887523162	0.9580173717159552	0.04758302128267965	-0.09733102866016635	0.9941139406253021	0.7446805470030864	0.6667627249195482	0.029636996694058726	-0.6657227193064668	0.7388870952437953	0.10420710859337008
431														9.837225924326987	0.12438497580306539	0.9655824628787812	0.04756320866011232	-0.09721660226881707	0.9941260852755357	0.7449228186127288	0.6664964770517519	0.029537101883422734	-0.6654530302673681	0.7391423261597936	0.10411957638728203
432														9.796003701756787	-0.01619749880888772	0.8868599068234609	0.047660850390357515	-0.09718644382679609	0.9941243576516817	0.7449687430509151	0.6664495749825164	0.029436981549788743	-0.6653946311905495	0.7391885815824837	0.10416441638519568
433														9.750829484138228	-0.02171397623514931	0.9266612726433664	0.04773163888000087	-0.09713951942137711	0.9941255476127817	0.745000837480664	0.6664176318051973	0.02934777968197616	-0.6653536223715464	0.7392235479107361	0.10417822906598628
434														9.758023876195304	-0.03309164787837068	0.9805641936166499	0.047817170488274566	-0.09714711834417089	0.9941206946864745	0.7446669545561138	0.6667909757704187	0.029341462527544937	-0.6657211465761155	0.7388858044573303	0.10422630652971325
435														9.765884146177859	0.1645457912962394	0.998318314236595	0.047857747824594274	-0.09724391263153531	0.9941092784142334	0.7446250899007519	0.6668359094696052	0.029382738676668296	-0.6657650572562777	0.7388325191123862	0.10432352198133817
436														9.76616774047071	0.2530504975963687	0.9952387501069301	0.04797651205003295	-0.09739988522158771	0.9940882841329212	0.7441969160187698	0.6673100452473668	0.02946614498216682	-0.6662350970038023	0.7383837524423053	0.10449990262940606
437														9.75227165647166	0.29854683036976876	0.941043745667931	0.04802885971637082	-0.09764338562381036	0.994061868234702	0.7441205485964016	0.6673891605834108	0.02960266022440744	-0.666316619776917	0.7382800807144205	0.10471239004708678
438														9.680263805850384	0.28687183258994653	0.9505265369592748	0.04808980405537784	-0.09781838229668893	0.9940417168463176	0.7438876804188608	0.6676438781484799	0.02971146061547597	-0.6665721938897262	0.7380265686651917	0.10487275278794221
439														9.647306737704982	0.2809614493675548	0.9437000389046876	0.048035825762296924	-0.09792785266249515	0.9940335482850907	0.7437395767686531	0.6678027500287151	0.029848433829446686	-0.6667413301958413	0.7378682963286868	0.10491127623702928
440														9.719123179931312	0.26282274738588446	0.9646657990597292	0.048002633484946225	-0.09808861505937422	0.9940193010068988	0.7434867439801149	0.6680764969089483	0.03002092276588142	-0.6670256432134801	0.7375990902065984	0.10499701625304007
441														9.69935475730631	0.27808788477231955	0.9600760202322485	0.04789889013797913	-0.0983073834020875	0.9940026935034858	0.7434163687024733	0.6681441973741247	0.030256144177920663	-0.6671115342045724	0.7375086371588618	0.10508668349177316
442														9.712341087533868	0.3007332755441787	0.9638178860603173	0.047845910371575234	-0.0985311339549354	0.9939830906520845	0.7431327922872262	0.6684489320632323	0.03049062562354088	-0.6674312113529796	0.7372025779018133	0.10520426439463046
443														9.679776485744698	0.3838250161795854	0.95169618851398	0.047672524013968945	-0.09870678212440498	0.9939739944368682	0.7431064475355318	0.6684667203508146	0.030741688544197954	-0.6674729493284803	0.7371629500633301	0.10521714199059361
444														9.73097009015599	0.38913483196668286	0.8898607686213184	0.04755712478828791	-0.09888963709578569	0.9939613471141296	0.742911776374151	0.668672016681181	0.030981068931304312	-0.6676978451414045	0.7369522194705613	0.10526639449956834
445														9.749814646203726	0.3225239804128369	0.874533262527265	0.047380284630178834	-0.09909844366833437	0.9939489962220784	0.7431579162231943	0.6683876097436503	0.03121401441612426	-0.6674364540412543	0.7371821359770488	0.10531418809046002
446														9.702876311992876	0.27370920427175355	0.8162679559364173	0.047366247223423474	-0.09935707182947473	0.9939238456247252	0.7432398519853907	0.6682884697071578	0.031385405480895634	-0.6673462077847634	0.7372372030316554	0.10550045223295312
447														9.696920881437208	0.21165541186721143	0.8961055459631505	0.04731960521714522	-0.09950892306283832	0.9939108758802112	0.7435346983950486	0.6679561706260733	0.03147548895787067	-0.6670209946056259	0.7375178156176481	0.10559575939352546
448														9.741871720775805	0.09643904427237386	0.8906273293980147	0.04732015473187856	-0.09958590800511391	0.9939031390849657	0.7435836517138293	0.6678996193382308	0.031519063941899794	-0.6669663828560464	0.737558638627902	0.10565556646612795
449														9.721856010660712	0.022444569237552357	0.8907497657571047	0.0472719366454242	-0.09967419025073643	0.99389658405875	0.7436382746394125	0.667834713656406	0.03160556480724458	-0.6669088996985343	0.7376054846822433	0.10569138313771878
450														9.669967136761537	0.084879580292552	0.8993783624712818	0.04722046616180553	-0.09968925258755962	0.9938975201166345	0.7434358054546291	0.6680562850227929	0.03168600968206792	-0.6671382396051728	0.7374027752592737	0.10565848899370262
451														9.637749355252181	0.1344664923234231	0.912987971517588	0.0470260537490375	-0.09968588441925402	0.9939070754936524	0.7431955699175223	0.668314964636672	0.03186617168180467	-0.6674195795178345	0.737168795114278	0.1055143231319899
452														9.671601321124465	0.25454797581677685	0.9647198589153023	0.04686835785935213	-0.09971210732166441	0.993911893824116	0.7427120264479457	0.6688422048609836	0.03207726244997722	-0.6679687139388748	0.7366869081571705	0.10540491709913112
453														9.632373342308645	0.28362224082769305	0.9523497918279565	0.04660552070802605	-0.09986427377452223	0.9939089758438755	0.7425649990686533	0.6689899833260609	0.032397906839303436	-0.6681505426157379	0.7365320964037375	0.10533434088373454
454														9.684648238951448	0.2809247781501474	0.9664526927397256	0.046353924122084264	-0.10007818727706591	0.9938992253492406	0.7421855897566034	0.6693918693951267	0.032788344656911994	-0.6685894585439759	0.7361378142841422	0.10530552836788289
455														9.762687907546015	0.2642299597262229	0.9633804532220852	0.04602870089643647	-0.10038004318360438	0.993883899469271	0.7421095821962692	0.6694536228527272	0.03324477194743736	-0.6686962888384121	0.7360405517224007	0.10530707247815212
456														9.827815388828355	0.19572072874176874	0.9857940839589469	0.045671292899726934	-0.10076286586564326	0.9938616492587936	0.741892612161166	0.669666179506192	0.03380177578563193	-0.6689614974163677	0.7357948442929745	0.1053397459951757
457														9.860504613162824	0.08861534818037366	1.027629721858162	0.04526886163514224	-0.10121502617391054	0.9938341152540862	0.7418547408505889	0.6696771246829007	0.034410640126965375	-0.6690308465562431	0.7357228195136104	0.10540236810992212
458														9.858590753003396	-0.0079005267995915	0.9082879940992361	0.04494022439437888	-0.10165284874479341	0.9938043442114002	0.7414847605755015	0.6700558377109348	0.03500748753893507	-0.6694630132170665	0.7353175318810001	0.10548649791684374
459														9.780219468316549	0.018214639037811814	0.9131180877084577	0.044642012714118315	-0.10205045282503489	0.9937770352443438	0.7411820234258584	0.6703624566931081	0.035544124784989084	-0.6698181087811697	0.7349829125459897	0.10556429043114575
460														9.754886221636399	0.061198431936069456	0.9809515011421305	0.04438000219916188	-0.1023117847126288	0.9937619001117514	0.7406108978383197	0.6709688428136458	0.036004304970858714	-0.6704669368491781	0.7343930219454929	0.10555082145509959
461														9.780653248664091	0.2264657788642927	0.9525029571936953	0.044081622877094565	-0.10254816095043684	0.9937508164576296	0.7403240859045679	0.6712623374989666	0.0364296868637381	-0.6708032933387316	0.7340917850930546	0.10550920673005308
462														9.761505272671664	0.2672025973415258	0.9959573880002242	0.043848382625009744	-0.10277382078952357	0.9937378231211156	0.7398421561686246	0.6717716230446307	0.036830292257097164	-0.6713500601749667	0.7335941849771612	0.1054925043344938
463														9.787245345479871	0.25668033027213905	0.9787654338701174	0.043513454494710946	-0.1030718673385963	0.9937216760447922	0.7397780383343648	0.6718169144884849	0.037289239806280516	-0.6714425018392083	0.7335108885153009	0.10548337856457846
464														9.800822635507371	0.21747692586874937	1.0367265895844022	0.04329294429215151	-0.10341363274225979	0.9936957992955215	0.7394027622560406	0.6722046461848641	0.03774213581156027	-0.6718699845525571	0.7331074506581762	0.1055660440047654
465														9.767686942935772	0.15865083310459466	1.0078606273263038	0.043029287113877254	-0.10370146123599255	0.9936772551427306	0.7392067447720259	0.6723964836692164	0.03816224879141866	-0.6721025732237726	0.7328908347679026	0.10558956093852463
466														9.767685961002107	0.21898073895187517	1.0306124463091348	0.04282965769527397	-0.10409639939671356	0.9936445843732788	0.7386249000229111	0.6730067024264823	0.03866827582369331	-0.6727546933971182	0.7322744827738248	0.10571283928869385
467														9.792709654557605	0.3290845362252081	0.9813030946866435	0.04263075531202505	-0.1044651648210444	0.9936144363083895	0.7378865989823378	0.673786491601083	0.03918074499269758	-0.6735770080278908	0.7315044723546236	0.10580747223792335
468														9.734177861907131	0.364947364553707	1.0422131478723746	0.042559718929741905	-0.10496071796862139	0.9935652560391459	0.737413277810044	0.6742774204707105	0.03964363697760859	-0.6740996425114532	0.7309809901268822	0.1060964845744415
469														9.687944856145519	0.3413816272557862	1.035161779416688	0.04239349563454538	-0.10547217447095336	0.9935181990986641	0.7375421241758631	0.6741099232137931	0.04009272366464994	-0.6739691436512802	0.7310618522649523	0.10636804768772178
470														9.653890109500939	0.3460594269404593	0.9535458281717915	0.042369060646615234	-0.10596523426320803	0.9934667743953326	0.7372812589569657	0.6743716961810747	0.040486548144929135	-0.6742560403072076	0.7307490571443821	0.10669867661710451
471														9.620724279405014	0.3419689209159445	0.9489148791918844	0.04235332356938673	-0.10636045418439322	0.9934252109586894	0.7370546047309053	0.6746003833638959	0.04080235790066017	-0.6745047854741995	0.7304805107263124	0.106965030834521
472														9.634019125802597	0.24549296399630932	0.9884815130284824	0.04239477167448227	-0.10676289141150053	0.9933802737885046	0.7370314062563764	0.6746107752110678	0.04104885090803345	-0.6745275305919073	0.7304122034759399	0.10728757377723372
473														9.653327690151329	0.23475138508772822	0.9977398861079672	0.04239039914032634	-0.10709801042160244	0.9933443865168105	0.7370768461499757	0.6745474864221634	0.04127240520186137	-0.6744781515589139	0.7304215938246047	0.10753380093903124
474														9.725458106887487	0.24252853758778156	1.0697148121829498	0.04235299787715373	-0.10736623233609321	0.9933170267969684	0.7367394133435343	0.6748998478559554	0.0415359144624583	-0.6748490649004726	0.7300566330894883	0.10768496684773361
475														9.776716988106378	0.30348113371941976	1.0311333805171128	0.04232164312303682	-0.1077331159233344	0.993278638780084	0.7367462978475718	0.674875585520532	0.04180713666609126	-0.6748435160326165	0.7300250131343239	0.10793381799495033
476														9.749536501615532	0.3288079172438124	0.9751487281146207	0.042418274405522705	-0.10817769633239116	0.9932261957946316	0.7364394523817833	0.6751929958986524	0.042087424072071056	-0.6751722913242797	0.7296656798189294	0.1083068452236649
477														9.631315041615014	0.3777442238759673	0.969337214474401	0.042449672289547116	-0.1085673600395714	0.9931823365608896	0.7362214177651256	0.6754134203852944	0.0423643197436927	-0.6754080613572941	0.729403756432249	0.10860069408666793
478														9.598163002766	0.42851560637638036	0.9854558418258524	0.04245036498254749	-0.10888194691791442	0.9931478682191355	0.7361320401195586	0.6754965051361865	0.04259214784692961	-0.6755054300464691	0.7292799141510498	0.10882656290434013
