// Start Time: 1748342924.2155054
// Update Rate: 100Hz 
// Filter Profile: 46.1 human
// Option Flags: AHS Disabled ICC Disabled 
// Firmware Version: 4.0.2 
PacketCounter	SampleTimeFine	Year	Month	Day	Second	UTC_Nano	UTC_Year	UTC_Month	UTC_Day	UTC_Hour	UTC_Minute	UTC_Second	UTC_Valid	Acc_X	Acc_Y	Acc_Z	Mat[1][1]	Mat[2][1]	Mat[3][1]	Mat[1][2]	Mat[2][2]	Mat[3][2]	Mat[1][3]	Mat[2][3]	Mat[3][3]
0														9.369378357787744	2.7900037330304377	0.9869447189948777	-0.2625695556295655	0.10961936350116752	0.9586661690088429	0.7275503834376301	-0.6301232720393468	0.2713210305047966	0.6338199018776942	0.7687185812636679	0.08569757758375562
1														9.36474754733166	2.709666960729818	0.9283803467438548	-0.2626798638391965	0.10955652864116033	0.9586431328526379	0.7273395891837025	-0.6303587894374707	0.2713391209999212	0.6340160969088282	0.7685344257813216	0.0858977604450214
2														9.339822780062718	2.6818426888664484	0.8509485536689378	-0.26273637885292944	0.1094712499256636	0.9586373874760796	0.7271062409979633	-0.6306463048661812	0.2712964291332335	0.6342602853159434	0.7683106686740363	0.0860964974467231
3														9.398399194584075	2.5736145044839027	0.8349580349152425	-0.2627063048928784	0.10961375138017049	0.9586293459298518	0.7268625155530444	-0.6309114033236942	0.2713331617035162	0.6345520316360431	0.7680726701715745	0.0860702764145515
4														9.446113430377563	2.548879547885429	0.7483940265993161	-0.2628002430239013	0.10957808707292865	0.9586076752770223	0.7268242924576847	-0.63093557822791	0.271379336021739	0.634556916407004	0.7680579007859053	0.08616600768507238
5														9.452323336930855	2.5754432721257197	0.8135468987207719	-0.2629552078391511	0.10973742253885976	0.9585469507357463	0.7267956492099511	-0.6308719958501339	0.2716037723257081	0.6345255258535745	0.7680873797600096	0.08613439553191465
6														9.388830140207828	2.6041693103079373	0.772356890280197	-0.2630696147787267	0.10968423663866805	0.9585216460848269	0.7269821036775295	-0.6306220287710537	0.2716852549574149	0.6342644548709688	0.7683002180539027	0.08615901708793727
7														9.381119139451938	2.709753025590728	0.8810521931649918	-0.2632388750791621	0.1098532314065388	0.9584558217239842	0.7270228455899823	-0.6304665931241791	0.2719368620555781	0.6341475196177155	0.7684036325421238	0.08609750785456405
8														9.33585406986577	2.740092105316934	0.8556577833042814	-0.2633204455998106	0.10979608884497188	0.9584399625451059	0.727145199795588	-0.6303064633507394	0.2719809196846666	0.6339733443476558	0.7685431550229498	0.08613487983400625
9														9.335685171183105	2.744783945219777	0.9301278809487562	-0.2635584752279576	0.10985879796225351	0.9583673484868959	0.726984145140459	-0.6304019681601559	0.2721900278375354	0.6340591319821131	0.7684558562793904	0.08628217718624687
10														9.388917208853124	2.6783543501788643	0.8784328567703612	-0.2635867758689412	0.10991709264231198	0.9583528809014341	0.7267856771721739	-0.6306161371373752	0.2722239281167625	0.6342748544948016	0.7682717750425283	0.08633590579012751
11														9.38446887201743	2.6025784136085393	0.8923936737986853	-0.263539036175243	0.11010129323817058	0.9583448657133333	0.7264903282899784	-0.630937804687352	0.27226694532650253	0.6346329484930198	0.7679812444608187	0.0862892162640787
12														9.440950623432038	2.5447647008776517	0.799142140926069	-0.2635574375935163	0.11013580671087136	0.9583358394473647	0.7263755787343633	-0.6310605108588532	0.27228872590116937	0.6347566429014024	0.7678754688845769	0.08632073086942954
13														9.45571736625881	2.533994277917241	0.784317476697697	-0.2634586412865213	0.11011188097963998	0.9583657537697109	0.7264336799156277	-0.6310309718874556	0.27220216972502775	0.6347311659401166	0.7679031750070441	0.08626158356071056
14														9.450137299384284	2.5761647158659042	0.7495175797392273	-0.26346362001990115	0.11016694374953706	0.9583580570073463	0.7265526137753168	-0.630869705032866	0.27225854382920756	0.6345929564234581	0.7680277727899112	0.08616913531598164
15														9.433894507324897	2.7098832137773288	0.7904376460420598	-0.26361524634184863	0.11041164070463527	0.9582881985566958	0.726521937651568	-0.6307851159546395	0.2725362574064289	0.6345651077762926	0.7680621114773223	0.08606809458713349
16														9.406956283128295	2.7416258585004374	0.780644739897555	-0.26364350551144655	0.11045034253626945	0.958275964341826	0.7265251745187351	-0.6307604614495805	0.2725846860379979	0.6345496614073304	0.7680767944063491	0.08605094480776782
17														9.34476373160065	2.656856963189762	0.8596269434438041	-0.26359407090432163	0.11073247557545779	0.9582570034375005	0.7262821891542346	-0.6309912113808938	0.27269813508237417	0.6348482869957356	0.7678466057833445	0.08590251734132776
18														9.326401008110805	2.6600198252578338	0.9169961217808021	-0.26357443301867867	0.11082129199144647	0.9582521377488437	0.7261779867811373	-0.6310987048043633	0.2727268895960751	0.634975629275153	0.7677454435134097	0.08586550058679926
19														9.334801110121978	2.6276782484565535	0.9111006671676897	-0.26362817672456496	0.1109567050993786	0.958221683135156	0.7260624773497383	-0.631181302192507	0.2728432567378791	0.6350853985265623	0.7676579794127467	0.08583567569662814
20														9.352755450876103	2.6301109146028487	0.9275132172983807	-0.26363080709878955	0.11109324908859991	0.9582051385561334	0.7259514293778002	-0.6312757188028724	0.2729202979520673	0.635211240244353	0.7675605883947239	0.08577542427977675
21														9.379252742219089	2.59552731339517	0.8644711911745682	-0.2637237164486744	0.1112761213842664	0.9581583513136926	0.7258199325433543	-0.631350502911884	0.2730969937507037	0.6353229311974029	0.7674725840592518	0.08573567409284727
22														9.349041756056636	2.6146214558693046	0.8225506301422736	-0.2637126975625833	0.111399261309578	0.9581470752050262	0.7258200112482526	-0.6313190997193774	0.27316937163800337	0.6353274151300669	0.767480552788926	0.08563104971301366
23														9.389350106615181	2.6949701471251	0.8422587461755959	-0.2637997138421878	0.1114772247763271	0.9581140534054117	0.7258139208272723	-0.6312742473832003	0.27328918186440576	0.6352982475264054	0.7675061256738883	0.08561824421778153
24														9.430786867846553	2.653554157569607	0.8370326237710642	-0.2638668030035303	0.11153842152811999	0.9580884566655165	0.7257626521467911	-0.6312956025029444	0.2733759956713461	0.6353289565426335	0.7674796692964964	0.08562753175812438
25														9.39952951913503	2.613772548384576	0.9136499880851235	-0.263925448356936	0.11170355808910087	0.9580530636764463	0.7256385245478094	-0.6313781775867598	0.27351476844824973	0.6354463702010328	0.767387719459633	0.08558036352385512
26														9.440992140181397	2.5722517183946474	0.9086332305658225	-0.26399028185432	0.11176233242488676	0.9580283462076813	0.7256894084297992	-0.6312775792536209	0.27361195226907653	0.6353613252152541	0.7674619202166557	0.08554640517332562
27														9.390197253317952	2.648882310002403	0.9208617455748522	-0.26413980494875255	0.11163445973104641	0.9580020411471957	0.7259583699426144	-0.6309374499780922	0.2736829905664679	0.6349918177046834	0.7677601719389333	0.08561372455630173
28														9.362982754647277	2.681506889946283	0.9109310347803136	-0.2641916182902357	0.11173375968461724	0.9579761770377836	0.7260407737337562	-0.6307915221626901	0.2738007495310509	0.6348760380588286	0.7678656279027061	0.08552656771032102
29														9.413977317533785	2.674876940517911	0.9278271635653825	-0.264251480000402	0.11192058990541254	0.9579378564775604	0.7259366312163696	-0.6308433531469575	0.27395742597807576	0.6349702062111474	0.767795835717757	0.08545403371781574
30														9.443627505681363	2.6534277592784172	0.8970182753609502	-0.26428293829275973	0.11203832877930803	0.9579154145391363	0.7257938458139566	-0.630971417307906	0.2740408070325283	0.6351203208101063	0.7676734223775058	0.08543825062157795
31														9.418721907485764	2.6269536407802017	0.8176547195713516	-0.2642087161537162	0.11219777352021876	0.9579172270741927	0.7256251884696887	-0.6311552581126665	0.2740640910718911	0.6353438755246905	0.7674989900800123	0.08534318988312684
32														9.41196919832261	2.6065642930735535	0.8275678205802328	-0.264246286377927	0.11234601484714013	0.9578894889722096	0.7254504944505134	-0.631310832887341	0.2741682191294199	0.6355277179140029	0.767349337151638	0.08532007112023343
33														9.387008654485088	2.584599384707308	0.8212566135494174	-0.2644167957064032	0.11207280121144025	0.9578744413423818	0.725635966365739	-0.6311060616881763	0.2741488340608083	0.6352449940493975	0.7675577021495268	0.08555098717209636
34														9.42531434608549	2.5345937292641176	0.8572915255380992	-0.2644231674871259	0.11214415459678179	0.9578643312525263	0.7255772969000505	-0.631154318324568	0.2741930208511271	0.6353093535587937	0.7675075993435008	0.0855225714690857
35														9.37058161976357	2.530184869100019	0.8087874126641736	-0.26454866836496704	0.11205042855653458	0.9578406462071967	0.7257603861296795	-0.6309164671953484	0.27425585380560225	0.6350479225942101	0.7677168181576058	0.08558634895087214
36														9.359438574353955	2.6183602528621295	0.8115510604674494	-0.2645571256799438	0.11214645863932093	0.9578270715878866	0.7258743236535176	-0.6307482721769927	0.27434118066066504	0.6349141623184317	0.7678409919771139	0.08546471509978182
37														9.417796162626953	2.704746988129899	0.920329834585135	-0.2646473078577938	0.11197551933858252	0.9578221575597825	0.7261468636255476	-0.6304362299273167	0.2743371874934418	0.6345648389963019	0.7681221537385093	0.0855325788557279
38														9.389882493881599	2.6692240854052462	0.8816507914235141	-0.2646469125554961	0.11204172716563371	0.9578145243462257	0.7261314162190089	-0.6304361006507097	0.27437836900183243	0.6345826802353032	0.7681126052670084	0.08548594957833083
39														9.413359453396144	2.6256652847259763	0.8602056230722641	-0.26474246936278917	0.11209287249299604	0.9577821322471834	0.7260440125142514	-0.630494095896317	0.2744763868388154	0.6346428261690963	0.7680575388446849	0.08553420494718694
40														9.375897031587089	2.5597021219190346	0.8728575258148223	-0.26478838989545983	0.11212242447986959	0.9577659789872088	0.7260608025634021	-0.630449376619681	0.2745346872452453	0.6346044591377837	0.7680899331774972	0.08552797784251315
41														9.397058968870262	2.5707549690499594	0.848041251492905	-0.2646327372993367	0.11219266910247666	0.957800772263795	0.7261852791529297	-0.6303325676125512	0.2744736682243846	0.6345269534787638	0.7681755393180847	0.08533396804513427
42														9.422217722208273	2.6665212128369657	0.9564441660728105	-0.2646593637981358	0.11224949276290225	0.9577867573361185	0.7263266751386104	-0.6301358222621617	0.27455128206599344	0.634353988035117	0.7683286385892825	0.08524154496184455
43														9.419706680941397	2.7174860741363527	0.8801851139601383	-0.26458963388106016	0.11244251298487895	0.9577833820422716	0.7263091684668911	-0.6301259000904169	0.2746203594713533	0.6344031190367998	0.7683085521513394	0.08505675309752192
44														9.43134353909048	2.6980429689111376	0.9064138814732675	-0.26461874383468886	0.11240076072171257	0.9577802406609421	0.7263804816482465	-0.6300413859014163	0.2746256505352051	0.6343093222488643	0.7683839671938786	0.08507504139043237
45														9.363943711897884	2.6499680496630464	0.8775760277057686	-0.26474729341908787	0.11252246012751072	0.9577304248034102	0.7263376942578823	-0.6300136444828932	0.2748024047666364	0.6343046779958437	0.7683889013593546	0.08506510295270081
46														9.388224665364246	2.6738368288769663	0.8853207922901558	-0.2648173548531997	0.1124852326132505	0.9577154279912679	0.7264545282052197	-0.6298584057977237	0.27484942622476316	0.6341416143249756	0.768521607432018	0.08508203036729312
47														9.37287330149066	2.6858688934115347	0.901996675543289	-0.2651263431232449	0.11251302206116404	0.9576266715420784	0.7264597797077217	-0.629736520246197	0.27511470977615826	0.6340064752422517	0.7686174177930626	0.08522355552322819
48														9.429430149148944	2.63300442815141	0.8821704072681409	-0.2652175788037044	0.11243530503961513	0.9576105356950444	0.7265268081161682	-0.6296457945484399	0.2751453624831729	0.6338914993766944	0.768703112773789	0.08530586984407268
49														9.402350155603264	2.6645516337425175	0.8734082478933629	-0.2650847415087748	0.11238818707273424	0.9576528469261347	0.7266449614074313	-0.6295623107235534	0.2750243570624491	0.6338116280728996	0.7687783765968739	0.08522105254370194
50														9.40298800100333	2.7321672408677196	0.9031579018847847	-0.2651251081990472	0.1122819807284417	0.9576541305743648	0.7267502694337207	-0.6294509915825565	0.2750009001326212	0.6336739878521597	0.7688850408217311	0.085282302502376
51														9.357841959163189	2.761476460702341	0.8786901794102178	-0.2653226404108704	0.1120525013423967	0.9576263015541691	0.7267509704217474	-0.6294472052118312	0.2750077141501007	0.6335905014095875	0.7689216168075438	0.08557233039727508
52														9.371968208464219	2.6825073204878143	0.8367763736312185	-0.26534419167694445	0.11193442587928432	0.9576341390355632	0.7266453535384834	-0.6296017558187537	0.27493300866006454	0.6337026038483995	0.7688122744682331	0.08572453850993239
53														9.34099607013276	2.637251787250806	0.841494101349481	-0.2654063015874024	0.11177072102884944	0.9576360482972578	0.7266103521522311	-0.6296695818614552	0.27487017630807214	0.6337167279020709	0.7687805431975443	0.08590451197685389
54														9.366826827334144	2.538932549016816	0.824711660111264	-0.26548287263785464	0.11172558329055277	0.9576200908368295	0.7265978654744196	-0.6296710222618567	0.27489988288779793	0.6336989712978627	0.7687859245343227	0.08598730146909211
55														9.409152987501423	2.5647478085118127	0.8491552965526187	-0.2657111730030895	0.11164973683970841	0.9575656159266296	0.7267287293456921	-0.6294544340484745	0.2750499398296784	0.633453176237137	0.7689742854740578	0.08611400463771385
56														9.406500898526286	2.6200749736270805	0.8468518289444257	-0.265786472423791	0.1116141214539223	0.9575488702769099	0.7269041994926986	-0.6292253218059476	0.2751104853655726	0.6332202111717506	0.7691669404558876	0.08610680503498319
57														9.374807279893263	2.7606501505091168	0.8307343868178828	-0.2659106004316891	0.11162579388177662	0.9575130467614117	0.7270252846505625	-0.6290315083519875	0.27523371337681657	0.6330290578297546	0.7693237573614156	0.08611137150508441
58														9.37240256408829	2.815092851826325	0.8283446327278904	-0.2659184751546658	0.11151536564098957	0.9575237270153537	0.7270667353041358	-0.6290101177789094	0.2751730985142772	0.6329781410014116	0.7693572609378031	0.08618629854378301
59														9.35665245652639	2.7582198284872006	0.8170028193835248	-0.26572813507257786	0.11154254658193286	0.9575734011201789	0.7268941315775437	-0.6292784650660516	0.2750155175299067	0.6332562512198188	0.7691338464182493	0.08613737043171443
60														9.394548412310561	2.6390691255854666	0.8259806592735748	-0.26570761254685493	0.11147215213097961	0.9575872931142821	0.7267652750797773	-0.6294623070224701	0.2749353359904201	0.6334127402988243	0.7689936042238825	0.08623883747996963
61														9.372323964246872	2.5609208156796606	0.8240032348764186	-0.26571560577389697	0.11154212375635542	0.9575769271845127	0.7265991912940947	-0.6296410138642897	0.2749651048237163	0.6335998990364338	0.7688371402890677	0.08625902650244666
62														9.380827896512955	2.52847249093999	0.8187446974696609	-0.2657677532224523	0.11156539658950088	0.957559744157469	0.7267243498586242	-0.6294642469496986	0.27503905383528576	0.6334344643841618	0.7689784939098601	0.08621400834245962
63														9.372551272779226	2.629881851634556	0.8535955775031014	-0.2658123727048858	0.11137562697789177	0.9575694503440889	0.7271380097230253	-0.6290006786609275	0.27500629276460237	0.6329408324109264	0.7693852194833055	0.08621071109548628
64														9.379345440624375	2.7201111507396756	0.8723725043416154	-0.2658281113905827	0.11143886914690143	0.9575577233972768	0.7273487499470246	-0.6287207591664244	0.2750890818329498	0.6326920349941324	0.7696048242029506	0.08607672983175524
65														9.410018639608795	2.7657516392405643	0.8696403718829934	-0.26586669717922634	0.11150413588219599	0.9575394127722235	0.7274154150550397	-0.6286074169876008	0.2751718176857529	0.6325991726767545	0.7696879516981812	0.08601595049375693
66														9.402771069532035	2.6770164313157876	0.8512954365862941	-0.26590356293181083	0.11146750348908485	0.9575334411319949	0.7274431426228122	-0.628571314897902	0.27518098833053417	0.6325517919279144	0.7697227408316799	0.08605308114966626
67														9.393192099075568	2.6425908428872718	0.8301358124034182	-0.26596540757772114	0.11149322067512746	0.9575132707777496	0.7273819161345477	-0.628616793767244	0.27523894105708235	0.6325961982595616	0.7696818747620848	0.08609216927381924
68														9.351488853931393	2.6804945236891915	0.763561013942431	-0.26595761584597133	0.11146311915185886	0.9575189395737639	0.7273911399545974	-0.6286169483437428	0.27521421069877816	0.6325888681355988	0.7696861083090553	0.08610817955910621
69														9.36922465044641	2.686697667517544	0.8538811699191796	-0.26583847251985804	0.11163517985723537	0.9575319802213144	0.7272017044411733	-0.6288395570135987	0.2752062728078586	0.63285668803147	0.769479303264996	0.08598845422878076
70														9.387242003805374	2.6884528760440953	0.8712256269049976	-0.26582275345701034	0.11164726332420755	0.9575349353087588	0.7270634838502743	-0.6290095985996178	0.27518287614066733	0.6330220803384632	0.7693385558138646	0.08603041521579197
71														9.41632696424153	2.60281348446897	0.885710510941533	-0.2656672499374314	0.11156144415210217	0.9575880933310419	0.7270454546087282	-0.6291104497371863	0.274999907207736	0.6331080628482555	0.7692685397247003	0.0860238022082076
72														9.367245307985094	2.556190141097141	0.8729270451692696	-0.26567918828966225	0.11159698991966954	0.9575806392939525	0.7269481892911847	-0.6292142429168339	0.2750195749339721	0.6332147337167808	0.7691784892672597	0.08604389956598851
73														9.343629964618845	2.596220392606439	0.8220388785244153	-0.2655407348036152	0.11167460978637284	0.9576099935198132	0.7269927329891213	-0.629186141593897	0.2749661168347693	0.6332216707764853	0.7691902110370654	0.08588792059300598
74														9.349972912474374	2.6179200926066404	0.812646871685048	-0.26547055567807865	0.11170228039404129	0.9576262238591544	0.7270421830829814	-0.6291426035007105	0.2749349895489488	0.6331943209520321	0.7692218048229775	0.08580656675905562
75														9.350691693154674	2.685303531760424	0.8410899934873768	-0.26533920217761553	0.11173227221785803	0.9576591288829142	0.7271072416057565	-0.6291007641497642	0.27485866868383824	0.6331746733660593	0.769251667460798	0.08568375059815647
76														9.384647385149671	2.742944829442619	0.8705972979237552	-0.2652574188781066	0.11171094233404655	0.9576842731782558	0.7270683695915153	-0.6291826157783196	0.27477412895301356	0.6332535729624118	0.7691878193037062	0.08567386395598553
77														9.363299321223387	2.7318414268129043	0.8967232885536502	-0.26520361634726236	0.11191422563405301	0.9576754397900493	0.7266938745916964	-0.6295976394863554	0.2748141644532122	0.6337058106939228	0.7688185861787808	0.08564418858754203
78														9.371407816664444	2.6305835499770134	0.86392557277402	-0.2651584213857532	0.11181505431655059	0.9576995380579452	0.726471485301779	-0.6299115191143215	0.27468283370191554	0.633979646843368	0.7685758724519485	0.08579589543261168
79														9.391188829253577	2.509563316564494	0.8569885596914462	-0.26517404725896143	0.11156115223812929	0.9577248216328125	0.7264597820306959	-0.6299930765331524	0.2745266992702292	0.6339865217433376	0.7685459210948907	0.08601312351141605
80														9.405613912497984	2.430370420259395	0.8139805241364396	-0.26510087947005195	0.11155239960094532	0.9577460967539756	0.7264888376883333	-0.629985784032614	0.2744665382720942	0.6339838266221459	0.7685531693123667	0.08596821227324086
81														9.44254132005199	2.501154901122266	0.8752467148560328	-0.26519221748865257	0.11138305084553457	0.9577405200615631	0.7268112919765226	-0.6296114587390187	0.27447177792979727	0.6335759099262458	0.768884404191467	0.08601359980993589
82														9.390416278832914	2.6980182329731983	0.9118592828472759	-0.26509584089551763	0.11133142534361296	0.9577732032537023	0.7270601872184796	-0.6293576248524917	0.2743947233491555	0.6333306240043408	0.7690996643940171	0.08589544183064968
83														9.319241585889326	2.829698185916161	0.9768534114115303	-0.26481822168944313	0.111447998039651	0.9578364438640848	0.727034380320023	-0.629452111263435	0.2742463298910044	0.6334763762713825	0.7690054507992511	0.08566386255078351
84														9.34097652829088	2.838909541380291	0.9527437681190826	-0.26468942667564466	0.11135415930729714	0.9578829566346216	0.7268839298999241	-0.6297062882249909	0.27406156794258424	0.6337028166730534	0.768810927195283	0.08573504747633065
85														9.339877744958978	2.702231659102873	0.8976827490076221	-0.26464389596177273	0.1112070840286542	0.9579126227334201	0.7265512788740225	-0.6301674966876174	0.27388348852200906	0.634103183635517	0.7684542345386008	0.08597233231101886
86														9.40432694374516	2.4792885445524075	0.8156901078547779	-0.264561486958417	0.11111892022146591	0.9579456170300938	0.7262669216236985	-0.6305656652808662	0.27372120912369136	0.6344632205050095	0.7681403044611801	0.08612139390823598
87														9.45803598134828	2.4159927197787407	0.8373882119921385	-0.26455892258849245	0.11117402569495727	0.9579399315664805	0.7260928059839101	-0.6307615503045766	0.273731809908493	0.6346635436018271	0.7679714855827294	0.08615093588944711
88														9.486746973140333	2.51481418358482	0.8323710661879	-0.264513678012422	0.11110860990225363	0.9579600153189745	0.7262311445016105	-0.6306284587693332	0.2736714668102915	0.6345241042704539	0.7680902445649238	0.08611932015508467
89														9.461618153160554	2.680001807694821	0.8797729815928619	-0.26435092446724423	0.11079030841164494	0.958041802999935	0.7266204625468455	-0.6303041144832646	0.27338512518730107	0.6341461126124813	0.7684023886138828	0.08611897021538156
90														9.4569925718205	2.792000201765027	0.9468670678118009	-0.2642467777128068	0.11066239370506475	0.9580853172279932	0.7266924904394705	-0.6302893248517629	0.2732277279428089	0.6341069821467661	0.7684329519205789	0.08613439263933215
91														9.429480889405523	2.758178596525097	0.9826019894714385	-0.2641301442556876	0.11047233580168797	0.9581394104815798	0.7265691196838142	-0.6305332453340746	0.2729929318688811	0.6342969188143338	0.7682601704832805	0.08627704927524887
92														9.406887335574604	2.6107654027671727	0.952366018023206	-0.26402600143178967	0.11027292833422564	0.9581910831585396	0.7264208014083463	-0.6308055367758505	0.27275849034299027	0.6345101180038004	0.7680652680921889	0.08644451458176827
93														9.365989708409868	2.462346160542957	0.9056360765350998	-0.2638168051761606	0.11019801739312851	0.9582573194446614	0.7263325423019423	-0.6310056947326325	0.27253045923012964	0.6346981418752077	0.7679115900789699	0.08642950030254204
94														9.363820476204555	2.516141180778262	0.9036068551347907	-0.2637867859800555	0.1101327535503836	0.9582730864099875	0.7264348036247383	-0.630910842086152	0.27247749525572007	0.6345935767284452	0.7679988840705132	0.08642167807585172
95														9.414842130643502	2.6930737307416712	0.9020296298056848	-0.26392924485103697	0.10993478278436952	0.9582565925922526	0.7267111414828317	-0.6305834935231192	0.27249839364828904	0.6342178415631974	0.7682960374948784	0.08653859377518935
96														9.39538876664341	2.81265724806792	0.9119899059115067	-0.263894121861199	0.10977517029899453	0.9582845633907149	0.7267361487385099	-0.6306106730631047	0.27236877415668664	0.634203802072981	0.7682965514726228	0.08663686531408232
97														9.373367598385158	2.7331244603164486	0.9108179940761097	-0.26381527854186504	0.10958721707086827	0.9583277835180094	0.7264681751734406	-0.6310156750167153	0.2721455646218961	0.634543528268983	0.7679907940449949	0.08685995046100825
98														9.321798385589654	2.4864947459406763	0.8873616126597217	-0.263801059695134	0.10933725508577291	0.9583602483169011	0.7262591997249597	-0.631344351131234	0.2719409588670705	0.634788607111521	0.7677562601144905	0.0871421214822391
99														9.393861182029474	2.420318688248232	0.8538243464819139	-0.26389779791824824	0.10920554619791406	0.9583486322489921	0.7262374526567346	-0.6313748266257786	0.2719282822030926	0.6347732781179088	0.767749944306662	0.0873092687207983
100														9.39452441988935	2.487429037144562	0.8845182652709906	-0.2639812840126766	0.10906019420498636	0.9583421913549405	0.7264773076749629	-0.6310971876479751	0.2719320892725866	0.6344640282351365	0.7679988370972884	0.08736808967155446
101														9.40582869187959	2.652750644114885	0.8924826537163851	-0.2641669614571806	0.10883944914885552	0.9583161225730549	0.72679128659467	-0.6307157350392223	0.271978100780188	0.6340270043180692	0.768343436155283	0.0875106959893917
102														9.385644710973175	2.777264249818852	0.9760618630984208	-0.26421599153282416	0.10870813944666297	0.9583175101376217	0.7268669390019722	-0.6306444436811384	0.2719412411533232	0.6339198394152284	0.768420539855717	0.08760999442768286
103														9.394274195685338	2.7436985830225606	0.9720887792183014	-0.26416481058435815	0.10849346294118678	0.9583559471031419	0.7267788338072665	-0.630829714682612	0.2717469370631518	0.6340421749211013	0.7682987957640466	0.0877922596180093
104														9.404464513470888	2.587503507584674	0.9433541784846019	-0.2641276213364375	0.10830668538066923	0.9583873233453204	0.7264945632840107	-0.6312397260282488	0.2715548891155436	0.6343833613564667	0.7679883268550592	0.08804362923253789
105														9.430383634297588	2.4156233102833475	0.8260239378481545	-0.2642415002514168	0.10796780134217909	0.9583941691278262	0.7263928090508707	-0.6314198432451271	0.27140830590732606	0.6344524540925554	0.7678879706243842	0.08842029216361491
106														9.397129972956517	2.3526604578159946	0.7253984194603069	-0.26424883327941556	0.1078791021874772	0.958402135547334	0.7264703427715301	-0.6313485950530351	0.2713665281459252	0.6343606191937534	0.767959016377685	0.08846216129134127
107														9.410197420072668	2.4674229669861876	0.8091491788661447	-0.26425662264357735	0.1076322145669415	0.9584277457254806	0.7269152718147066	-0.6308768169721681	0.27127224223944724	0.6338474777038732	0.7683812518499408	0.08847387644924837
108														9.434063216706939	2.6800322669643024	0.870326709741274	-0.2642412714232202	0.10756701908064831	0.9584392974428497	0.7272196269020099	-0.6305314144193013	0.2712595614515676	0.6335046682741505	0.7686738396982811	0.08838757513564705
109														9.419798394317679	2.7582000325608207	0.9150714225439864	-0.26394581491361924	0.10755279340460155	0.9585223019943001	0.7272637679357596	-0.630583288939722	0.2710205297719054	0.6335771607606027	0.7686332755877993	0.0882205702866583
110														9.392017979171957	2.7246261388400073	0.9510406975755508	-0.263831516353604	0.10733365920285892	0.9585783309571954	0.7271741923331814	-0.630793045030384	0.2707726506608104	0.6337275636921147	0.7684917826128139	0.0883728186346695
111														9.395959657055572	2.5457674093708005	0.9314957348824647	-0.26381315511407155	0.10702834965686314	0.9586175209949416	0.7270264668064423	-0.6310646261994223	0.27053641921694155	0.633904674025756	0.7683113756345874	0.08867070721939807
112														9.419994513231417	2.4275348791865152	0.8106465563692453	-0.26371729470945304	0.10678257298347882	0.9586713047641282	0.7270505157779517	-0.6311375820857766	0.2703014983050121	0.633916978774147	0.7682856464791907	0.08880557097339137
113														9.385704193892378	2.3721900992657754	0.855560264601572	-0.2636350959973015	0.10652997813257048	0.9587220138901412	0.7273166650013039	-0.6309141841572029	0.27010694371051014	0.6336458040339848	0.7685041678405691	0.08885009308830039
114														9.409912423198469	2.5119238909165604	0.8151086950680199	-0.2635494651555355	0.106420896893405	0.9587576712186637	0.7277108942261146	-0.63049578044353	0.27002208292569974	0.633228658417211	0.7688625778039323	0.08872317967606941
115														9.430599116516461	2.7150307691210753	0.9172909929858587	-0.26334689361242547	0.10618513000793334	0.9588394713349491	0.7281907283385551	-0.6300484499444127	0.26977252247849137	0.6327611530320514	0.7692617687678504	0.08859827495898365
116														9.439046085486186	2.870254506186185	0.9657380219684831	-0.2632632578763764	0.10597020283391206	0.9588862149200267	0.7284031112441671	-0.6298792343957842	0.26959424624201	0.6325514718836195	0.7694299618472884	0.08863503387231492
117														9.381866536747035	2.8543551660507243	0.9596144505784608	-0.26302093223637574	0.10566579969675893	0.9589863022900544	0.7283992202620535	-0.6300522800716879	0.2692001119949605	0.6326567514277706	0.7693301392451171	0.08875005195462399
118														9.394335629486399	2.642076503110617	0.9343537333880436	-0.2628976886364638	0.10534200032189972	0.9590557169830055	0.7282232117630854	-0.6303990975178482	0.2688641510096507	0.6329105459376251	0.7690903983387547	0.08901797584799315
119														9.43847689539707	2.470526316072061	0.8338242048502231	-0.26298182418798355	0.10498133026103262	0.9590721977220411	0.7281589702885302	-0.6305495822049612	0.26868520310857763	0.6329495036218207	0.7690163487714512	0.08937998202683795
120														9.420818349425563	2.466911059669878	0.8192840189881038	-0.2628844294946424	0.10481145795026403	0.9591174771693076	0.728377950524192	-0.6303641767663402	0.26852665759635996	0.6327379693992252	0.7691914995188357	0.08937057204981347
121														9.387564722009461	2.665096643444743	0.872802783394799	-0.26295189175725714	0.10472522607490176	0.9591084034898455	0.7286278659967214	-0.6300614106742242	0.2685592144616715	0.6324221181413118	0.7694512627858681	0.08937012186905352
122														9.422445776839815	2.790153137520042	0.9311722626317922	-0.2629354212589545	0.10464836759420265	0.9591213079726908	0.7288453929896541	-0.6298237972815521	0.26852630689674206	0.6321782639138529	0.769656224257113	0.08933050485221683
123														9.49358782075285	2.7290247228762428	0.969209751673718	-0.2629591429695265	0.10446270568416621	0.9591350438024233	0.7289933904681902	-0.6296874588906509	0.26844429733098935	0.6319977260896008	0.7697929898595981	0.08942945253436341
124														9.412192272251847	2.6870858995077773	0.8829118143353772	-0.2629451966177545	0.10427980504602358	0.9591587698786965	0.7290295438297116	-0.6296993525402464	0.2683181872960485	0.6319618246374485	0.7698080589796124	0.08955336136041392
125														9.358320601208636	2.681085303894996	0.8355864467079338	-0.262854588669427	0.10423095285764877	0.959188914490682	0.7289830516471196	-0.6298005070463035	0.26820706876492273	0.6320531430399499	0.769731920729942	0.08956335513319674
126														9.331050099931645	2.715654889310192	0.9001720301191637	-0.2628191688727314	0.10407638256522722	0.9592154038927778	0.7289826166295792	-0.6298563044594039	0.2680771910936034	0.6320683737737083	0.7697071795981124	0.08966843675552999
127														9.337783151940743	2.736152034492692	0.8924025463902021	-0.26259562582512885	0.10402415300304674	0.9592822905117696	0.7289253525794785	-0.6300166438040227	0.2678560413669952	0.6322273069588115	0.7695830066483493	0.08961377245543711
128														9.358707990628451	2.7499264363788987	0.9423849539369533	-0.26258877629539157	0.10393528061418078	0.9592937985869293	0.7288006548695349	-0.6301955408357766	0.2677745054564382	0.6323738925868349	0.7694485283333476	0.08973417531921524
129														9.35685109253448	2.614782313004337	0.8872204366702725	-0.2625899469857168	0.10372789991491421	0.9593159242508587	0.7287993206984791	-0.6302546390125559	0.267639010894502	0.632374944073113	0.7694281076113567	0.08990170925033991
130														9.360490537307818	2.506456142968222	0.8953963413097974	-0.26269569860068664	0.10375689629356771	0.9592838351646626	0.7287738029748714	-0.6302416905958923	0.26773896902090216	0.6323604304779364	0.769434804194844	0.08994647330163308
131														9.3674842578839	2.596813653100271	0.9153526965319343	-0.2629646782001144	0.10372686273624909	0.9592133839589632	0.7289573572597381	-0.6299352140715135	0.2679604399339101	0.6320369841362201	0.769689784276478	0.09003825111817593
132														9.378187241704167	2.6959863445115237	0.8935234704244887	-0.26305782884867035	0.10380394392788822	0.9591795034853687	0.7290743724193847	-0.629739435578389	0.26810222445681353	0.631863227417693	0.7698395836162407	0.08997709338975607
133														9.39548817644757	2.8163866875894232	0.8628390684787897	-0.2632810636862799	0.10379973742051157	0.9591187079896074	0.729022092123325	-0.6297282594584155	0.268270588092703	0.6318305711979685	0.7698492928819949	0.09012322424736818
134														9.429426831841118	2.6855422306246557	0.8404087754028284	-0.26338424842024155	0.10376797582790037	0.9590938144293731	0.7288036651087075	-0.6299680494600526	0.26830108904663774	0.6320395204480646	0.7696573678280987	0.09029718013151594
135														9.419935236855162	2.5340555092631094	0.8678807973859245	-0.2635002658856217	0.1038203767402267	0.9590562753309756	0.7285719716254815	-0.6301959271687521	0.2683951853921294	0.632258247901888	0.7694637241309263	0.09041617779247468
136														9.372428922499557	2.434228022929132	0.858523611229417	-0.26362443755029186	0.10389522847609528	0.9590140444363637	0.7284806659696867	-0.6302437860762554	0.26853061170121456	0.6323116915213995	0.7694144212400538	0.09046199839258057
137														9.373623202626606	2.49916735524113	0.8146879396165522	-0.26374858666911327	0.10375457688554784	0.958995135965426	0.7287843085154471	-0.6298711707872955	0.268580974517375	0.631909894440423	0.769738459469411	0.09051292350792212
138														9.377356675304544	2.6493603596529893	0.9032359557795606	-0.2638221638487276	0.10402729237733771	0.9589453520940676	0.7288399448016774	-0.6297018582174003	0.2688269045669373	0.6318150051428528	0.76984017315167	0.0903100607803124
139														9.44759222097327	2.708274827879149	0.892010087868762	-0.26384411254124124	0.10415027991540882	0.9589259634981562	0.7288103905983898	-0.6296958852096854	0.26892100458278323	0.6318399313379517	0.7698284298098719	0.09023574581793997
140														9.461412672096591	2.7024446552707517	0.9503992209043561	-0.26387491983620914	0.10421935411981142	0.9589099816501461	0.7285616946754025	-0.6299688869092095	0.2689554955342555	0.632113821817827	0.7695956910957993	0.09030276027696782
141														9.392738509180623	2.5195344696083106	0.8642717059690294	-0.2639111998112358	0.1043355736766094	0.958887358702662	0.7280728379230311	-0.6305186490749339	0.26899103302419675	0.6326616957686771	0.7691295867630459	0.09043703595766883
142														9.380886604298691	2.3541733331606447	0.8592261690359415	-0.26387495159745566	0.10436842912945449	0.9588937589329121	0.7277864969324519	-0.6308697333032214	0.2689427345824976	0.633006180698285	0.7688371808146194	0.09051278691321873
143														9.402560142753698	2.3643946097900157	0.835334809744117	-0.26397407280487484	0.10443292186131486	0.9588594546221648	0.7276511912612871	-0.630982187224033	0.2690450208831331	0.6331203935610009	0.7687361343383595	0.09057219782957338
144														9.406712580261	2.5124339993077065	0.9246447015489899	-0.26393697365009605	0.10454856146394409	0.9588570655922856	0.727671329197341	-0.6309379258334926	0.26909435224304734	0.6331127155606683	0.7687567443871632	0.09045085601942277
145														9.425293644596897	2.5819223477714486	0.9696474318325018	-0.2639284442418299	0.10468510674359893	0.9588445154174728	0.7275942433591194	-0.6309960974910285	0.26916638345410643	0.6332048589127833	0.7686904145214597	0.09036953730139569
146														9.431781314479398	2.603625161130966	0.9606735501067336	-0.26388116527209793	0.1047312233108269	0.9588524920332937	0.7274891589271579	-0.63112680605403	0.26914397322528905	0.6333452883365409	0.7685768182451619	0.09035164745618901
147														9.38829410351284	2.5827264656867968	1.0111389136877993	-0.26395294020081234	0.10473986867996327	0.9588317919574065	0.7272923459164353	-0.6313387076032924	0.2691788993460922	0.6335413869122644	0.7684015852343808	0.09046720333124009
148														9.405595085389145	2.5163101901196674	1.0000727121043111	-0.26386370535955345	0.10472004168283217	0.9588585181682816	0.7271091871538531	-0.6315967135575025	0.26906843252196133	0.6337887463109375	0.768192231341419	0.09051254474547737
149														9.390043811857403	2.387925610060331	0.885896772097579	-0.2638918159890512	0.10438153754327634	0.9588876910640283	0.7272702375364155	-0.631486858593781	0.2688909612037653	0.6335922277362054	0.7683286029059835	0.09073062828401923
150														9.410856366435427	2.4020130529924253	0.9347764141394435	-0.2638237548452672	0.10437811580888401	0.9589067917788114	0.7273330505131961	-0.6314347863078117	0.2688433452246457	0.6335484669782685	0.768371862824633	0.09066984288555041
151														9.383000900091597	2.5548597684026815	0.9500175592453605	-0.2638215251045839	0.10444446384676531	0.9589001808651686	0.7273969963972883	-0.6313393792353452	0.2688943990843472	0.6334759762798386	0.7684412418646532	0.09058832859598775
152														9.381683299069756	2.676612791548792	0.9756647426612894	-0.263789220223677	0.10444820058024007	0.9589086612860132	0.7274215367565903	-0.6313195507239044	0.2688745669200556	0.6334612499249377	0.7684570243476969	0.09055742141988204
153														9.426257462389701	2.6465285790646518	1.0034208387284898	-0.2638406255374577	0.10412257389188134	0.9589299317062395	0.7275147781498053	-0.6312802152808046	0.26871460207562436	0.6333327497371687	0.7685335252291543	0.09080665564376966
154														9.431397182866217	2.532597037040243	0.9384582963222895	-0.2638390657497883	0.10402752775809143	0.9589406763991289	0.7273373310688536	-0.6315226417855302	0.26862531478969426	0.633537176665992	0.7683472043163593	0.09095723941127126
155														9.454493886897087	2.4202793232908184	0.8900458133045483	-0.26369633750777655	0.10385341132778558	0.9589988063290628	0.7273195405099633	-0.6316414299439828	0.2683940945153177	0.6336170196399095	0.7682731109012623	0.09102691628708592
156														9.470568765364437	2.475123478908087	0.9050425185472212	-0.26362328211774594	0.10367127756777517	0.9590385974156272	0.7273980059827143	-0.6316220234094785	0.26822706879897174	0.6335573423280954	0.7683136636501934	0.09109999028857824
157														9.411129508541526	2.514549247325182	0.8950714024430643	-0.26348424350469807	0.10370819231771644	0.9590728148951722	0.7273331662139477	-0.6317374593796652	0.2681310271895448	0.6336896075760998	0.7682137679466037	0.09102245869746123
158														9.381024694955194	2.535617153865326	0.9273335580407503	-0.2634246229228574	0.10349791643401551	0.9591119065738724	0.7274661916393151	-0.6316551393776323	0.2679640366161393	0.6335616844946844	0.7683098113337106	0.09110228179698032
159														9.354693264448017	2.565534133779267	0.9185003271190287	-0.26331088812808934	0.10342062078505776	0.9591514746845937	0.7275362180148908	-0.6316303311921808	0.26783236584596304	0.6335285531606185	0.7683406145157822	0.09107289616413916
160														9.364237982086262	2.5988816027250343	0.9423027112782055	-0.26324439429708746	0.10328139220291671	0.9591847282436199	0.727669142240515	-0.631530479833754	0.26770669112276885	0.633403511438098	0.7684414142051272	0.09109217657028296
161														9.406876087520851	2.622665850352291	0.9672285041095731	-0.26327020844677007	0.10315915752938337	0.9591907972672707	0.7276300835940188	-0.631603235032917	0.26764120561848365	0.6334376518595622	0.7683980359903206	0.09122060892617662
162														9.45533782673853	2.600541063119752	0.9546004996411596	-0.26321513022650667	0.1030115976906299	0.9592217710003603	0.7275561387388159	-0.6317527162870988	0.26748938380305454	0.6335454681420336	0.7682949408951596	0.0913401532273469
163														9.443502363856892	2.5514430480985193	0.9021632275439179	-0.2630354956855017	0.10283454274424708	0.9592900420769856	0.7274457863081142	-0.6319965467560811	0.2672133845280941	0.6337467601432396	0.7681181040093843	0.09143097014128693
164														9.474281280996635	2.526685071587745	0.8733070426688283	-0.26290297750847624	0.10262138576958518	0.9593491937766501	0.727443280144398	-0.6321036445812818	0.26696677074089287	0.6338046217801963	0.768058483248373	0.0915306927771879
165														9.49564826423518	2.467872402132908	0.8211721251693501	-0.2628198734266608	0.10254659959911616	0.9593799607260161	0.7274838944727658	-0.6321032522432437	0.2668570062528835	0.6337924718823436	0.768068794714492	0.09152829710584559
166														9.474863704046951	2.523790804998716	0.8753545534017952	-0.2627455855290989	0.10241472634078508	0.959414394885501	0.7277462425325535	-0.6318469257092874	0.2667486999995898	0.6335220310018586	0.7682972642800854	0.09148305818574176
167														9.45204386795216	2.6346112271735875	0.9261556179058353	-0.26284416491295315	0.10212568067424432	0.9594182040789276	0.7281162574042327	-0.6314450207066749	0.2666906476207977	0.6330558116587082	0.7686660726034222	0.09161227075869771
168														9.411280472784982	2.7438293613430074	0.960752401680114	-0.2627941678404644	0.10197801248545663	0.9594476068647804	0.7282627535482393	-0.6313250205588499	0.26657471787606685	0.6329080400369191	0.7687842372121609	0.09164174524059154
169														9.384192094305527	2.7065176023040234	0.92322341778081	-0.26268319407249374	0.10182222651529937	0.9594945407553603	0.7282394915535626	-0.6314339748652763	0.2663801387634719	0.6329808705590412	0.7687154021959655	0.09171612689714814
170														9.348538225674803	2.5841669490819053	0.9397203192153318	-0.26260558244783594	0.10164395652857261	0.9595346862768698	0.7282331771294294	-0.6315172738363379	0.26619987335514894	0.6330203375841968	0.768670565943264	0.09181946012285302
171														9.345169598983295	2.502747444396289	0.8806239980022278	-0.2626727843099733	0.10146959603725275	0.9595347463551718	0.7282989964956295	-0.6314630680714497	0.26614838974762084	0.6329167244482532	0.7687381314477832	0.09196795731049778
172														9.400968686460255	2.570124332840527	0.8869091192858457	-0.26266991656546734	0.1013519291737705	0.9595479672138572	0.7284847796716813	-0.6312709535880046	0.26609567629481207	0.6327040704138012	0.7689114185709862	0.09198255091571012
173														9.415041038474966	2.6804979015273505	0.8977547590496132	-0.26270887340433013	0.10136167975884253	0.9595362722227305	0.7285659091639822	-0.63115650777996	0.26614503318879684	0.6325944702877888	0.7690040783789587	0.09196175073279506
174														9.446185745463017	2.7251076152316482	0.8967219918891292	-0.26273373625146	0.1012435608797636	0.9595419351001464	0.7286202110538295	-0.6311148666638374	0.2660951204358312	0.6325215979547427	0.7690538124580568	0.09204706222637749
175														9.397020970843608	2.6783293881957113	0.8841188139330185	-0.26266467675430527	0.10103299160295842	0.9595830355906222	0.7286836527220292	-0.6311193771177892	0.265910635519032	0.6324771947202824	0.7690778025884057	0.09215167781734473
176														9.420777435166762	2.6334700913005666	0.8646079253210577	-0.26266179346549196	0.10089606763630066	0.9595982314432551	0.7286716774063395	-0.6311728458245074	0.2658165255201881	0.6324921887259346	0.7690518982678116	0.09226488482273681
177														9.363908213946377	2.6868834041627543	0.886558131613581	-0.26253177983298553	0.10097480005964837	0.9596255281778608	0.7285335962140749	-0.6313626591370862	0.26574422258016084	0.6327051949882437	0.7688857407965509	0.09218922840889304
178														9.399666936333336	2.6896969423241943	0.9211574707775213	-0.26253891650591166	0.10088369481586368	0.9596331577432085	0.7284741167013546	-0.6314577589447765	0.2656813127877491	0.632770715675183	0.7688196009394794	0.0922910753820575
179														9.380868092748026	2.6205685012628583	0.877480169681551	-0.26264071999102845	0.1008887682950742	0.9596047668881695	0.7283299657782759	-0.631597224339109	0.2657450040105171	0.6328943933643358	0.7687043662156714	0.09240283658499493
180														9.40171194016195	2.564008219454512	0.8250163526495224	-0.2626813520209899	0.1009736362411584	0.9595847185552007	0.7282850655012328	-0.6316145821532746	0.26582679131195563	0.6329291987799983	0.7686789605521822	0.09237578111240502
181														9.34983725518146	2.64491709092166	0.9095157752943521	-0.26264003648463286	0.10119949289103447	0.9595722348390184	0.7282072389624701	-0.6316604097639358	0.2659310885539954	0.633035882362135	0.768611598517388	0.09220510976371588
182														9.36726899880133	2.6481583086528815	0.9260196644663292	-0.2627174835728482	0.10136992261519778	0.9595330440449352	0.7282176809837577	-0.6315744110462218	0.2661066936667635	0.6329917321164542	0.7686598090837111	0.0921062699907248
183														9.395242959017587	2.6819357131144184	0.8920471059938054	-0.2628636102849825	0.10131442396449158	0.9594988847751145	0.728362526788062	-0.6313646273621055	0.26620807066431995	0.6327643731744501	0.7688394467069526	0.09216915551578164
184														9.34829924352286	2.650345090575197	0.9095242333282894	-0.2629372812288655	0.10147854484498525	0.9594613546548487	0.7283388132045334	-0.6313230479405455	0.2663715118380192	0.6327610602113445	0.7688519454844376	0.09208760288448814
185														9.349728491347776	2.597663821007339	0.9127973420497194	-0.26309634336058485	0.10156561803272646	0.9594085362054684	0.7283274513877256	-0.6312589905647888	0.26655432914545596	0.6327080192832627	0.7688930433192604	0.09210890440069497
186														9.38889682220508	2.6116054588327775	0.9048527504471869	-0.2632210760286128	0.1017583322941854	0.959353900780648	0.7282658522229899	-0.6312381499646156	0.2667718997855133	0.6327270451152389	0.7688846726512084	0.09204806647498182
187														9.390983084536588	2.626579573941016	0.9367876530476068	-0.2632738742901961	0.10199762993342087	0.9593140000042715	0.728137661929887	-0.6313094897329624	0.2669529423931951	0.6328525992642424	0.7687943884167416	0.0919389794560529
188														9.421630439557187	2.673088682315794	0.9349306149029423	-0.2633424039919977	0.10217869714987804	0.9592759207383811	0.7279546561465294	-0.6314581843480568	0.2671003182597195	0.6330345937263645	0.7686482129482959	0.09190825793739943
189														9.432394334278392	2.6546523876789845	0.9614303897693544	-0.2633063001780518	0.10251502297890125	0.9592499477978517	0.727554014519808	-0.6318628832705053	0.2672348268867572	0.6335100222116908	0.7682707639945172	0.09178826149690306
190														9.448412234037676	2.5231944007524065	0.921409592428286	-0.26341405408041874	0.10270245448023396	0.9592003137805227	0.7272552476859621	-0.6321364239053366	0.2674010962681383	0.6338082050795397	0.7680206686124453	0.091822719181824
191														9.46702567032283	2.4051773433672246	0.9130012918976863	-0.26350624140546325	0.10303401718283495	0.9591394330562855	0.7270095004709536	-0.6323104895290834	0.2676576751308749	0.6340517699410197	0.7678329480653053	0.09171105113344885
192														9.422554754966013	2.504892685861721	0.9146060108018444	-0.2636238146251593	0.10330515545259777	0.9590779578425288	0.7270593438230408	-0.6321346534322418	0.2679374749633017	0.6339457349979492	0.7679412899349893	0.09153677015765765
193														9.429041182438052	2.59687436202936	0.9331690269199843	-0.263613018382874	0.10364042004050705	0.9590447538425396	0.7271000812849697	-0.6319952544282997	0.26815568272087525	0.6339035008062824	0.7680108473934046	0.09124521878763542
194														9.435535985077907	2.6884919579081763	0.9521490123864964	-0.2637126884052721	0.10384218966642217	0.958995525338542	0.7270423879060903	-0.6319749352476869	0.26835992138635667	0.6339282168841149	0.768000313062413	0.09116213563844261
195														9.483357801423612	2.6694234063371547	0.9384390955592065	-0.2638338781986098	0.10392885661125667	0.9589528025289666	0.7268906548890153	-0.6320933794433647	0.2684919654270608	0.6340517806533632	0.7678911071417251	0.09122273303818534
196														9.398909232869192	2.570545323254788	0.9686064055974083	-0.2639394945308189	0.10396555040346095	0.9589197607496269	0.7266775639932832	-0.632305295624539	0.26856978816306293	0.6342520486491185	0.7677116499405687	0.09134090720989296
197														9.411281838451472	2.4298295431031876	0.9704630265171122	-0.26424686654174545	0.10387522285150153	0.9588448944435278	0.7265857173764382	-0.6323375369456161	0.26874232021421274	0.6342292872671805	0.7676973215057499	0.09161895942140863
198														9.37502078262673	2.42793267837839	0.9387255277082079	-0.2643723184890031	0.10394173620022107	0.9588031042359184	0.7265437625343409	-0.6323271009221442	0.26888026807826615	0.6342250691506863	0.7676969147489657	0.09165156161095644
199														9.36632868974116	2.529852120557888	0.9744170257497123	-0.26458476087614347	0.10419703352724785	0.9587167895245374	0.7264220433403084	-0.6323306313863613	0.26920064554123474	0.6342759015297725	0.7676593976593056	0.09161402689515913
200														9.364151113370538	2.653575703274502	1.000518938623033	-0.2647089785110667	0.10430559385694332	0.9586706941310862	0.7264529044659522	-0.632220548359791	0.2693758634782035	0.6341887213508376	0.7677353198347696	0.09158135394060418
201														9.37017500008783	2.6768055839495144	0.9921197784825025	-0.26476481331177293	0.10446790130114686	0.9586376016147689	0.7262478784431514	-0.6324040693544819	0.2694978888984357	0.6344001991557096	0.7675620826106679	0.09156875367487843
202														9.437672163746402	2.536769334616739	0.9705759887575793	-0.2648641944277176	0.10446292424675402	0.9586106905141282	0.7259793754362938	-0.6326964186847306	0.2695351335626681	0.6346659790403811	0.7673217964070442	0.09174069875132573
203														9.400627801180855	2.399336182161311	0.8820833183240154	-0.26488604508077396	0.10457691101313843	0.9585922244648224	0.7256655961491543	-0.6330361272389347	0.26958246266369823	0.6350156105852509	0.7670260303883316	0.0917945696637848
204														9.380527402781189	2.3353557253497885	0.9115209359738093	-0.26501792299015825	0.1045895444051872	0.9585543947502918	0.7256848257338898	-0.6329645315175241	0.26969878668688074	0.6349386066333947	0.7670833911915425	0.09184790016394756
205														9.360458396171113	2.4571004540848875	0.921644585271081	-0.2650792069503145	0.1046503866019915	0.9585308083867968	0.7258534376247179	-0.632722802693632	0.26981223478540656	0.6347202542309268	0.7672744955591637	0.09176081589359703
206														9.384809681936561	2.5494586439207327	0.9582324921073668	-0.26519399030193935	0.10469942763851658	0.9584937023058121	0.726007051528599	-0.6324841637622944	0.26995841109449076	0.6344965789021134	0.7674645349734923	0.09171847643433673
207														9.460261965741568	2.633330164757936	1.0130086355533015	-0.2653155616423729	0.10474202851559866	0.9584554033510532	0.7259317385072499	-0.6325218303246442	0.27007266650033984	0.6345319249480156	0.7674276784330882	0.09178232180854023
208														9.430462222451338	2.5844654586914806	0.9436191598237852	-0.26535185473521705	0.10462889881720416	0.9584577125365941	0.7258648590063939	-0.632622217754367	0.2700172884523785	0.6345932552810571	0.7673603606753779	0.0919210379398836
209														9.434259591834662	2.4077958334046343	0.9233568175667242	-0.26542038542023383	0.1044954330627273	0.9584532974915407	0.7257711170657046	-0.6327498144496354	0.26997029086021973	0.6346718086039225	0.7672733390278756	0.09210493244360346
210														9.402028291625076	2.3457397248943725	0.8220993115234816	-0.2654597549279367	0.104420643863614	0.9584505452284477	0.725861722777551	-0.6326479191951306	0.26996549732230235	0.6345517141415713	0.7673675387147808	0.09214761313682446
211														9.380423217945225	2.4030107828636704	0.8759898221188686	-0.26548216624021675	0.10461222014944571	0.958423446501496	0.7259104045584741	-0.6325274284074245	0.2701168948178606	0.6344866460077427	0.7674407701625544	0.09198565284951238
212														9.407369549777654	2.624701528139929	0.896386021097366	-0.2654871108885273	0.10460821954514687	0.958422513485393	0.726132837920049	-0.6322577328506915	0.2701504413186857	0.6342300021650189	0.7676635198145729	0.0918968155033793
213														9.443363499648415	2.695561287925326	0.9587670994393587	-0.26552841231605584	0.10474406507007267	0.9583962349078342	0.7259641651640558	-0.63240945613306	0.2702486090457157	0.6344057795690164	0.7675200066617711	0.09188224106618681
214														9.425164702074003	2.62579916644314	0.9151670659130036	-0.2654939750712905	0.10459383871723738	0.9584221815584392	0.7258001677660948	-0.6326618983535466	0.27009820221985104	0.6346078046097084	0.7673324255328191	0.09205369658176116
215														9.387440537107766	2.4902192970898236	0.8998568420816382	-0.26531376060359135	0.10440027674509605	0.9584931875866035	0.7256674487081605	-0.632938197149183	0.26980732472438823	0.6348349094999185	0.7671309020011445	0.09216733084526724
216														9.393481693569678	2.3755056483214445	0.8349521211295808	-0.2652632082893258	0.10426086642186111	0.9585223534487948	0.7256263546967696	-0.6330442712699975	0.26966895257280765	0.6349030033773122	0.7670623327639027	0.09226892194703595
217														9.420577144791531	2.4107575965673176	0.8752636491712527	-0.2650981411451634	0.10431982636905013	0.9585616043779921	0.7256767845250895	-0.6330228558188606	0.269583509162301	0.634914309149436	0.7670719899965485	0.09211070621827483
218														9.38332788502512	2.5286621357808254	0.8677602022033188	-0.26500056334760136	0.104267753112821	0.9585942504971838	0.7259251028903401	-0.6327705534242397	0.2695072758068523	0.6346711324923351	0.7672872098373499	0.09199397372062779
219														9.375591367363898	2.695794937655001	0.9309005973686424	-0.26490982973366717	0.1041414842290942	0.9586330546006858	0.7262765818840194	-0.6324117644870233	0.2694024623964595	0.6343067938445444	0.7676000986196991	0.09189657165359028
220														9.3940041227301	2.7642541485872654	0.9762377540140785	-0.26482885609667955	0.1040624297204078	0.958664011893223	0.7263401740811561	-0.6323845499531835	0.2692948801894788	0.6342677892611923	0.7676332403571351	0.091888953658886
221														9.387200856346837	2.6741596226313726	0.9578717925116192	-0.26470017558943054	0.10387723698254764	0.9587196340327012	0.7263596647816266	-0.6324566873548096	0.2690728079879192	0.6342991836832582	0.7675988915162999	0.09195916116244279
222														9.393214122662204	2.559613038810324	0.8925951824373332	-0.26460546898175985	0.10373489272719416	0.9587611891476528	0.726349864638235	-0.6325406356076189	0.2689018751238599	0.6343499191494875	0.7675489667350142	0.09202588624431512
223														9.375585466298295	2.556777650699918	0.8772528797735806	-0.2645031453166346	0.10379354762719906	0.9587830753557174	0.7262563913479961	-0.6326719791363398	0.2688453474432709	0.6344995982219321	0.7674327763958659	0.09196300109032612
224														9.400113801714188	2.579476572669069	0.8852832608429081	-0.2644564719303071	0.10375905632517995	0.9587996832940038	0.7263798149858247	-0.6325481735701517	0.2688032226261867	0.6343777572041227	0.7675394884587843	0.091912974171734
225														9.37659691953195	2.690559643199955	0.935905328405102	-0.26429234429945686	0.1038489537783231	0.9588352056239097	0.7263162715506677	-0.632655496222029	0.26872234142474144	0.6345188968229664	0.7674388691610596	0.09177881931774695
226														9.397018689040463	2.704500379760529	0.9854159021247821	-0.2642507368340675	0.10377667868815027	0.9588544983693352	0.7262639155707595	-0.632753164894061	0.2686338721315289	0.6345961495490513	0.7673681210976948	0.09183623304835925
227														9.425647213918856	2.618178427543857	1.0006577917788655	-0.26424970872728987	0.10361469910716564	0.9588722988836804	0.726242927968819	-0.6328242613187902	0.26852311606564616	0.6346205961145757	0.7673313810963677	0.09197418426885656
228														9.413970944258722	2.5702287481651998	0.9478746881109046	-0.2642615879974958	0.10351090718143624	0.9588802350677164	0.726179774606033	-0.632925654405608	0.2684549328069148	0.6346879139090125	0.76726175982497	0.09209041127129869
229														9.40025198593404	2.5767860276271817	0.8916287470457677	-0.26438850393960944	0.10331189028940047	0.9588667124837564	0.72630847032999	-0.6327827903622969	0.26844356231471855	0.6344877657697474	0.767406407027031	0.09226419425962495
230														9.440074657732827	2.5881547993067864	0.8848303569706145	-0.26435294269742593	0.10320123777570961	0.9588884326180879	0.7263791918314606	-0.6327402589264529	0.2683524443860349	0.6344216195571254	0.7674563630951582	0.09230351771881273
231														9.431491173521707	2.620171181602033	0.8922097777031543	-0.26430699009583125	0.10312703846495469	0.9589090827205313	0.7263717136101235	-0.632785620219691	0.2682657125133113	0.6344493270967948	0.7674289366323305	0.09234109900686394
232														9.422471673688218	2.584791464559992	0.8709989537018841	-0.2642888979119786	0.102982365275536	0.9589296172726796	0.7264447355215784	-0.6327438724374173	0.26816643735912526	0.6343732534348023	0.7674827843900849	0.09241618360106929
233														9.316442445782409	2.591616899934166	0.8775244536265061	-0.26418182986904204	0.10302766538053909	0.9589542538271992	0.726433737514681	-0.6327807280688731	0.26810925978988265	0.634430442024574	0.76744631756942	0.09232639861730263
234														9.336672038673697	2.6060820504256528	0.9269978417919886	-0.2641795801120117	0.10298030598043023	0.9589599605989909	0.7264640472367943	-0.6327580630778025	0.26808062533940163	0.6343966720626599	0.7674713611531083	0.09235026954815684
235														9.376805253677993	2.6853445999607937	0.9487082676032162	-0.2640591390052447	0.10323823457398529	0.9589653998084889	0.7261575415380951	-0.6330972748959884	0.26811017397074344	0.6347976023703602	0.7671568988422899	0.09220789870462309
236														9.441035487000347	2.72012811801041	0.9492527583712358	-0.2639872191599375	0.10321759681501436	0.9589874221427188	0.7259608186990063	-0.6333649899602	0.2680105953252321	0.6350524685678127	0.7669386658660846	0.09226833132488321
237														9.447382804213529	2.673236655659811	0.9131383377001587	-0.26382967698057597	0.10315659000517602	0.9590373399836053	0.725601340329568	-0.633869003489584	0.2677924220866913	0.6355285960963989	0.7665303675351852	0.0923828944670731
238														9.426797097068336	2.472199487327191	0.8854112102767007	-0.2637240809205	0.10307558971122188	0.9590750919236313	0.725282227795865	-0.6343118225836415	0.2676082991502431	0.6359365527991805	0.7661748720339914	0.0925244090907506
239														9.45718872447461	2.3811517387280605	0.8274701139157146	-0.26354730828012407	0.10318005297579769	0.9591124506366359	0.7250470901533296	-0.6346252339844997	0.26750239148521476	0.6362778743273189	0.7659012266983458	0.09244337501129024
240														9.437822989283747	2.5011267254317566	0.836844984419844	-0.26350374916512875	0.10324842680453566	0.959117060915043	0.7251985928556097	-0.6344383843807536	0.26753492733582185	0.6361232389216458	0.7660467993450064	0.09230127906539098
241														9.396731652171443	2.6791295202864682	0.8984734549604448	-0.2634425475391696	0.10342796569492468	0.9591145291665029	0.7253213896751358	-0.6342609585259229	0.2676227160939587	0.6360085737046337	0.7661694932598057	0.09207280690958974
242														9.413045423905894	2.7531659261638914	1.016565386858117	-0.2634516063334018	0.10348380663077428	0.959106017542146	0.725361479774649	-0.6341940321187123	0.2676726606961229	0.6359590983541961	0.7662173525770706	0.09201626937831969
243														9.385951009488434	2.7174751551838634	0.9777481584080082	-0.26341230950938777	0.10355908605972608	0.9591086856521556	0.7252272582776031	-0.6343479102264754	0.26767172551925345	0.63612842968231	0.7660797898951376	0.09199117601238016
244														9.365463125444595	2.5854133699508908	0.9775851389877854	-0.26341550614065967	0.10356161307442202	0.9591075348583618	0.7251250424487818	-0.6344692085289599	0.26766115938306667	0.6362436199588271	0.7659789917002024	0.09203390861866506
245														9.37354205763311	2.485566464606191	0.943605008142503	-0.26345577713241725	0.10379343290961685	0.9590714138062875	0.7248765500103322	-0.6346900226992347	0.26781068375097256	0.636510047635285	0.7657646494654098	0.09197532760716648
246														9.373269898307658	2.4864334802157337	0.9440242418729057	-0.2635001547724808	0.10386839993294028	0.9590511060054352	0.7249652711351472	-0.6345474161042032	0.26790844026163285	0.6363906222461331	0.7658726605714877	0.09190235963417737
247														9.386609389333925	2.5983469198298037	0.9542100064532241	-0.2634810822773954	0.10420347288915188	0.9590199974556175	0.7249232540825219	-0.6345107551000742	0.2681088908498588	0.6364463802806488	0.7658575180150509	0.09164205981691104
248														9.360110548556486	2.6982909852998973	0.972555799847389	-0.26356716694895505	0.1042411156771273	0.9589922514331857	0.7249847974578654	-0.6343971917980826	0.2682111975546244	0.6363406257355257	0.7659464686524089	0.09163304642662945
249														9.423499295361893	2.667303065094245	0.9443662616508965	-0.2636103931642655	0.10430740446164505	0.9589731622888393	0.7248686093049472	-0.6345039295586028	0.26827273923938666	0.6364550729313843	0.7658490247752274	0.09165266712289338
250														9.40075086902272	2.590417247661287	0.941726380618956	-0.2636850280085297	0.10432550650113503	0.9589506737561749	0.7246894094068815	-0.6346893253490062	0.2683183187587602	0.6366282006773226	0.7656929208117992	0.0917544828389863
251														9.426969284509402	2.559504619381711	0.9542731480930501	-0.26374197646649356	0.10419689553451128	0.9589489959380104	0.7245635874068954	-0.6348574517760259	0.26826036555649047	0.6367478132303233	0.7655710436565778	0.09194128268074364
252														9.452856644927346	2.461100168005249	0.9381766588711462	-0.2638190853336344	0.10415937816891724	0.9589318610585371	0.7243862890547772	-0.6350551357358434	0.26827127838249604	0.6369175727228553	0.7654121755727397	0.09208803962422207
253														9.412450882369322	2.382207028280179	0.9188982992966411	-0.26390342245274745	0.10432120425426761	0.9588910626138227	0.7241673505017328	-0.6352445291386093	0.26841392785540635	0.6371315657578327	0.7652329544278698	0.0920971952481
254														9.436197919119813	2.3392522712073633	0.8980043732965977	-0.26397003674313896	0.10443457978303639	0.9588603851694821	0.7243000719554819	-0.6350309302841524	0.2685612096854815	0.6369530794863236	0.7653947583619749	0.09198716434864357
255														9.398836903647066	2.526779114038593	0.9185661176400453	-0.2640180112381333	0.10476611942345931	0.9588110084697661	0.7243691933855516	-0.6348387930153819	0.2688289020115543	0.6368545841994275	0.7655088288868536	0.09171952616783252
256														9.368382843099958	2.685679252386661	1.0056969947772236	-0.2640493647350849	0.10495264849786429	0.9587819744635802	0.7244717787379018	-0.6346525737162707	0.2689921048797786	0.6367248815582272	0.7656376768737265	0.09154437697676643
257														9.42357626767267	2.7548301071828614	1.0109266057611417	-0.2638317661236803	0.10510498871503104	0.9588251876808793	0.7242923594961375	-0.6348988716972084	0.26889403246098725	0.6370191340608053	0.7654125450140112	0.09137975035858154
258														9.40549505132515	2.6854487800007356	0.9664494034832003	-0.26374629768566465	0.10510790544303134	0.958848381481913	0.7239266572563752	-0.6353659735747867	0.26877550955579055	0.6374700662546565	0.7650244491758044	0.09148500856720493
259														9.352339148460121	2.5614550290519147	0.9659364488789695	-0.26371262721628563	0.10481682314247803	0.9588895055390918	0.7236915589934032	-0.6357408714848367	0.26852201355829103	0.6377508743140874	0.7647528868268625	0.0917978452993215
260														9.342830703601287	2.3909936161614076	0.887322498477651	-0.26362424194041334	0.10479965831126664	0.9589156848645166	0.723366515839948	-0.6361648924943841	0.26839357913181106	0.6381560489589653	0.7644025517850206	0.09189992383909856
261														9.362455926272753	2.2701400807867067	0.8792926948152829	-0.26349640628388493	0.10470083253323326	0.9589616152601346	0.72335371828812	-0.6362507119458621	0.2682245883343568	0.6382233481425053	0.7643446651970771	0.09191403957252187
262														9.435290162461303	2.272857098159457	0.8729281599896912	-0.26349256891436595	0.10476863871570047	0.9589552640600956	0.7235772593099556	-0.6359652212313092	0.2682986902571573	0.6379714852063547	0.7645729329016766	0.09176390541888918
263														9.424893182349306	2.4957693513968318	0.9331856060640834	-0.2634964553320886	0.1046640823912155	0.9589656135047959	0.724129034540119	-0.6353313392390756	0.26831181620770606	0.6373435175503237	0.7651140563588461	0.09161725491790679
264														9.44765283203683	2.7089255768200617	0.9947334999286656	-0.26349737149917996	0.1046271926962905	0.9589693872911258	0.7244685392177752	-0.6349335740264825	0.2683369006633658	0.6369571970679717	0.7654492191664	0.09150421837741973
265														9.4748149957813	2.8120021875543486	1.0636337772390523	-0.2634534691521988	0.10429660440434185	0.9590174596436689	0.7246715280517749	-0.6347967944600155	0.26811230142310694	0.6367444118504515	0.7656077638406064	0.09165863802288049
266														9.461518044528734	2.6995637655756712	1.0555187367911911	-0.26334636654351795	0.10406540465631442	0.9590719904063745	0.724437185830982	-0.6351790106449293	0.2678402289078623	0.6370552998081205	0.7653221648363822	0.09188323566646583
267														9.45891483167719	2.549238473237249	0.9690836325830586	-0.26320749083520023	0.10375053862835948	0.9591442240364921	0.7241525581127465	-0.6356551706033295	0.26748004909529	0.6374361845290905	0.7649694960059379	0.0921779845376216
268														9.40589329682362	2.424027913335694	0.9693452362302695	-0.26310634836292535	0.10357074919295389	0.9591914039245444	0.7239227867131173	-0.6360147329911086	0.26724718575836204	0.6377388559031374	0.7646949452754739	0.092362288524583
269														9.401286637451113	2.39698500150075	0.9071140476093655	-0.2629730090009546	0.10342248401071064	0.9592439660159655	0.7239792714404907	-0.6360328251417708	0.2670510435603543	0.6377297319879955	0.7646999641318366	0.09238373122626947
270														9.417020020347135	2.452753668951219	0.9212962938911664	-0.26294386819188437	0.10342069347908811	0.959252147425584	0.7241124639685009	-0.6358833120441285	0.26704597542231695	0.6375905125593984	0.764824537802034	0.09231340460707665
271														9.419517760716925	2.5835369470101117	0.9059692647097958	-0.26273730321915023	0.10356407761093928	0.9592932770147639	0.7241920165753817	-0.6358169442631519	0.2669882703722225	0.6375853139977515	0.7648603109172708	0.0920525510669058
272														9.413532401076662	2.696451390842747	0.9731759819648763	-0.26269829868297395	0.10351007126158107	0.9593097878248162	0.7242603180321832	-0.6357630531229805	0.26693132451562795	0.6375238000208245	0.7649124168368355	0.09204563528945348
273														9.413665363041053	2.695599918183949	0.9742482495043306	-0.26248437914708866	0.10349678951830926	0.9593697750414959	0.7240867848669981	-0.6360462385385411	0.2667274084565497	0.6378089672345014	0.7646787541186013	0.09201154446526105
274														9.382851321239007	2.6490409508958317	0.9779785031911052	-0.2623909748120511	0.10331761989114918	0.9594146370351091	0.7238384207840549	-0.6364247718128864	0.26649849984523666	0.638129232157584	0.7643879769089412	0.09220685344934365
275														9.38054970816115	2.5164844454402147	0.9955650256476374	-0.26224984722629574	0.10310666482262121	0.9594759159556535	0.7236576007641603	-0.6367467693431721	0.2662202632920575	0.6383922732035875	0.7641482627083497	0.09237282129375174
276														9.455681917146428	2.4629280675764122	0.9940936882809438	-0.2621913801390384	0.10304260269608956	0.9594987765549278	0.7234518922726735	-0.6370300914271302	0.2661015260824924	0.6386493871819462	0.7639207319126502	0.09247743295618976
277														9.437990017364735	2.460589266387434	0.9787220124617051	-0.2621307989128847	0.10303732613969174	0.9595158954823398	0.7233499256550514	-0.6371735894516393	0.26603515173778497	0.6387897379546147	0.7638017585259262	0.09249077984630727
278														9.404907786952881	2.469808556961543	0.977982556486315	-0.2620603375947273	0.10305548490932753	0.9595331919688036	0.7233101809074711	-0.6372394282945382	0.2659855131815484	0.6388636487196145	0.7637443800493419	0.09245409827426482
279														9.409641054634157	2.5455454322233977	0.9661216722325663	-0.26186368424300493	0.10305106811440473	0.9595873531029682	0.7233448321779465	-0.6372643745152098	0.26583147055079354	0.6389050513465508	0.7637241611565129	0.09233493937639464
280														9.43850004594108	2.5769802113867644	0.9329358989170371	-0.26177603631757485	0.10300213916811496	0.9596165203541741	0.7233341170975726	-0.6373197503990216	0.2657278509942174	0.63895309831985	0.7636845520750843	0.0923300767320322
281														9.441049698853366	2.588830662583171	0.9657522105138698	-0.26181693690263497	0.102852897697857	0.9596213695964031	0.72331558062912	-0.6373696913564847	0.26565851644413596	0.6389573243731395	0.7636629871712354	0.09247907684781975
282														9.441231660001606	2.5876328059215177	0.9671827535929616	-0.2617452628472522	0.10272753860448725	0.9596543493306782	0.7231732493855493	-0.6375981504569082	0.2654977399283785	0.6391477675390644	0.7634891298153461	0.09259848758827871
283														9.43474094731725	2.564501730177546	0.9783631206585996	-0.26154353837591116	0.10281040258764912	0.9597004734048924	0.7227360005807184	-0.6381637367229585	0.265329452938002	0.6397246681177748	0.7630052858608236	0.09260282258142477
284														9.412515266712202	2.4851505131365887	0.9759361812223969	-0.26145264636556187	0.10267225733235746	0.9597400279673256	0.7224820816475062	-0.6385345778400223	0.2651287132714051	0.6400485570694858	0.7627135769585742	0.09276768896726073
285														9.445480289724081	2.4064798412943413	0.9504628427316527	-0.26126591882433514	0.10252266230863372	0.9598068677468536	0.7223111782693339	-0.6388408768819696	0.26485636819197533	0.6403176410251734	0.7624771719453813	0.09285408366965342
286														9.414556852423992	2.3600526038310887	0.9538276571311368	-0.2611867667668484	0.10237798382273178	0.9598438525584634	0.7222879360524862	-0.6389344596935567	0.2646939622453507	0.6403761475093528	0.7624181953786885	0.09293484307074751
287														9.383975808369566	2.432118154345745	0.9093881848393705	-0.2610984945513771	0.10239955207673124	0.9598655676069899	0.7222775025040946	-0.6389699104657063	0.26463685097864664	0.640423910796163	0.7623855883041938	0.0928731889547047
288														9.444533400142973	2.5246040066778987	0.979727522671486	-0.26095412058236545	0.10235694602753209	0.9599093720508205	0.7223437796015909	-0.6389501255802293	0.26450368823874065	0.640408003558647	0.7624078912373125	0.09279976485477714
289														9.473936568629277	2.6229654050297277	0.97584995791175	-0.2607521737702896	0.10245948737098443	0.9599533099696795	0.7221495178487022	-0.6392192608205288	0.2643838317048595	0.6407092770866951	0.7621684787786305	0.09268674237080904
290														9.467491002815501	2.599836747807642	0.9863280778126962	-0.26060079989110796	0.10232682572534901	0.9600085644581976	0.7219120245899439	-0.6395877153115435	0.2641412182432137	0.6410384168273876	0.761877139150096	0.09280610428146535
291														9.398936734977537	2.536962578461682	0.9241742650675402	-0.2603093278886257	0.10221688854420558	0.9600993498125664	0.7216180504592338	-0.6400623119825628	0.26379466641869476	0.6414876795898624	0.7614932333749769	0.09285263840374242
292														9.432555723781938	2.473714555514046	1.003200098481498	-0.2600820081868441	0.1020822191759107	0.9601752806366236	0.721320406689399	-0.6405264637449475	0.2634819161457417	0.6419144957943678	0.7611209297940197	0.09295542113587946
293														9.448017632546668	2.392668040299453	0.9600652055872905	-0.25967339123174005	0.10187068195418125	0.9603083327996262	0.7212538983931851	-0.6407960701933039	0.26300800458817053	0.6421546106186893	0.760922309163694	0.09292306214364182
294														9.384606474455417	2.4227223200606307	0.9902378201026628	-0.2595175822429404	0.1018106755108164	0.9603568143449649	0.7212154444951975	-0.6409085992577492	0.2628392094400378	0.6422607781332851	0.7608355628843204	0.09289961852519091
295														9.322971309214152	2.4502977870166665	0.9465503757082853	-0.25939477791686627	0.10181681373888712	0.9603893406475942	0.7213044716799462	-0.6408412597361548	0.2627590891944414	0.6422104081404892	0.7608914615500948	0.09278995320716116
296														9.403112878795879	2.490382760571675	1.035823833442703	-0.25929919594231254	0.10191059872172725	0.9604052045110171	0.7214150307769518	-0.6407155807685186	0.2627620557263715	0.6421248168018109	0.7609847399446577	0.09261719720765627
297														9.407933043473754	2.5669239792122585	1.023215256054798	-0.2592317917695542	0.10201600758804846	0.9604122095911427	0.7215183851046816	-0.6405860971856565	0.26279397262566806	0.6420359009369168	0.7610796188890117	0.09245385670634793
298														9.397299166744121	2.6548319758661414	1.0262302452275558	-0.2591963552633787	0.10211907776484291	0.9604108201049374	0.7215354987377982	-0.6405491004059075	0.2628371625748147	0.6420309754827856	0.7610969346447538	0.09234545248674741
299														9.385788810076047	2.607958478562024	0.9712019883181157	-0.25897430295178114	0.10206012463467201	0.960476986382388	0.7215419964808316	-0.6406295250952703	0.2626232261066481	0.6421132748394899	0.7610371492481582	0.09226591862189437
300														9.436234262345465	2.5321291089838236	0.9603871267167797	-0.2588859987627038	0.10210123363293266	0.960496422552042	0.7214113211174793	-0.6408017324582982	0.2625620792155201	0.6422956837844784	0.7608866392368032	0.09223761067347902
301														9.396429977192922	2.5198454102826595	0.9686584069086375	-0.2589146451010211	0.1020808679241772	0.960490865628643	0.7213001264322838	-0.6409297290310036	0.2625551562110645	0.6424090084681133	0.7607815579048246	0.0923151503867296
302														9.409864413823763	2.5629499174724217	0.9514441513962368	-0.2588753243746894	0.1021105710401044	0.9604983069801651	0.7211356383306513	-0.6411290797216133	0.2625202740070979	0.64260949071683	0.7606095808081709	0.09233692665166565
303														9.407405350501364	2.550260603341433	0.9203938149882696	-0.258867648236757	0.10215925895823258	0.9604951985853314	0.7209465987749593	-0.6413419424502742	0.26251955083179396	0.6428246591499025	0.7604235652997702	0.092371310078388
304														9.442276522885383	2.486153614114876	0.9255281996453828	-0.25887287823206523	0.10217807840781623	0.9604917871636031	0.720826990089799	-0.6414765727997405	0.2625190600836057	0.6429566729367749	0.7603074686217314	0.09240817000724405
305														9.395503011197421	2.4530076869430353	0.9430470447975184	-0.2589695297211049	0.1022472837152471	0.9604583674729913	0.7207620995346364	-0.6415031401632116	0.2626322848302576	0.6429904964697787	0.7602757487475138	0.0924337996403638
306														9.33139385407305	2.486086663859462	0.9723326473560766	-0.25897102292654944	0.10241441260599016	0.9604401581436226	0.7207994431612589	-0.6414127876573117	0.26275044922529756	0.6429480321322991	0.7603294837899203	0.09228707415969856
307														9.300852230748493	2.6279938619395438	0.9556876372206184	-0.2589413143217414	0.10265990599100383	0.9604219590571881	0.7208294741604463	-0.6413197072933845	0.2628952304982004	0.6429263293091234	0.7603748922334599	0.0920638818541274
308														9.338386028706044	2.696068668101974	0.9444574612475989	-0.25894092638186783	0.10287171573849924	0.9603993995966038	0.7207768006083004	-0.6413241307128168	0.2630288255501888	0.6429855366564337	0.7603425343004736	0.09191751837474088
309														9.407130580278405	2.7573665712753157	1.0085968829633551	-0.2589543965789279	0.1031149710794032	0.960369680504199	0.7203762514836325	-0.6417265103319074	0.2631447172861785	0.6434288436111906	0.7599699919579235	0.09189632491367655
310														9.3619790792836	2.6531441347360984	0.9240472438273818	-0.2589149720222841	0.10316791688118082	0.9603746238781501	0.719944399310877	-0.6422344809933153	0.2630873112184393	0.6439278679818112	0.7595335755249042	0.09200895873095416
311														9.40318567016029	2.5432820199472475	0.8917132416217027	-0.2589815178601944	0.10313618553091702	0.9603600890504365	0.7195342108021752	-0.6427052273321642	0.2630598985881398	0.6443594438604288	0.7591395905853175	0.09223876145003002
312														9.410802740855205	2.3766088706798456	0.8276938115585649	-0.25893921786243923	0.10332175036149227	0.9603515488377296	0.7191961883287477	-0.643066064222915	0.26310241302247805	0.644753692619274	0.758808706425465	0.0922064146723191
313														9.404229540252025	2.423177913585384	0.8658750939093106	-0.25898872679152557	0.10350669837043902	0.9603182820228695	0.7191307861939096	-0.6430763790333727	0.26325592695598643	0.6448067553484795	0.7587747584901445	0.09211467926008804
314														9.419988103145615	2.548187922028015	0.9084251462936971	-0.2590070511689454	0.1038263362681367	0.9602788341632361	0.7190447637519863	-0.6430840208798192	0.2634721423792189	0.6448953210914298	0.7587246101097426	0.0919075124687938
315														9.397409757802993	2.5400116808041595	0.9312998523116421	-0.2589211600419371	0.10434660915023197	0.9602456029794597	0.7188057405252851	-0.643250040637749	0.2637189652024111	0.645196202926237	0.7585124721310671	0.09154610505741423
316														9.412225003546116	2.531564481629322	0.914294644732456	-0.2589476073162559	0.10474281101264604	0.9601953344014729	0.7186578623209816	-0.6433064470363704	0.263984264920619	0.6453503030056036	0.7584100202018771	0.0913084205753511
317														9.360368040434434	2.4756735035472826	0.8649737163007953	-0.2589980987581673	0.10507557042991139	0.9601453584423993	0.718640038293952	-0.6432195396550557	0.2642444307205082	0.6453498897501431	0.758437702322852	0.09108112589725265
318														9.361787154611191	2.424308195014087	0.8652112798256405	-0.2590048512319335	0.10553693668689168	0.9600929340605895	0.718615833870865	-0.6431187479052113	0.26455539949680673	0.6453741320725566	0.7584591162927509	0.09073036186422923
319														9.365436332414323	2.4368706828223843	0.8213499643818066	-0.2589360496445918	0.10594326531473797	0.9600667407680075	0.7187447820469554	-0.6428774552232428	0.2647914572752718	0.6452581347605997	0.7586070142703258	0.0903179795230904
320														9.34306987804893	2.4969288473648468	0.8720007651630751	-0.2589392899440568	0.10647098288853929	0.9600074863906096	0.7188074193066601	-0.6426571017292623	0.26515607393881147	0.6451870566533147	0.7587198293175772	0.08987704115812611
321														9.333647519611379	2.5336145867596396	0.8746018969282485	-0.25889409144229436	0.10712636512421908	0.9599467648320614	0.7187802049773735	-0.6425226360836658	0.2655554161616397	0.6452355123123288	0.7587414605881039	0.08934500341752138
322														9.346496499468053	2.530010161800295	0.9281422663263756	-0.25884619222657745	0.10779593174836372	0.9598847253021078	0.7186918755901011	-0.6424567128602676	0.2659536802933202	0.6453531101114983	0.7587024510302316	0.08882541342506989
323														9.430160061151893	2.5834319242240364	0.9727091203928052	-0.2588018312479623	0.10830527608307772	0.9598393507849478	0.7186723145053978	-0.6423529602586234	0.26625697889527355	0.6453926839577252	0.7587177615026235	0.08840611898670975
324														9.459962256305905	2.498102053303469	0.9087038718092303	-0.258737902811054	0.1089717769802564	0.9597811466530812	0.7183413985824291	-0.6425776286397193	0.2666076260244543	0.6457865999938199	0.7584320292508226	0.08798024934553134
325														9.445952958982717	2.391118727692259	0.8937956372361773	-0.25863829283921946	0.10956451898990788	0.959740511625786	0.7180551062311444	-0.6427814667004143	0.2668873366831878	0.6461447963828195	0.7581738601699319	0.08757453889362216
326														9.500317939624201	2.3285914175786373	0.8373421770531221	-0.2585449657198609	0.11016939233736289	0.9596964132958571	0.7179648666793474	-0.6427494939398117	0.26720692029628124	0.6462824080191439	0.7581133114727194	0.08708189279548711
327														9.488652482655711	2.352071212025113	0.8073559732023515	-0.2584359124233741	0.11072999807436229	0.9596612666437827	0.718057343235087	-0.6425204653531464	0.2675090716752323	0.6462232826168262	0.7582257705517715	0.08653987448052841
328														9.45550140423529	2.49886618414679	0.8605830158171449	-0.2583422520901357	0.11127088317007128	0.9596239218274775	0.7182388696501131	-0.6421872163581628	0.2678217789312169	0.6460589809829472	0.758428882430453	0.0859850183844213
329														9.455523317188844	2.635926362780308	0.9151496853997119	-0.25827365449751005	0.11168538681108414	0.9595942339162734	0.7183977157360946	-0.6419074508635685	0.26806630998877334	0.6459097780786899	0.7586047712074412	0.08555325641752964
330														9.48459827703755	2.686442506191121	0.9832878172388225	-0.25811806380572894	0.11209216191602628	0.9595886683231374	0.7183269995849655	-0.6419278813663034	0.2682068544833063	0.6460506069995151	0.7585274829309481	0.08517435549505264
331														9.477707848436458	2.599119305166408	0.9604620714231917	-0.2581682971954874	0.11240610097922038	0.9595384300724134	0.7181043242921132	-0.6420849753589009	0.26842701773727407	0.646278043690291	0.7583480420499606	0.08504667755321993
332														9.415789008757374	2.5103624291718725	0.9615643735951164	-0.25803976565467224	0.11274814067182654	0.9595328739110127	0.717891235540836	-0.642281405481287	0.2685270379433592	0.6465660471092907	0.758130894336874	0.08479324134291533
333														9.402413701379478	2.401254808798857	0.9479436429012307	-0.25798009179038195	0.11315288472882035	0.9595012750993991	0.7177362727135089	-0.6423693346758149	0.2687308703879602	0.6467618689062814	0.7579960834632969	0.08450457019094848
334														9.417734311185725	2.459139969955499	0.9592677799147706	-0.25789599679674824	0.11351137949792922	0.9594815378946534	0.7178598850306496	-0.6421516153576996	0.2689209704676824	0.6466582097986499	0.7581269482203984	0.08412306510126205
335														9.359277517633235	2.5656066637393486	0.9012870599900352	-0.25799155640786087	0.11366459859020095	0.9594377081653497	0.7182210858863738	-0.6416535011357655	0.2691454184421739	0.6462188705155926	0.7585256380027924	0.08390487400627633
336														9.394664508837986	2.5708962994904883	0.9315322823559233	-0.2579599424038773	0.11395719883711047	0.959411499278692	0.7184520111305399	-0.6413106523480245	0.2693461618204976	0.6459747485912053	0.7587716415484638	0.08355968025536459
337														9.46477876367325	2.6304799177203666	0.9198027619811883	-0.2579478999858327	0.11418971816810058	0.9593870903642536	0.7186732281748842	-0.6409893925865933	0.2695206665474117	0.6457334372615295	0.7590081072400743	0.08327677435065706
338														9.464369328924935	2.6325025213153874	0.9182276261248924	-0.2579671409004551	0.11434920253595232	0.9593629209506886	0.7188640061869227	-0.6407139052363329	0.2696668912671636	0.6455133575880003	0.7592166696775038	0.08308160842970741
339														9.506224768089403	2.658887605758123	0.9415017799325696	-0.2579907957436527	0.11457464930634753	0.9593296612989121	0.7188094438747903	-0.640706861393674	0.26982902208525095	0.6455646619107743	0.7591886244533671	0.08293913305932732
340														9.466300935647249	2.647659185264557	0.948994734522799	-0.2579539101658008	0.11471251963985551	0.9593231041041651	0.7187870347661676	-0.6407066321164954	0.26988925546230824	0.6456043516599274	0.7591679981399471	0.08281890918112372
341														9.455731570391427	2.617399626188704	0.9988206791692879	-0.2579208641709981	0.11475998251058006	0.959326312700458	0.7188021106250672	-0.6406864836910497	0.2698969347298097	0.6456007695056089	0.7591778289898683	0.08275669389237289
342														9.454713696526865	2.6686561482869644	0.9230615494659689	-0.25787067409892495	0.11483506917553005	0.9593308200653288	0.7187042840021614	-0.6407969779651828	0.26989513739159643	0.6457297171392267	0.7590732111714517	0.08271029249829764
343														9.450513454099427	2.5927470780873056	0.9350218273704805	-0.25792689688340104	0.11484751351606626	0.9593142157308394	0.7186110539575237	-0.640884465340861	0.26993565013687015	0.645811016470109	0.7589974642407804	0.08277064867396461
344														9.418335588184654	2.4650441668235303	0.8023466878360981	-0.2579207607097689	0.11492606605550448	0.9593064580914172	0.7184816268918672	-0.641016470686488	0.26996673151974626	0.6459574544919426	0.7588740894572992	0.08275918883510913
345														9.451321913941714	2.456354409324491	0.8036334133251434	-0.2578982571368805	0.11503135683178317	0.9592998884140447	0.718507303486529	-0.6409641117128906	0.2700227070685392	0.6459378792130683	0.758902361599662	0.08265265728444204
346														9.420438808831529	2.5468169192694834	0.8635089253820513	-0.2579415376659322	0.11519237446196184	0.95926892997342	0.7186427725084982	-0.640745255696564	0.2701815738048102	0.6457698728400342	0.759062734013573	0.08249264915134114
347														9.448297707526253	2.5810654116225975	0.829154593947238	-0.25800569516279526	0.11531110559667668	0.95923741075379	0.718825231663432	-0.6404760141207453	0.2703345365653759	0.6455411277274101	0.7592719040383855	0.08235792706442152
348														9.406941108538968	2.6408603749618687	0.9388586451449453	-0.25801144754546307	0.11542346695664535	0.959222349724611	0.7190033434016578	-0.6402328844864569	0.27043676857888577	0.6453404412499913	0.7594598586481449	0.0821975546437192
349														9.452828116934512	2.67591034566225	0.9213706103435337	-0.25809127762777007	0.1153914806875948	0.9592047219427086	0.7191335788433475	-0.6400621056523255	0.2704947258041634	0.6451633810070311	0.7596086539084681	0.08221255813402639
350														9.428334549393579	2.653100862826624	0.9141686294242197	-0.25807886766162236	0.11543911842973559	0.9592023290227463	0.7190363185059008	-0.6401672874726627	0.2705043746769622	0.6452767396520473	0.7595127740769467	0.08220872993767331
351														9.424157042585687	2.577111831144897	0.9267708605675078	-0.2580779824620243	0.115520647414949	0.9591927517392751	0.7187993049205306	-0.640423462149079	0.2705279068317168	0.6455411018781794	0.7592843796298057	0.08224303396694388
352														9.408407653906494	2.454461198515232	0.884645815627919	-0.2581447942176561	0.11558466433912884	0.9591670608334787	0.7186061480515501	-0.6406103759401895	0.270598503728831	0.6457294086541491	0.7591169419841579	0.08231038325620282
353														9.407990085273212	2.388394954272616	0.8562167878320837	-0.25818211824666343	0.11556858802134051	0.9591589520410158	0.7187024474644472	-0.6404893023655291	0.27062935089145673	0.6456073000100597	0.7592215454121882	0.08230345773811226
354														9.402564597802874	2.364811882813514	0.7923245431193225	-0.2582912470976839	0.11570459018758517	0.959113173448393	0.7188435293812322	-0.6402487255161372	0.27082383525401954	0.6454065477971677	0.7594037248292147	0.08219714579021298
355														9.375369078290223	2.4651118067587054	0.8109187502772434	-0.2582217757843294	0.11579947254260714	0.9591204286582798	0.719205893155273	-0.6398184371996039	0.2708786641103057	0.6450305401773738	0.7597518342052961	0.08193138995632082
356														9.392819281774463	2.6029317998640615	0.8853024720956112	-0.25829083825526783	0.11593759570314044	0.9590851457383579	0.7194133444366876	-0.63951199035582	0.2710513863413331	0.6447714965162558	0.759988742083535	0.08177303459255464
357														9.443545408523486	2.6635870232304972	0.9322019358471859	-0.2584472926602258	0.11601261767167653	0.9590339250816758	0.7193169810189262	-0.6395522259359581	0.2712121514943229	0.6448163131733081	0.7599434339747446	0.08184069540427619
358														9.399722439959856	2.5753197156586256	0.953139821687789	-0.2584701053584655	0.11598630160981405	0.9590309601232181	0.7191104464021095	-0.6397954030976727	0.2711862976819545	0.6450374954305702	0.7597427327812778	0.08196102411935424
359														9.381678673206794	2.4394958856219193	0.8797455386450522	-0.2585881277252743	0.11604127127785835	0.9589924940059515	0.7187390870439107	-0.640177739377617	0.2712684772704879	0.6454039858529095	0.7594121972720624	0.08213896565939388
360														9.421145035516275	2.317922169074444	0.8144311374845141	-0.2585916625239191	0.11609017395775312	0.9589856221985678	0.7186047572322463	-0.640320756739676	0.2712868064825732	0.6455521318656612	0.7592841365383497	0.08215865775992642
361														9.429839377952487	2.285978087217701	0.808468387135694	-0.2586302002113159	0.11609472611322302	0.9589746785537931	0.71877577651178	-0.6401054361946098	0.2713418759683004	0.6453462656888493	0.7594649729400327	0.08210452020840925
362														9.43105402020402	2.350823241410596	0.7641686335671096	-0.2586271371591537	0.11623162758671068	0.958958921264829	0.7189839848413914	-0.6398226064923611	0.2714572927053444	0.6451155194741901	0.7596823289835464	0.08190681023993324
363														9.406455297608339	2.463052231703012	0.8143955802548467	-0.258650461897264	0.11643989076957295	0.9589273645057286	0.7190717643047266	-0.6396524696699866	0.27162569065678466	0.6450083226905063	0.7597937021867565	0.08171776904274114
364														9.454740036103807	2.578075208146102	0.8579723048568791	-0.25862420532815433	0.1165489055571915	0.9589212027230402	0.7191837453340757	-0.6394984191859973	0.27169194376326744	0.644893991959634	0.7599066551044489	0.08156969205738096
365														9.471016530720114	2.5165810604208434	0.9183065450989191	-0.2587335038150882	0.11634639982592693	0.9589163098264168	0.7193367788228395	-0.6393389180371604	0.27166219191461605	0.6446794340106936	0.7600718802393744	0.08172615391068555
366														9.44923467927045	2.3714929249864354	0.885009931654137	-0.2587126268589849	0.11632724061314714	0.9589242669757895	0.719250097906409	-0.6394534985049696	0.271622016617535	0.6447845170018781	0.7599784183390252	0.08176631515220012
367														9.444318465700047	2.2788936389046364	0.7923716300199332	-0.25875689639925503	0.11625598075360077	0.9589209641596349	0.7193057438385354	-0.6393933078038234	0.27161635594451344	0.6447046730455089	0.7600399626826893	0.08182383319412356
368														9.416023378683242	2.3136597138396073	0.8551243871088348	-0.2586972574959804	0.11632170362743055	0.9589290850888145	0.7194954432777922	-0.6391709172553811	0.27163734212624036	0.6445169013040323	0.7602169425895	0.0816588276509112
369														9.395563224146404	2.4343350154217775	0.863951433830908	-0.25878418283446747	0.11634835935316495	0.9589023964880495	0.7197955272111294	-0.6387801688212256	0.2717614669661239	0.6441468355286316	0.7605412251788553	0.08155917533850277
370														9.429607317438263	2.5093870330028736	0.9978598126801375	-0.25869964037549453	0.11651872580683292	0.9589045221532445	0.7199833281910093	-0.6385383877494113	0.27183218076118293	0.6439708869169379	0.7607181566827066	0.08129811127374142
371														9.435952909815633	2.531933190577857	0.9874902508460436	-0.2587320790555733	0.11654527386284802	0.9588925437231303	0.7201027820028119	-0.6383788566605817	0.2718904535296161	0.6438242730896314	0.7608479706938591	0.0812445128709956
372														9.428455414217632	2.5612175554936556	0.9206615845269552	-0.2586740680050996	0.1165531781866267	0.9589072338846389	0.7200157412148277	-0.6384988942450948	0.2718390966190364	0.6439449191852944	0.7607460277269859	0.08124298340814856
373														9.418188476644227	2.4625798273136614	0.9427347385141177	-0.2586274420850522	0.11642572505831195	0.9589352933046056	0.7198611410683297	-0.6387332164938728	0.27169802304616514	0.6441364636320055	0.7605688191689417	0.08138358266638401
374														9.41844139473457	2.394024734627801	0.9150126917388205	-0.2584966793216037	0.11633987718799793	0.9589809694439124	0.7196160647168963	-0.6390904893519844	0.27150702720410286	0.6444627112417538	0.760281776314363	0.08148272469183254
375														9.44300670751992	2.3486250995849405	0.8948865360003492	-0.25847916875685534	0.11610531548731884	0.9590141161809642	0.7194876881042538	-0.6393141346664866	0.27132066615360895	0.6446130513611725	0.760129589564327	0.08171304108651561
376														9.536377663738303	2.2974344329550185	0.9090582705080494	-0.25840905050469176	0.11602501722897596	0.9590427300148208	0.7193133291753194	-0.6395657680747652	0.27118990168819873	0.6448357132541458	0.7599301439500556	0.08181124145290541
377														9.577139479839083	2.257545803079461	0.9787452033146304	-0.25837096312431684	0.11582042237351708	0.9590777211339199	0.7192821062602921	-0.6396730824783349	0.2710195549520791	0.6448858015400638	0.7598710267630193	0.08196539305184791
378														9.556874308281312	2.2424196648115045	0.9318693821704923	-0.25839704567207966	0.11569415775653075	0.9590859339229969	0.7193855572710735	-0.6395781575398646	0.2709690026325857	0.6447599450785753	0.7599701587950136	0.0820364002340036
379														9.499382625080298	2.295025735328825	0.9535575121601082	-0.2584504039795674	0.11541712965583667	0.9591049342302467	0.7197507695866769	-0.6392079210046584	0.27087278084792554	0.6443308299019879	0.7603236941638146	0.08213197751731971
380														9.475229261251071	2.4049778898272556	1.005255004893694	-0.2583699181184088	0.11526230809886212	0.9591452370434885	0.719995461090071	-0.6389896243546218	0.27073750382397227	0.6440896842996189	0.760530643892054	0.08210735825707038
381														9.481939945424145	2.4923245253227475	1.0266402508898547	-0.258298939961241	0.11497336736761715	0.959199031698349	0.7201204333131299	-0.6389472100515032	0.27050512803329707	0.6439784306479601	0.76061001016523	0.08224471591925753
382														9.52445734635357	2.5148221742780272	1.0530752953357425	-0.2581768173468574	0.11465021087320981	0.9592705875462753	0.720037436843335	-0.6391769376024694	0.270183145257452	0.6441201910581036	0.7604657596393526	0.08246822350102256
383														9.46496621160247	2.418022976319138	0.9862707275810975	-0.25820078880708897	0.1143160446162102	0.9593040157336474	0.7197536855575928	-0.6395979072614443	0.2699428627562567	0.6444276412334122	0.7601620609910008	0.0828652897433847
384														9.43221638978597	2.3570271447625823	0.9592979500453142	-0.25809187283494794	0.11389782898670997	0.9593830672513783	0.7197183012458811	-0.6397933607484199	0.26957377912917413	0.6445107850364427	0.7600603529288683	0.08315111470901643
385														9.460960795949466	2.319410414649695	0.8996615329212552	-0.25819381140874087	0.11340366929527251	0.9594141772668339	0.7198788943701213	-0.6397089440216404	0.269345214138231	0.6442905658091536	0.7602052845969213	0.08353198237941245
386														9.447560504048695	2.3918853980834367	0.8738639313095224	-0.25816632978219567	0.11307077349207745	0.9594608623329527	0.7201735320071962	-0.6394636758345983	0.26913990986916636	0.6439722276333583	0.7604611807778267	0.08365741190667492
387														9.408163933571853	2.5123627996765143	0.9421376801220505	-0.25832123166058524	0.11269346418486076	0.9594635607480742	0.7206063841210786	-0.6390066432831785	0.26906681141290745	0.6434256603814481	0.7609012373297733	0.08386135339187611
388														9.390477014958275	2.6443518302777713	0.9857065262949951	-0.2584241977897639	0.1124133139118979	0.9594686971715453	0.7210198112396249	-0.6385617977007709	0.2690153570284338	0.642920963880237	0.7613160167581562	0.0839675939324338
389														9.372551955038723	2.709775776931848	1.0002864929961075	-0.2586520673759899	0.11206708924358111	0.9594477971993045	0.7213590641188651	-0.6381811981510536	0.2690090313354574	0.6424486039020412	0.7616861071563255	0.08422627564698126
390														9.36994789752185	2.7642371687138683	0.9999044211733118	-0.25880162907418147	0.11180969154826143	0.9594374964865781	0.7215602036616142	-0.6379650728708913	0.26898222671516436	0.6421624321621123	0.76190495383133	0.0844289763465097
391														9.357853590092624	2.8350071188499397	0.9012043538855136	-0.25908059568813263	0.11149183329419415	0.9593991953543539	0.7215996791632744	-0.6379145309942353	0.2689961973297465	0.6420055669301796	0.7619938465992386	0.08481880555368643
392														9.403725821185645	2.801874478476588	0.858676661020771	-0.2592742236331531	0.11131172541030382	0.9593678005570162	0.7214485133546136	-0.6380799946256034	0.26900922481767764	0.6420972819891418	0.7618816313869046	0.08513201640619916
393														9.400865849537068	2.722520090271255	0.801489687026526	-0.2596080856453522	0.11115093841512902	0.9592961538320646	0.7210476818711096	-0.6384894260083858	0.26911241766923666	0.6424125483953869	0.7615620275229843	0.08561189110880957
394														9.47129769311292	2.595775171968159	0.8136188901484701	-0.2598368294946145	0.11116009770852486	0.9592331597247968	0.7206188428665965	-0.6389189068824022	0.26924173846898924	0.6428011398121459	0.7612004092915526	0.08591060208483325
395														9.47288455784417	2.543086748703249	0.8197574530625644	-0.2601662509995294	0.11124333949886683	0.9591342144131813	0.72014831518981	-0.639342928586519	0.26949401439678006	0.6431950916869068	0.7608321359429777	0.08622374931721744
396														9.485081188821043	2.5219852355656993	0.7750534553356052	-0.26045269590779496	0.11139578056335075	0.9590387756848229	0.7198583798777289	-0.6395477022507703	0.2697825966691918	0.6434036882969925	0.7606377039158934	0.08638273709130023
397														9.470499868352904	2.5328339995110123	0.7190903905072182	-0.26087672348488467	0.11155535737668243	0.9589049678588342	0.7196203849802634	-0.6396429832760764	0.27019133122019046	0.6434981248338247	0.7605341913328039	0.08659045645514057
398														9.49837415753879	2.518177268126898	0.762584461367836	-0.2611609688083989	0.11184020028692898	0.9587944086042838	0.7194242539968102	-0.63969971168759	0.27057904876014965	0.6436021217586155	0.7604446386599053	0.08660404379250686
399														9.545920887710915	2.501632251134777	0.7496454680006696	-0.2615770921820788	0.11200928645019087	0.9586612251439438	0.7192231430374607	-0.6397506991098411	0.2709928292552884	0.6436579024333381	0.760376855734963	0.08678445654451472
400														9.489752184027452	2.503714531394022	0.7740355182525965	-0.2618434298117108	0.11217132775561156	0.958569565286726	0.719136353692313	-0.6397183981417087	0.2712992367794847	0.6436465824212573	0.7603801446043614	0.08683957985208274
401														9.405383724472633	2.406153463307374	0.8020937808027789	-0.26217170509159704	0.11246992100339842	0.9584448413543969	0.7188785667898578	-0.6398284629873485	0.27172254996854406	0.6438009034317407	0.760243418137071	0.0868927034896374
402														9.462004949671856	2.3570202204702317	0.7822819289488296	-0.26249520409629357	0.11270353926292503	0.9583288475591537	0.7189487538141099	-0.6395708490227885	0.2721430110611114	0.643590675208695	0.7604255659286319	0.08685621144475708
403														9.361569237794448	2.4056329335116096	0.8833383462088719	-0.2630050622013332	0.11302345974274935	0.9581513632011659	0.7189729373049527	-0.6392799688971298	0.27276186828435867	0.6433554637053781	0.7606226521177661	0.08687305914824345
404														9.3617735040019	2.5410445413424756	0.8679489083402908	-0.2633097432929166	0.11333227424982162	0.9580311971435908	0.7192538072408943	-0.6387570053102971	0.27324613251883334	0.6429167441096063	0.7610159550103957	0.08667627335735312
405														9.36666365170837	2.6348012438376953	0.887035381818932	-0.2636887423882103	0.11369081708803347	0.9578844634127751	0.7193551051945586	-0.6384065428926854	0.2737979521879884	0.6426480216792473	0.7612565166234478	0.08655654874175961
406														9.367432298171044	2.6356836448464427	0.8130733486539278	-0.26396370095491595	0.11395107518481157	0.9577778014980346	0.7195205700883041	-0.6380427966571147	0.2742107562692776	0.6423498375480335	0.7615225158182736	0.08642999539408602
407														9.326663876069665	2.627277201410799	0.8203229314503353	-0.26433357149238035	0.11415801863937736	0.9576511419940007	0.7196260192497365	-0.6377327443881834	0.27465494562067005	0.6420795553518738	0.7617512018470644	0.08642309346287347
408														9.321366145301763	2.622219515026031	0.8611898341953236	-0.26462302489522227	0.11437374193039435	0.9575454568072173	0.7197836777150015	-0.6373851057259232	0.27504851261881147	0.6417835398250484	0.7620097598821115	0.08634242209966908
409														9.339488278481465	2.691486204497453	0.8338070162941595	-0.26514073742658967	0.11449719506925055	0.9573874772933679	0.719959620742691	-0.6369637504521151	0.2755636498343299	0.6413723831417484	0.7623434743809714	0.0864516813707204
410														9.384542528579868	2.746355091203136	0.9224217460635307	-0.26549373375884533	0.11465213847617722	0.9572711029157972	0.7201006454289249	-0.636630516284396	0.27596493651967635	0.6410679665898404	0.762598500443256	0.08646033387666396
411														9.382083231939285	2.8679991516403116	0.8769154914663133	-0.2661510033983573	0.1147338633484325	0.9570787762724609	0.7199468842836994	-0.6365641872799158	0.27651856950818754	0.6409681171479917	0.7626415777242963	0.08681990973247367
412														9.35892257301539	2.860483537316129	0.9038443912728802	-0.266535618644101	0.11472355434051901	0.9569729724885048	0.7198990866595345	-0.6364917352503415	0.2768096385330131	0.6408619734551073	0.7627035971053809	0.08705833642873206
413														9.38575593828528	2.6979568253293293	0.859489191717737	-0.2669691867199765	0.11487497006293451	0.9568339430617601	0.7194576588416048	-0.6368237204704121	0.2771934814897	0.6411771443807341	0.7624036268927789	0.08736463371699732
414														9.42483445665014	2.6463800123930032	0.8259558711412069	-0.2673979284823811	0.11487413484206382	0.9567143152412949	0.7194908140869072	-0.6366366979809186	0.27753681418599774	0.6409612439827324	0.7625599307124922	0.08758444944091526
415														9.448811750176455	2.5397159938815133	0.7779542750850506	-0.2680346784441343	0.11502321019496997	0.9565182027895726	0.719521382109864	-0.6363369113272905	0.2781444156713478	0.6406609023797699	0.7627876482998976	0.08779870023554576
416														9.40674329478342	2.600286349862934	0.8162708633335833	-0.2686821067071397	0.11518916170411747	0.9563165702639036	0.7199655053971681	-0.6355345818362663	0.27882874014061476	0.639890300421575	0.7634312361412158	0.08782454731042805
417														9.447891577113452	2.6961063556929346	0.7970294333459748	-0.2694613286179407	0.1155735610506482	0.9560509109694562	0.7202268420108997	-0.6348384942320817	0.27973806013510305	0.6392682445002735	0.7639521177581853	0.08782524321812735
418														9.401606618297597	2.8800520632210014	0.8592406052310899	-0.2701165731394844	0.11584700920929819	0.9558328867394357	0.7207308311532223	-0.6339256776210951	0.28050900926319877	0.638423140198229	0.7646683632202242	0.08773932043010318
419														9.462251169142299	2.9903884471219206	0.8885687780342766	-0.2709025982012508	0.11604380154902666	0.9555865310948366	0.7207582777277681	-0.633558121587545	0.28126786460128095	0.6380589999167119	0.7649430976827709	0.08799301070411042
420														9.479929517944667	2.8625468356126254	0.8503638976560328	-0.27140749973019335	0.11604967727544963	0.9554425369923978	0.7206829377970618	-0.6334683950289366	0.2816627338993568	0.6379295198204906	0.7650165128307543	0.0882930509036301
421														9.493551859225096	2.577071263781756	0.7653953844334292	-0.2718813328857622	0.11624932811249766	0.9552835362035996	0.7201395357843513	-0.6338932125566058	0.2820965155314128	0.638341280059938	0.7646342189492035	0.08862799435495095
422														9.437936121356202	2.3640836715977787	0.6739145116861148	-0.27238867398529076	0.11622067458532792	0.9551424841789138	0.7202403125968048	-0.6336012401020727	0.28249488606269124	0.6380112086750453	0.7648805288017517	0.0888789866332913
423														9.439948933972188	2.4447976910500713	0.6636890317502923	-0.2730750177541257	0.1164684834981693	0.9549162932059649	0.7203476168054206	-0.6331552999373864	0.2832201919425046	0.6375965382915239	0.7652120350026095	0.08900110025067287
424														9.444827915311276	2.619006893228389	0.7442898382626641	-0.27347163245822115	0.11654223280987286	0.9547937862241909	0.7208970811453629	-0.6323318242428072	0.28366152796221866	0.6368050444498163	0.7658814347021697	0.08890986076816476
425														9.483067548510835	2.7833939274189574	0.8265216499366598	-0.2739276368503112	0.11669423341390017	0.9546444917651524	0.721010146159857	-0.6319874289506582	0.2841412655403618	0.6364809650760543	0.7661425099394231	0.08898109664178905
426														9.39246619335567	2.8606730588740024	0.877718248280604	-0.27420178106089366	0.11653946385423791	0.954584693271163	0.7213617065370321	-0.6315117266544402	0.2843065729804857	0.6359643634709531	0.7665582120507837	0.08909453368468395
427														9.318944535657673	2.8581756976774435	0.886163918179879	-0.27463272830658503	0.1163650798308491	0.9544820756508956	0.7213295653098475	-0.631447633042657	0.2845303936923659	0.6358148494277154	0.7666374990311825	0.08947861379360811
428														9.307310438540881	2.8779694367873643	0.8633627298994255	-0.2747745382790449	0.11609728064331509	0.9544738731577547	0.7213959501396832	-0.6313964246255621	0.28447572496106094	0.6356782489873332	0.7667202725879136	0.08973955296921082
429														9.305310244770663	2.8642185095988775	0.8349107300476586	-0.27507316613434335	0.11594393487052723	0.9544064947597364	0.72106534308039	-0.631733419759531	0.28456573470340296	0.6359241497861103	0.7664658442002925	0.09016975875062322
430														9.294479297644319	2.8329795167979968	0.8890454309750225	-0.2751642198304888	0.11571743966887932	0.9544077358663633	0.720877434725826	-0.6319946561788978	0.2844617349740197	0.6360977725383034	0.7662846916895809	0.09048422544296209
431														9.291283517529209	2.886663509100342	0.8895481867111258	-0.27535269503368565	0.11573749130092864	0.9543509451166557	0.7202500063349859	-0.6326762428554852	0.28453593815319767	0.6367266459887942	0.7657190116704921	0.0908491797113552
432														9.259567673425497	2.9083520208716434	0.9238092303608111	-0.2755087399116926	0.11557800905388105	0.954325237042075	0.7199473060430767	-0.6330317454001388	0.284511310560706	0.6370014213120627	0.7654492361605667	0.09119570224312762
433														9.30035682747365	2.8037360720280664	0.9680609725272629	-0.2757155442973914	0.11576726594547843	0.9542425680969714	0.7192135136726929	-0.6337821346389673	0.28469655347940925	0.6377404333922801	0.764799415499243	0.09148220410901686
434														9.354531595148325	2.7255204605055643	0.8887821928694771	-0.2759409789579812	0.11559926909064017	0.9541977704424914	0.7190365306705131	-0.633963817724825	0.2847390829813812	0.6378424912884245	0.7646742357379877	0.09181649909194634
435														9.355182832199972	2.658848190120831	0.863902031640199	-0.27634650556285656	0.11548036772769638	0.9540948032206625	0.7189147668956897	-0.6340001506127195	0.28496555399269885	0.6378041759055165	0.7646620781054371	0.09218318450216445
436														9.314575165631185	2.697386705237697	0.798138438042055	-0.27666603285470326	0.11522906070044436	0.954032583214292	0.7192657148833042	-0.6335396601458203	0.28510406944785865	0.6372697526619722	0.7650815398324635	0.09239859170862419
437														9.28567281128445	2.7971019763289817	0.8183194428371616	-0.27708910509774143	0.11510613345685844	0.9539246332267268	0.7194875958726594	-0.6331579267983674	0.28539207963392144	0.6368353219015996	0.7654159769517525	0.09262372809102837
438														9.339567052972424	2.9483382948986914	0.8875413772233808	-0.277431313221168	0.11480129602672301	0.9538619024130082	0.7198625148237481	-0.6326750248433998	0.28551755233441045	0.6362623878526905	0.7658609373574217	0.09288271332171705
439														9.307325668102507	2.971471491396463	0.9214448222262561	-0.27795782449530937	0.11454694547554378	0.9537391913327558	0.7198378547523631	-0.6325910482250121	0.2857656882326802	0.6360604614872329	0.7659683824987846	0.09337840406028042
440														9.328583149014433	2.852147805401447	0.9182727032316412	-0.2782792405382145	0.1141598955338538	0.9536918698076302	0.7198449876860282	-0.6325824351719173	0.28576678676023337	0.6359118319301631	0.7660332766686226	0.09385713104265025
441														9.31657107068831	2.7416279176189438	0.9137051085495475	-0.2786786980577111	0.11401882399288882	0.953592098868346	0.7194557436729245	-0.6329492486095853	0.2859347505648796	0.6361773464568647	0.765751236668828	0.09435797473060964
442														9.309586105030167	2.7699575169645336	0.8513375806448746	-0.27889791681990317	0.1136787546068756	0.9535686093535948	0.7194834976225992	-0.6329386735546889	0.2858883211458325	0.6360498790521621	0.7658105354915543	0.0947352895592194
443														9.317315891722899	2.8044965351572286	0.8783594409130264	-0.2791595181983978	0.11356232321530474	0.9535059318877787	0.7191628209016594	-0.6332651321308542	0.28597221798639727	0.6362977293940363	0.7655578823140903	0.09511218846582936
444														9.343875545429091	2.8234743423894817	0.8172911745861272	-0.2793404441781827	0.11327003108184514	0.9534877116696642	0.7190896619382963	-0.6333755273877174	0.28591169860605037	0.6363010092242521	0.7655098571312116	0.0954760927936914
445														9.327571586654189	2.7534773742343894	0.7760138902377922	-0.2795945181375774	0.11307012980107539	0.9534369675936547	0.7188728582970472	-0.6336046026326618	0.28594933314582144	0.6364343792027967	0.7653498241127874	0.09586932616471311
446														9.308616071409379	2.8181874330734358	0.79114310794891	-0.2796870102472691	0.11279003270705967	0.9534430160323608	0.7189006274192454	-0.6336218404278728	0.2858413042739114	0.6363623686196092	0.765376882231712	0.09613097289690148
447														9.299144796677034	2.8501109050504705	0.8001676758315402	-0.2798503204817977	0.11271080586305715	0.9534044642060027	0.7186163045174873	-0.6339285689442211	0.28587615563030383	0.6366116594972675	0.7651345265494376	0.09640929039310964
448														9.33737249129631	2.929458924476891	0.8248675648914732	-0.2799248004926854	0.11247544085648503	0.9534103949890991	0.7184535018967158	-0.6341679239335544	0.28575445729883475	0.636762649408299	0.7649707964739211	0.09671095522524198
449														9.359407011344306	2.838846460868884	0.9578491520801299	-0.2800680747806556	0.11231983998160477	0.9533866618718577	0.7179321494461159	-0.6347888747455988	0.2856860397199984	0.6372874565534278	0.76447847454701	0.09714607389874125
450														9.273799958194182	2.840096331301462	0.9097473593704116	-0.2801593699703462	0.11200061983558662	0.9533973927876372	0.7176879923564112	-0.6351444898176757	0.2855090588434443	0.6375222921947464	0.7642298987940015	0.09756018011498113
451														9.22755266500172	2.7236372744546857	0.870095272490814	-0.280335694407992	0.11172963394163027	0.9533773583109985	0.7173865526443068	-0.6355235764987381	0.2854230505747031	0.6377840014659398	0.7639543655307701	0.09800660620882795
452														9.244869885084503	2.643827877261976	0.8301315628346154	-0.2803657184277154	0.11151580760595992	0.9533935643712417	0.7172669025975996	-0.6357201078736081	0.2852860579895434	0.6379053647435142	0.7638220794786952	0.09824752685073213
453														9.256067171243528	2.70371268350062	0.9194490519110048	-0.28044747359216227	0.11140667851789154	0.9533822772305892	0.7171754369691353	-0.6358329818055132	0.28526445950457846	0.6379722620646627	0.76374404824517	0.09841962002657867
454														9.200835296597372	2.83213835126895	0.9280041561720317	-0.2805487244651278	0.11120367309890711	0.9533761882333233	0.7172790650109656	-0.6357333643234961	0.28522593217118886	0.6378112229319773	0.7638565523547206	0.09859011779471205
455														9.199288970084046	2.8990980759098366	0.9592366210244616	-0.28069406453959733	0.11098516752907966	0.9533588698495354	0.717205067344387	-0.635835279135216	0.2851848333670224	0.6378304896348048	0.7638035024766416	0.09887606432621143
456														9.294521736020307	2.9125114105705103	0.9332164187702408	-0.2807287588787813	0.11076720665471868	0.9533740031426752	0.7170321648798181	-0.6360950376442773	0.2850403087496332	0.6380095912023109	0.7636188375192403	0.09914652046150657
457														9.305603546638944	2.8911312504723683	0.9634981899062862	-0.28084248880441787	0.11045131135272374	0.9533771574264847	0.7166520458154828	-0.636603500592417	0.28486106835080793	0.6383865143552325	0.7632407817025662	0.09963015324404678
458														9.351348732792038	2.793016922012806	0.9680595440142774	-0.2808922065918246	0.11020135300876299	0.953391435912351	0.7161441092184111	-0.6372672292986614	0.28465434002273104	0.6389344122112575	0.7627228462928366	0.10008334844123506
459														9.420886085158047	2.637994862481127	0.9195798611873113	-0.2808632795477074	0.10994962686318122	0.9534290208265923	0.7156289212665721	-0.6379671429175716	0.2843820873480505	0.6395240927819295	0.762173867375574	0.10049841113774949
460														9.439946701369012	2.570263573393057	0.911996084291946	-0.2808533285598912	0.10968808553698906	0.9534620767120527	0.7153531668586529	-0.6383771486742629	0.2841557015367015	0.6398368967964623	0.7618681906614482	0.10082462772619127
461														9.463089455121043	2.709453035054438	0.8760352216348495	-0.28079824288976474	0.10945673403348877	0.9535048873313359	0.7151213762412758	-0.6387414867388215	0.28392028874573993	0.6401201168787034	0.7615960454817257	0.10108263685615326
462														9.482886694800413	2.772099848986492	0.8524455268965213	-0.2807499732874139	0.10908465136340012	0.9535617396561391	0.7149948324108375	-0.6390198243565584	0.28361250625653367	0.6402826267554942	0.7614159197943259	0.1014098365980628
463														9.491407670687733	2.803597231525428	0.8796673827489558	-0.28068378553739676	0.10868617015678328	0.953626724118534	0.7147020844127044	-0.639509598654767	0.2832461893204451	0.6406383871362465	0.7610616201366803	0.10182174268003447
464														9.437849804398288	2.730816456575278	0.8775228502348315	-0.2805740084164206	0.1082132685751735	0.9537128049394215	0.7144515030986753	-0.6399861706978014	0.28280161073729304	0.6409658926348463	0.7607283285246063	0.10225035285500444
465														9.389454348310462	2.746770598290048	0.8953581900446428	-0.28049294138310166	0.10775445096107822	0.9537885971913966	0.7141560764287016	-0.6405010506113069	0.28238183841347586	0.6413304985217982	0.7603600347624068	0.10270252772883981
466														9.370530898152051	2.677928523667472	0.9271269409109724	-0.28043157870019364	0.10735176379585754	0.9538520474778235	0.7139403015930282	-0.6408974316025547	0.2820278850158352	0.6415975182534402	0.7600829434839119	0.10308512790824576
467														9.399053069565824	2.5767402722628825	0.9134920045439232	-0.28040880753889086	0.10696210382497867	0.9539025154594951	0.7138285235941326	-0.6411529420150984	0.28172991294643335	0.6417318283816367	0.7599223732005255	0.10343233126659845
468														9.390079495699483	2.606864308605142	0.9228703183393626	-0.2804009492057446	0.10655094116918656	0.9539508397294263	0.7140909256732832	-0.6409662262389082	0.2814896919820088	0.6414432613689154	0.7601376150125799	0.10364047803534987
469														9.331486426732363	2.7751028190301	0.8970901786767128	-0.28035438296388593	0.10608925320986928	0.954015980110559	0.7144731847116883	-0.6406654381112732	0.2812043113780933	0.6410378212561847	0.7604556967786238	0.10381543698343376
470														9.305444211890466	2.883583325190007	0.9495085375225121	-0.28034136341072974	0.10561173162569898	0.954072786586031	0.7148065969486119	-0.6404149622425315	0.2809274018223239	0.6406717169656841	0.7607330926671444	0.10404284118248625
471														9.32056794245401	2.9369966943170884	0.9668632324145066	-0.28035060071715323	0.1050871091561808	0.954127999886141	0.7149481518780741	-0.6403980033952098	0.28060566169191004	0.6405097039106099	0.7608200159936812	0.10440413047249175
472														9.286811133063438	2.8123091191683516	0.9844349055098512	-0.2803816198478061	0.10449455843760613	0.9541839626133158	0.7150441697389673	-0.6404472569739057	0.28024836548481497	0.6403889307083867	0.7608601699994089	0.10485141455716973
473														9.24867988063806	2.7294523951114793	0.967377833171902	-0.28045017191171817	0.10397124510002298	0.9542209813596837	0.7150628180600636	-0.6405548066373736	0.27995482835942753	0.6403380882804702	0.7608413237240121	0.10529773412189292
474														9.244947486666032	2.6512532775811595	0.9837920299771908	-0.28055406158362317	0.10356177529031291	0.9542349696105523	0.7152554829886295	-0.6404096920173047	0.2797946039955087	0.6400773489068607	0.761019306633557	0.10559641256853947
475														9.248884224944101	2.726191472892653	0.9745913534121501	-0.28059915426493665	0.10322876783704793	0.9542577933224583	0.7155420605814286	-0.6401507102812298	0.2796544790725166	0.639737191481538	0.7612823980739882	0.10576122265760834
476														9.325973980528987	2.884875996131976	1.0211208361162671	-0.2806821413380923	0.10288743360556413	0.9542702507884878	0.7158321506816876	-0.6398764070792788	0.27953982849272563	0.639376155001336	0.761559163604098	0.1059517472547466
477														9.327278247062866	2.9337411883278035	0.947913846134909	-0.2806860935423056	0.10252624260444626	0.9543079620695695	0.7158728752216956	-0.6399322795948377	0.27930754385511614	0.6393288226052251	0.7615609280352881	0.10622433561217542
478														9.33942174818255	2.7641352026668504	0.8885304394245518	-0.2807383469828962	0.10207336110652465	0.9543411389465137	0.7158423722619616	-0.6400828889328751	0.27904048697225425	0.6393400336344341	0.7614951899045472	0.10662737521180571
479														9.37547354653865	2.6178994573217067	0.8375885263585223	-0.28075832443777926	0.10165602792963185	0.9543798065992702	0.7158332113087513	-0.6402088100857259	0.2787749864604419	0.6393415181624694	0.761445159859979	0.10697519188821236
480														9.311927546002067	2.5799392114508253	0.8398421790433723	-0.28083243883470904	0.10125896568561216	0.9544002112145771	0.7160832291889494	-0.6400010864830377	0.27860979554720966	0.6390289118439603	0.7616726535519124	0.10722321884140879
481														9.302902590657288	2.691387050637383	0.9091031967024201	-0.2808644606442975	0.10084560268137249	0.9544345546797955	0.7165010174343429	-0.6396122856238058	0.27842847572517315	0.638546354435244	0.7620539931651318	0.1073883826982136
482														9.332410677477068	2.8025554352003894	0.9390197720908693	-0.280897842738844	0.10050974901276599	0.9544601575225944	0.7168503643925476	-0.6392814717570683	0.2782889773929067	0.6381394495053074	0.7623758851259061	0.10752233611466888
483														9.318096027866694	2.8247806724985263	0.9882194467525096	-0.28087945457707597	0.10007445969915646	0.9545113066446127	0.7171123832385895	-0.6391015857714206	0.2780269642864256	0.6378530879460835	0.7625839400225899	0.1077458705346448
