// Start Time: 1748342924.2155054
// Update Rate: 100Hz 
// Filter Profile: 46.1 human
// Option Flags: AHS Disabled ICC Disabled 
// Firmware Version: 4.0.2 
PacketCounter	SampleTimeFine	Year	Month	Day	Second	UTC_Nano	UTC_Year	UTC_Month	UTC_Day	UTC_Hour	UTC_Minute	UTC_Second	UTC_Valid	Acc_X	Acc_Y	Acc_Z	Mat[1][1]	Mat[2][1]	Mat[3][1]	Mat[1][2]	Mat[2][2]	Mat[3][2]	Mat[1][3]	Mat[2][3]	Mat[3][3]
0														9.615964300515548	-1.6351959742357318	1.562023309361798	0.22057843397663018	-0.058319325529224364	0.9736241629778062	0.8801833113370819	0.4420084727787495	-0.17293307501888394	-0.4202647890415123	0.8951130466380286	0.1488292337891965
1														9.640979127204115	-1.68276428772771	1.5734352754794079	0.22059699051828036	-0.058276161539348614	0.9736225432735817	0.8801595949183043	0.4420442954764567	-0.17296221642303716	-0.42030471713689366	0.8950981677072984	0.14880596399174656
2														9.603133266274217	-1.6681876641102487	1.561810085157427	0.22065911540177313	-0.05822222299656554	0.973611692380204	0.8800606814446036	0.44222180752681967	-0.17301176238329047	-0.420479193023111	0.8950139919001547	0.14881936210581842
3														9.634277970569267	-1.5884606438620164	1.6146162462232643	0.22068954178825054	-0.05823815641688357	0.9736038430914573	0.8799874429106411	0.44236899317716283	-0.17300801771887603	-0.4206164838244974	0.8949402164460967	0.14887505675072107
4														9.635729668548834	-1.6073213889876303	1.5859256878443329	0.22070561840071834	-0.05817316700454461	0.9736040841363689	0.879853944122859	0.4426353008154682	-0.17300585967951732	-0.4208872378889687	0.8948127586890239	0.1488759882235322
5														9.554910636693764	-1.612304229704845	1.5855833959639718	0.22064736442938826	-0.05818085423517205	0.9736168285166555	0.8797188297057242	0.4429457806809186	-0.1728982823459005	-0.42120009642871153	0.8946586072784621	0.14891761209140741
6														9.552820513571753	-1.5736695986607991	1.540105624956933	0.22065614189972396	-0.058115526602266376	0.9736187408886862	0.8795725362702309	0.4432414726795909	-0.17288478919783878	-0.421500913974196	0.8945163958612324	0.14892077442166593
7														9.598178272448399	-1.4805444710217996	1.5640761998345631	0.22073023321864116	-0.05808262962611754	0.9736039093383717	0.8795468403786713	0.4432622344179043	-0.17296227079552234	-0.42151574077742465	0.8945082446096082	0.14892776974861627
8														9.635843044887896	-1.4963481119263338	1.5755908824065488	0.22080108963836306	-0.05798641456050785	0.9735935777011513	0.8795739450453772	0.44316088177706237	-0.17308410689571535	-0.42142206161023704	0.894564703411102	0.14885374499549578
9														9.626613355082585	-1.5868023894056957	1.5918469963850057	0.22084950881173943	-0.057973341394552624	0.9735833740081867	0.8797014042010938	0.44286959492528133	-0.1731818735819134	-0.42113054259248167	0.8947097929375024	0.14880676233791967
10														9.647125285835912	-1.6696147430192132	1.5222321056202999	0.22091522482140089	-0.05793380280310545	0.9735708181405609	0.8797550682600971	0.44272367565981263	-0.17328233285865385	-0.4209839466212246	0.8947845670903338	0.14877195698175752
11														9.692128672821768	-1.6885767583167313	1.5568807426431142	0.22091390979360334	-0.057886361599783887	0.9735739384353109	0.8797663589189054	0.442691729975351	-0.17330662401074737	-0.42096104115971966	0.8948034428589163	0.148723234477854
12														9.695929663764938	-1.6347969336468116	1.5628459558168581	0.22090825930520497	-0.05784695739173096	0.973577562647817	0.879732079126403	0.4427597115411944	-0.17330697271574225	-0.42103563973454905	0.8947723550470691	0.14869910126440378
13														9.704799438654472	-1.6565257239694702	1.557174540536012	0.2208967184615332	-0.05793220075826816	0.9735751126072548	0.8797466149399475	0.4427483573360651	-0.17326218738639637	-0.4210113220266515	0.8947724583331333	0.14876731675287902
14														9.642039577236025	-1.5940218933016124	1.5340290473320073	0.2208730430565487	-0.05787956663311139	0.9735836145998468	0.8796900828443588	0.44286806825997554	-0.17324327479288387	-0.4211418490202855	0.8947166198758358	0.14873369867563352
15														9.626438905196784	-1.588591504370793	1.5911173334480575	0.22087833385988279	-0.057798201588421194	0.9735872480288688	0.8796879437399404	0.44285613230436593	-0.17328464363299217	-0.4211435423580389	0.894727787639102	0.14866170575020496
16														9.63915056058693	-1.5571863188194563	1.590532570254697	0.22087860978088447	-0.057656049241652074	0.9735956140652585	0.8797023670951765	0.4428000774127331	-0.17335465603905964	-0.4211132686919362	0.8947647017116408	0.14852522850502992
17														9.601072560854028	-1.6546626307592522	1.5886368103160982	0.22090564563067872	-0.05744239898195147	0.9736021089375744	0.8797097136288867	0.4427361787491228	-0.1734805342786564	-0.42108373926747195	0.8948100618711349	0.14833555776920332
18														9.618640990368267	-1.7003259811155442	1.5759180906783752	0.22098619827523536	-0.05728097035195162	0.9735933394428071	0.8797639410121567	0.4425616156212686	-0.17365086948659525	-0.4209281509552627	0.8949067587264223	0.14819374116052364
19														9.621493603682968	-1.7392654380752572	1.5171847846079265	0.22098239477800874	-0.05720656920340489	0.9735985772576669	0.8798486807879924	0.44236957901962964	-0.17371083579796076	-0.4207529918061269	0.8950064603107469	0.14808901339471997
20														9.598477206637844	-1.731111382093354	1.5511135212495524	0.22102095171328395	-0.057159580923921816	0.9735925848178779	0.8798597266849307	0.4423230587411666	-0.17377333818448198	-0.4207096388979863	0.8950324541682615	0.14805507665685047
21														9.59840183698413	-1.7314887585834091	1.55115869323518	0.22099330437979203	-0.05720405357301078	0.9735962487982972	0.8798595440319203	0.44234188052128864	-0.17372634662834052	-0.4207245443223404	0.8950203109380843	0.14808612633549756
22														9.582084913306051	-1.7065341940369185	1.5343543024792055	0.22104460293475026	-0.05720053312615453	0.9735848101339205	0.8797824503706748	0.4424857530426349	-0.17375039100405842	-0.4208587928666686	0.8949494160925385	0.14813311278183033
23														9.56776004457469	-1.7199481179856053	1.5638123056279272	0.22111471733992477	-0.05723744002142034	0.9735667194576235	0.8796695812790691	0.44270568081886	-0.17376164117266057	-0.4210578458454276	0.8948382846249392	0.14823877637616995
24														9.584057760194233	-1.6341988679050081	1.5713922283628883	0.22126277128441757	-0.05723246163586404	0.9735333745581807	0.8794909849362915	0.4430280333216468	-0.1738440942538616	-0.42135305084849134	0.8946790525245648	0.14836104446388737
25														9.595005980974157	-1.5837032782524294	1.6018832479574878	0.2213226513076446	-0.05728867248488445	0.9735164569862568	0.8793722167562554	0.4432674782011287	-0.17383453962432516	-0.42156943486849696	0.8945568460271999	0.14848320043198332
26														9.603547658077353	-1.6065721177784775	1.5969400314060662	0.22147390049443838	-0.05719665176168581	0.9734874700924673	0.8792648026906325	0.4434215976948916	-0.1739847506165787	-0.4217140241314995	0.8944863496582619	0.14849731353076673
27														9.618894766411469	-1.613461877339535	1.5399045346558742	0.2215688306896734	-0.05717022429926755	0.9734674204719862	0.8791998117833502	0.4435187155034326	-0.1740656196907001	-0.42179964939166686	0.8944398886743353	0.14853397362660933
28														9.638306226466922	-1.696768358165291	1.5747708026458813	0.2216994252908495	-0.05710557783308401	0.9734414814492226	0.8790740638974162	0.4437242087265628	-0.17417696969710922	-0.42199307459790025	0.89434209314464	0.14857343443925528
29														9.627184554773065	-1.6376009665417102	1.5351872325675566	0.221819207468111	-0.05695874837368475	0.9734227962103226	0.8788803342313665	0.4440628871257176	-0.17429145239779964	-0.42233351429833443	0.8941833443211051	0.14856160149629216
30														9.611764046150281	-1.5219520692466924	1.5818030365626574	0.2219900012575277	-0.05679711151332639	0.9733933056403385	0.8787025118576512	0.4443455179710454	-0.17446763686740802	-0.4226136947576797	0.8940532136191817	0.14854802664618816
31														9.587960132622959	-1.495441270525828	1.5413381385575835	0.22211572745348646	-0.05660972946959042	0.9733755401422355	0.8786066808670849	0.44446692320927333	-0.1746409302214308	-0.42274685564003095	0.894004749820862	0.14846078049170103
32														9.549524486302467	-1.5936728297638112	1.5399774708963212	0.22225263425457203	-0.05639596972743394	0.9733566978068247	0.8786051535176771	0.44437978944530426	-0.17487020027645223	-0.4226780699055522	0.8940615735680904	0.1483143684538613
33														9.64035884722546	-1.6317360292047107	1.5050546339050292	0.22235642927352947	-0.056239057067739684	0.9733420708162458	0.8785887265663456	0.4443468692527891	-0.17503630862130332	-0.42265762492974546	0.8940878190901476	0.14821438473835943
34														9.677872300676414	-1.6484302274894655	1.5163572302523005	0.2224568592866366	-0.05614614867160822	0.9733244863588257	0.8785486731124976	0.4443766635509757	-0.1751616677917105	-0.42268803475920175	0.8940788504828023	0.1481817613296429
35														9.600823065695298	-1.6002574223396673	1.5219801959879264	0.22250101881122586	-0.05627196430213843	0.9733071265852039	0.8785601979227539	0.4443581158647201	-0.1751509163295708	-0.4226408348159213	0.8940801591013725	0.1483084415917258
36														9.568319094791606	-1.5507159391141678	1.4877674815035056	0.22257529958378733	-0.0562001181016924	0.9732942940038967	0.8784970320794143	0.444450510117957	-0.17523329787328873	-0.42273301342910075	0.8940387523934543	0.14829534239452072
37														9.604548954158385	-1.5473497957193247	1.5283000695072468	0.22256193278991476	-0.056139423578058845	0.9733008533814923	0.8784565587735838	0.4445302577417133	-0.17523391309834813	-0.4228241483412353	0.8940029167024063	0.14825155819450886
38														9.603151269002272	-1.5284664875264529	1.5569859591043316	0.22255043601499985	-0.056093712208718394	0.9733061177657211	0.8784174902820292	0.44460899853754654	-0.17522999510946108	-0.4229113573742792	0.8939666290584263	0.1482216243797082
39														9.590377080458982	-1.5607164967016498	1.5566417188676815	0.22255348254857515	-0.05603383701991316	0.9733088700481093	0.8784187888898323	0.44459431332454963	-0.1752607425660203	-0.4229070568467991	0.8939776874555082	0.14816718800355327
40														9.618764608440499	-1.534744570892412	1.4989045975149475	0.2225137620032529	-0.05595410865966327	0.9733225382386164	0.8784735684480851	0.44447926383668757	-0.17527798936912753	-0.4228141616091488	0.8940398882283157	0.14805695863232404
41														9.639831704480239	-1.6360865265121887	1.503707366288766	0.222456121322171	-0.05593960163785705	0.9733365476827086	0.8785722596178166	0.44428986820354155	-0.17526350915613864	-0.4226393956037934	0.8941349305223892	0.14798198303639096
42														9.633975570487355	-1.651789930955258	1.4512098768764838	0.22240208879736978	-0.05588396811778995	0.9733520909752937	0.8785830830696124	0.44427753511566975	-0.1752405145377039	-0.42264533245081654	0.8941445374764387	0.14790696081856364
43														9.647446864047751	-1.6384924238897933	1.5260102144647578	0.22230483536920836	-0.055933432844189834	0.9733714662253738	0.8785797484763818	0.44433051822293407	-0.1751228601380101	-0.4227034252743256	0.8941151165627408	0.14791880406273322
44														9.654106432162578	-1.5104239134312047	1.5670432998582131	0.22222949015454724	-0.055964769077034904	0.9733868698147738	0.8785655347871577	0.44439487935516303	-0.17503083238979694	-0.4227725804611801	0.8940811684769252	0.14792636473979442
45														9.645413678399047	-1.4878786479169204	1.572714591985359	0.22218332470509913	-0.05595145076864261	0.973398174119858	0.8786751810362176	0.44417809505678374	-0.17503070045765645	-0.4225689250926522	0.8941897198182339	0.1478521170542698
46														9.598486672082423	-1.5620305919820436	1.5770014297748682	0.22209585808264098	-0.05589361683977978	0.973421457241982	0.8788250763765798	0.44388367252839533	-0.17502505647593264	-0.42230310791448666	0.8943395266112713	0.1477054372272507
47														9.572026164388165	-1.7181167532724446	1.5115945524907262	0.22196040758119234	-0.05588837667240709	0.9734526525821965	0.8790266317759596	0.44350725689291887	-0.1749671218027274	-0.4219546872532676	0.8945265800613429	0.1475684230069409
48														9.597249539891235	-1.7651298881478594	1.5216276662400712	0.2218483586031446	-0.05578207206621483	0.9734842917176885	0.8791295736116302	0.44331256790229384	-0.17494330493421717	-0.42179912113057205	0.8946297153436572	0.1473878347680137
49														9.660717806938386	-1.715603186484821	1.5328661079918342	0.221744695604757	-0.05576230200329674	0.9735090424061026	0.8791627724795248	0.44327810333357	-0.17486378296007515	-0.4217844348209984	0.8946480250804145	0.1473187081210154
50														9.653512794319731	-1.7115037549948098	1.509758148024251	0.221642114063085	-0.05578605228352268	0.9735310419520617	0.8791059212502899	0.4434419833868345	-0.17473404531638936	-0.4219568135441423	0.8945653267037411	0.14732726754780842
51														9.5881354193287	-1.6102267817984726	1.544675029220907	0.22154702302732712	-0.055843357603195865	0.9735494009033803	0.8790103732873285	0.4436909099999752	-0.1745827598494915	-0.42220573212712353	0.8944383130182849	0.1473852908671832
52														9.57941604317926	-1.58748004512107	1.5507269582727479	0.22152180499776553	-0.055787312509276044	0.9735583524748397	0.8789157238365451	0.44389089035081913	-0.17455093198387284	-0.4224159564971635	0.8943425815796479	0.14736385740756458
53														9.587488068185245	-1.6099299404353773	1.6481768224817392	0.2214837869852796	-0.05570145646443431	0.9735719181706093	0.8788918214489894	0.4439405289248819	-0.17454504567008905	-0.4224856190365971	0.8943232941870833	0.14728118407191926
54														9.584139123418908	-1.553421276839538	1.6299254480210494	0.22148328033446246	-0.05550992401428273	0.9735829727702796	0.8789438640221872	0.44379618896435286	-0.1746500116188483	-0.4223776040819794	0.8944068375167116	0.14708354283644948
55														9.669912191635497	-1.6256884466720398	1.6168599659343168	0.221493999002363	-0.05536764236012076	0.9735886362244701	0.8791099880488376	0.4434146184477724	-0.17478302280138497	-0.42202610975947247	0.8946048850337778	0.14688792446960208
56														9.666838843526618	-1.6802470715175137	1.5053914571449298	0.22144161980782617	-0.05524481944921511	0.9736075281862346	0.8792531457979444	0.4431089215393724	-0.17483818020281733	-0.4217552781190826	0.8947639317586722	0.14669693862673938
57														9.680587041530508	-1.7785731420329112	1.4866975673451004	0.22136329490735607	-0.05525005944225864	0.9736250420975141	0.8793606644992431	0.4429115414261674	-0.17479756349259062	-0.42157219239319943	0.894861328588471	0.14662908714735956
58														9.625330685623927	-1.7192866414668457	1.4864308962883632	0.22134927878036653	-0.05525884944748127	0.9736277298542562	0.8793945526382938	0.442846521069231	-0.17479181779183584	-0.42150885823847967	0.8948929647363532	0.14661808923824332
59														9.661612457441986	-1.7154578387389325	1.5273802573214463	0.22136720553759234	-0.05524921178831804	0.9736242010700265	0.8793723677097471	0.4428850557549525	-0.17480579594935053	-0.4215457261330385	0.8948744895155423	0.14662485735122513
60														9.615657329756335	-1.6975630715985435	1.596964077643211	0.22136851599583668	-0.05528527638721309	0.9736218559279529	0.8792953310350489	0.443054528492731	-0.17476385668109018	-0.4217057041892672	0.8947883677143297	0.14669040887992962
61														9.647074299429455	-1.617099277649396	1.6504035440987397	0.22135350570568657	-0.055473011330552935	0.9736145903414362	0.8792388250266934	0.4432138013924391	-0.17464425218409813	-0.4218313810961458	0.8946978659129481	0.14688095401832818
62														9.677811611907368	-1.5173908520209938	1.629100460212778	0.22138284679671993	-0.05550706916678866	0.9736059780099409	0.8791740394174357	0.4433461343168996	-0.1746345143455057	-0.42195099663184715	0.8946301864227335	0.14694960354698483
63														9.628625417248802	-1.5534079700530872	1.588836560347347	0.22141680332618652	-0.05560375884699509	0.9735927388836149	0.8792845484211863	0.44311617271277703	-0.17466178857475223	-0.421702836263362	0.8947381066448808	0.14700489245249804
64														9.62601054448509	-1.6268433387248742	1.5538728510943236	0.2214207816409516	-0.05557637390721637	0.9735933977389308	0.8793779234717471	0.44291157026875316	-0.17471064258534974	-0.42150599659794713	0.8948411074517046	0.14694246236734584
65														9.589103302744423	-1.7424834986159052	1.5240722233074309	0.22144831590513347	-0.0556774430481034	0.9735813606054735	0.8795498850540682	0.44255394830923345	-0.17475125904348587	-0.4211325718632499	0.8950117458288094	0.14697391518331104
66														9.608515395161918	-1.6945482103527356	1.4727951417126466	0.22148946603462255	-0.05567858480751103	0.9735719344915046	0.879570149674024	0.4424953808838496	-0.17479756777161326	-0.4210686027693262	0.8950406320890073	0.14698128680753114
67														9.639848316301363	-1.6149738005887941	1.5258644315038963	0.22157246316402004	-0.05581056733192713	0.9735454915624219	0.8796343454850774	0.4423509023262584	-0.17484020548542295	-0.4208907955877258	0.8951038262599673	0.14710567087742646
68														9.677349656282818	-1.6303988654568184	1.5386308254739594	0.22164284771469323	-0.05588794125547114	0.9735250310490979	0.8796493631285868	0.44230597094076163	-0.1748783177458625	-0.4208223449442698	0.8951212019008242	0.14719574689246573
69														9.626660828479855	-1.6474842155813478	1.5278796612960333	0.22171551974903256	-0.056112852232993504	0.973495544990677	0.8797454301484187	0.44211418691107773	-0.1748800270612147	-0.4205831742181217	0.8952018730689941	0.14738860206398005
70														9.601541294187374	-1.6001886610592255	1.5175151037223733	0.22174426314131557	-0.05615706722996844	0.9734864485775052	0.8797112269172986	0.4421839347623213	-0.17487574181049897	-0.42063955948005666	0.895164650574541	0.1474537532997513
71														9.598636377247258	-1.5622630401869013	1.575859533492302	0.22173383975166974	-0.05622703356140557	0.9734847841676135	0.8797390724354561	0.4421412245298352	-0.1748436501611102	-0.4205868147474237	0.8951813549600673	0.14750278977861372
72														9.587164566734216	-1.613512355621355	1.5472703291271825	0.22181944269266615	-0.0562323732579752	0.9734649737105545	0.8797175261195136	0.4421553121108204	-0.17491642064239082	-0.4205867438254299	0.8951740613813375	0.147547249206359
73														9.578149850781392	-1.592446396704572	1.553453814611311	0.22193402556055153	-0.05620002703172805	0.9734407250881392	0.87973126014501	0.4420764191104276	-0.17504670688183382	-0.42049756030464863	0.8952150560776639	0.14755271989937646
74														9.563264673709524	-1.5872650974600175	1.5070363438913994	0.2219759137445225	-0.056078720890009204	0.9734381699833967	0.8797268370824894	0.442047975423155	-0.17514074209368974	-0.4204847034484405	0.895236708635001	0.1474579590196706
75														9.592991333038382	-1.7112937230719354	1.506094056084518	0.22196314903922004	-0.056125438914129244	0.9734383881763089	0.8797975230009836	0.4419107460232375	-0.17513198186088186	-0.42034352497680705	0.8953015289029069	0.14746692291558267
76														9.599750652388458	-1.6952692064169996	1.4543369061072373	0.22197450394640217	-0.05609693131911436	0.9734374422089627	0.8797478990262311	0.44200694697802145	-0.1751384965737144	-0.4204413796912492	0.895255825515672	0.14746543026611958
77														9.646770067219816	-1.6209547943979674	1.4498611277422029	0.22195537155032619	-0.05616667574888873	0.9734377831044345	0.8796867540117148	0.4421569897707103	-0.17506687640223978	-0.42057939542527495	0.8951773572495136	0.14754819962130017
78														9.654661554263932	-1.512458114085743	1.4627171549565594	0.2219515397822135	-0.056210434900044015	0.9734361309282974	0.8796737115769477	0.44219408425321105	-0.17503871860791792	-0.4206086959975296	0.8951562873933316	0.14759249978046207
79														9.643009022607382	-1.452613455147968	1.5265173962401606	0.2218524984602679	-0.05623509088886797	0.9734572838495059	0.8797540915731672	0.4420653190391478	-0.17495997274544817	-0.42049281478665995	0.8952183355224229	0.14754634681094092
80														9.608091641778003	-1.606642244098177	1.5422879498224096	0.2218484596731143	-0.0562063124298795	0.9734598663446287	0.8799519834973358	0.44164012901875194	-0.17503857626079278	-0.4200806680624233	0.8954299787718388	0.14743603846038897
81														9.557051261017351	-1.7354036836006117	1.5405812148671019	0.22177883805255988	-0.05638505083831147	0.9734653938553837	0.8801827563116175	0.4412067332286136	-0.17497123776615003	-0.4196337241973529	0.8956323713420009	0.1474794660980433
82														9.563123110256466	-1.7192713797368073	1.5922791577478286	0.22168431635889538	-0.056388924409332575	0.9734866989766465	0.8801956791316796	0.4412160987876942	-0.17488259092456704	-0.4196565623440326	0.8956275137435912	0.14744397684226632
83														9.610274911589638	-1.6442456996269668	1.5877079363116682	0.22163685902936311	-0.05640260024205679	0.9734967125807525	0.8800843032612832	0.4414743454896056	-0.17479136542640095	-0.41991513651296203	0.8954993852373426	0.14748603041251532
84														9.617055328846416	-1.6272181792877278	1.5369155965829302	0.22162632913447045	-0.056422968430207276	0.9734979295652886	0.8799600727872414	0.44174685813174597	-0.17472831376455356	-0.4201809616518252	0.895363703733994	0.1475526939811419
85														9.609642926042282	-1.6234430503256594	1.5147844478632975	0.22160125612270315	-0.05646588283368981	0.9735011491316546	0.879831016447301	0.4420390326386388	-0.17463927428045956	-0.4204643454350788	0.8952167881020264	0.14763683997614646
86														9.691840659440116	-1.6367753675826435	1.487447489979223	0.2215969949715542	-0.05645807047394552	0.9735025722092037	0.8796996159410562	0.44231891106986543	-0.1745925732186988	-0.42074143786027934	0.8950790284596815	0.14768268442487517
87														9.707983655504846	-1.6613176851216673	1.505527440904892	0.2215512700784556	-0.05646538217811181	0.9735125553078929	0.8795580849385296	0.44263860444094105	-0.1744953898469606	-0.4210612900111929	0.894920514053654	0.14773172841354776
88														9.680165828706768	-1.5756299428267984	1.5525396384830508	0.22153711257319622	-0.056473031139472996	0.9735153334727973	0.8794364866223127	0.44290371065751444	-0.17443557287207184	-0.42132264803845315	0.8947888576863958	0.14778405330123065
89														9.665125104371848	-1.4577468033342955	1.5996398157130178	0.22150188929806847	-0.05655910499637279	0.9735183514856798	0.8794776712154391	0.4428450592009909	-0.17437683153085226	-0.4212551944734386	0.8948124502840136	0.1478334872275739
90														9.655264923080006	-1.5271100325924984	1.5420122779017957	0.2214453266708608	-0.056597145200262766	0.9735290085307251	0.8796114732626017	0.44258907894499666	-0.1743518376829306	-0.4210054909385759	0.8949366851089523	0.14779278143999064
91														9.602928506562991	-1.6363655332427416	1.5694287739715058	0.2213772966996595	-0.05665610465181292	0.9735410511692014	0.8798687676591846	0.4420782193403609	-0.17434964778502832	-0.42050332246470845	0.8951854186650599	0.14771601810772866
92														9.620579391575367	-1.6804166267453546	1.5575345084906387	0.2213552576652139	-0.05672698319641645	0.9735419350399861	0.8800389555239266	0.441736834885149	-0.17435597341647602	-0.42015864463833547	0.8953494390924049	0.14770272594841588
93														9.602425293271185	-1.7476351903653184	1.5803080985025397	0.22134054123458857	-0.05682412577876317	0.9735396158017706	0.8801752424939754	0.4414693094661809	-0.1743456087778683	-0.41988082512381003	0.895475218824582	0.14773024458253559
94														9.582289835551085	-1.7762309212199354	1.5575196343577886	0.22131853929085993	-0.05689298152961131	0.9735405963897092	0.8801900394339643	0.4414584830289309	-0.17429831394201928	-0.41986140409353623	0.8954761841693311	0.1477795822775863
95														9.589615916303915	-1.7786475596446976	1.5816229902234091	0.22126423351714142	-0.05707799026359095	0.9735421110530051	0.880135684097295	0.44162821651354445	-0.17414274592314516	-0.42000394824889326	0.8953807131084163	0.14795290483395596
96														9.59348778653939	-1.7236032196800528	1.5891080964095825	0.22126126985840955	-0.057148582577605744	0.9735386432854196	0.8799870261280458	0.44195873709414085	-0.1740554755027009	-0.42031688558391656	0.8952131110610053	0.14807836262436885
97														9.589930691931567	-1.6654747766777398	1.5738434811007578	0.22132460285770175	-0.0573768536337394	0.9735108200923976	0.8798940055072626	0.44217350410832834	-0.17398026134291017	-0.420478250617396	0.8950924471425588	0.14834942475816906
98														9.577503160749085	-1.5856535669094016	1.564351269620342	0.22138687552926273	-0.05742404183071087	0.9734938781334045	0.8797215554777995	0.44252518224727955	-0.17395817860834606	-0.42080617411239574	0.8949156063544971	0.14848643484187796
99														9.578770752019077	-1.6044229983996912	1.5368293445994843	0.2214305288567618	-0.05750259885844844	0.9734793125766668	0.8796835252383893	0.4426035025232649	-0.17395124310650545	-0.42086270482709104	0.8948718291904506	0.14859001651175058
100														9.600118104636667	-1.5949298500320117	1.5319863799168216	0.22154383549900486	-0.05744329620934607	0.9734570338093997	0.8796431085542052	0.4426357715365228	-0.174073476811838	-0.4208875509271855	0.8948596769755983	0.1485928261984516
101														9.60186051348608	-1.6342166876995832	1.5781778271001339	0.2216168664098559	-0.05745709819463424	0.9734395956553894	0.879677699045083	0.4425369081715125	-0.17415002356803355	-0.42077679394831685	0.8949076861738592	0.14861737079334003
102														9.600605853663366	-1.7270899982701842	1.5149090254057833	0.22171672529856185	-0.05742556845622515	0.9734187165913558	0.8796316762107615	0.4425911374010073	-0.1742446535786088	-0.4208203986613871	0.8948828913224136	0.14864320666922226
103														9.594995337911326	-1.7628495007404688	1.5383949318973906	0.22176924708611612	-0.057427014897820816	0.9734066668185413	0.8795361424717887	0.44277451036997006	-0.17426103136524457	-0.4209923694471227	0.8947920825122218	0.14870290495057126
104														9.623844020961611	-1.6250948696602527	1.4710162766990813	0.2217790934808343	-0.05744122610183933	0.9734035849732301	0.8793731151788073	0.4431196427983451	-0.17420650523728098	-0.42132761361622045	0.8946203036541167	0.1487869426202328
105														9.662417937847133	-1.5480433405034475	1.5476402580372735	0.22187605426027165	-0.05747757146573029	0.9733793429718424	0.8792464194757138	0.4433582417489669	-0.17423892593907486	-0.42154092373698526	0.8944997474855245	0.14890752621443518
106														9.619062392884173	-1.5685507091216808	1.5597778657895784	0.2219534802571908	-0.057479411990016216	0.9733615822493726	0.8791743016884159	0.4434821691037167	-0.1742874434310972	-0.42165056605251494	0.8944381939990844	0.14896683276236128
107														9.62033461078581	-1.587901200626323	1.5317177516539575	0.2219941943992016	-0.057566078733378934	0.9733471755916856	0.879186710762742	0.4434558973318304	-0.17429169440857273	-0.4216032557645158	0.8944456460293623	0.14905596609286315
108														9.623537987089957	-1.6453036439031372	1.5497456880222402	0.22204733620010073	-0.05762110313198143	0.9733317979806745	0.8791494206287799	0.4435246692467243	-0.17430480193518494	-0.42165302879799127	0.8944080032308728	0.14914103077973853
109														9.617480618750355	-1.6611294765394748	1.4990615655620845	0.22203309620781986	-0.05770088424003783	0.9733303201618078	0.8790315800498936	0.44379422691447923	-0.17421298870166857	-0.421906133474446	0.8942691385233519	0.14925790572477404
110														9.65415765987411	-1.5455377896711306	1.5297635220862835	0.22205659449503362	-0.05775050360220918	0.9733220166907559	0.8789053738181745	0.44406160278117435	-0.17416841507273945	-0.4221566210718526	0.8941331960446981	0.1493640352162814
111														9.64380793069356	-1.5039539732562381	1.5653592999104469	0.22204716299547034	-0.05784036957018651	0.973318832168395	0.8788595260070986	0.44417834514014254	-0.17410207136947942	-0.422257020015348	0.8940693985125256	0.14946210118692094
112														9.619679368445803	-1.586757533679389	1.537009073794894	0.22207583399452582	-0.05784688856443021	0.9733119034713646	0.8787753514054099	0.44434684062142205	-0.17409700454648774	-0.4224170992253215	0.8939852474807264	0.1495131150397516
113														9.569164093825425	-1.603600720289417	1.5255479927429771	0.2220870415128127	-0.05795098259857112	0.973303154011096	0.8787916278950058	0.444326767382353	-0.17406607518179773	-0.4223773440109365	0.8939884828136264	0.14960605556881182
114														9.602060837694179	-1.5419235655020849	1.5492748460552634	0.22201894276873493	-0.057945823075531644	0.9733189973692864	0.87874042912623	0.44445995377911907	-0.173984504211476	-0.4225196412841692	0.8939226091081727	0.14959786647654613
115														9.637329341558683	-1.6291375776682708	1.5271097948587724	0.22197102746461211	-0.05809779082191324	0.9733208667587057	0.8787669422461121	0.44444913081755816	-0.17387820832679346	-0.4224896734616399	0.8939181264618873	0.14970924821515413
116														9.642765042504594	-1.5928267795341438	1.5053815418074334	0.22191707600360452	-0.05820253742515269	0.9733269111738787	0.8786969863815853	0.4446361926956607	-0.17375345253843694	-0.42266348020846317	0.8938182817454454	0.14981475800363944
117														9.623694707092834	-1.5285198658138626	1.5466250458294204	0.22182242221962772	-0.05831738699992295	0.9733416128852805	0.8786758878932736	0.44473700904235297	-0.17360206457018335	-0.4227570189075343	0.8937606363907308	0.14989472239826013
118														9.641350657786875	-1.571806956247146	1.5358308653903585	0.22177583134599804	-0.05835197381767071	0.9733501568204392	0.8787129431247804	0.4446823984425103	-0.1735543952206442	-0.42270444073344965	0.8937855512744648	0.14989444324998563
119														9.609578519244591	-1.5404909177657935	1.5756163478505913	0.22164414675499694	-0.058326630067684626	0.9733816704839872	0.8787768868603676	0.4445923000065976	-0.17346143633339595	-0.4226405746367127	0.8938320261658739	0.14979737538074006
120														9.636135962672451	-1.6066587184125138	1.5577578939677534	0.22158582336605015	-0.058287430035335985	0.9733972972959528	0.8789290649243667	0.44428533079558563	-0.1734769254714743	-0.42235461606849767	0.8939872036778451	0.14967784721160005
121														9.628455275819707	-1.7148740806763203	1.544925733653632	0.221483553772508	-0.0583048367133458	0.9734195300198838	0.879107912310708	0.4439482847632475	-0.17343355779225672	-0.42203591543968155	0.8941534915614888	0.14958348708125951
122														9.615861932316875	-1.7466370615435305	1.5441798107435103	0.221441368566412	-0.05831744326207616	0.9734283723514587	0.8791301018220898	0.44391943959136787	-0.17339491118014105	-0.422011829641916	0.8941669905360304	0.14957074806934006
123														9.595883207373111	-1.774848150537652	1.5212905826604022	0.2213344541624419	-0.05838916674589251	0.9734483882606899	0.8790724369031855	0.4440946821331918	-0.17323845986995834	-0.4221880032375502	0.8940752868230619	0.14962176116645132
124														9.563656936680186	-1.7235018787058158	1.4874659073395862	0.22130215560750005	-0.05844333136375607	0.9734524810911829	0.8789215353689996	0.44443589198316485	-0.1731290633652494	-0.4225189825180329	0.893902184210462	0.14972172345952822
125														9.541123125794023	-1.6021548638269318	1.5115784584695133	0.2212448502581372	-0.058458926853297344	0.9734645705445142	0.8787385679342492	0.444847068494045	-0.1730017770923742	-0.4229293622570079	0.8936966149222092	0.14979023672277583
126														9.575845432597477	-1.5783630315066692	1.581775311620834	0.22123103092112295	-0.058442188647535975	0.9734687162634776	0.8786352955211107	0.44506743714663	-0.17295951507870666	-0.4231510940811897	0.8935879850231967	0.14981209764259928
127														9.600782199809494	-1.6252003880885342	1.593969746549525	0.22122227144779438	-0.058445056436241205	0.9734705347331489	0.8785590306865358	0.44523224566654174	-0.17292274869970992	-0.42331399246258455	0.893505692649405	0.1498427208391987
128														9.576773097526385	-1.7084409104608838	1.5650878611316394	0.22123151136795793	-0.058360229926574914	0.9734735240060548	0.8784700535503664	0.44540147252440265	-0.17293898718423928	-0.42349378200047494	0.8934268922726758	0.14980455524089753
129														9.586075766404798	-1.6191850732890534	1.5480901311324886	0.22124517555597878	-0.058366682200390096	0.9734700317432088	0.878378305960021	0.4455910031754892	-0.1729167704644809	-0.42367690981691336	0.8933319586234341	0.1498528871594113
130														9.66343190289102	-1.5569823058929346	1.5318768395693516	0.22126897273461055	-0.05830749078985803	0.9734681701127987	0.8782960005404497	0.44574508028482973	-0.17293773109567906	-0.42383508247857543	0.8932589545700964	0.14984079197841216
131														9.649140834695348	-1.5706440015864742	1.5602820439904945	0.22132166682334542	-0.05811455620142153	0.9734677283567484	0.8782182368813845	0.44585492418954276	-0.17304945820455464	-0.42396868776301033	0.8932167065910989	0.1497146180673824
132														9.650553658165087	-1.590631306117199	1.531021738418374	0.2213647405343755	-0.05801304348992181	0.9734639892842393	0.8782036983866026	0.445851368202948	-0.17313238175353757	-0.42397631512649625	0.8932250804005653	0.149643041786654
133														9.653836680249613	-1.6486250215719707	1.5481530965426662	0.2214358924136084	-0.05805413307185875	0.9734453570613317	0.87825186181744	0.4457305172830255	-0.17319922972348006	-0.4238393714193966	0.8932827232158256	0.1496868853271034
134														9.64730109100772	-1.5543156850698556	1.5885181890758866	0.2215281234368974	-0.057997632851401026	0.97342774005581	0.8782119998513762	0.44576987577633886	-0.17330003221983142	-0.42387377112009883	0.8932667532344312	0.1496847811985059
135														9.623685367572458	-1.527100860944111	1.5480841753204786	0.2215604525241463	-0.057960823519060456	0.9734225746377001	0.8782287650290959	0.4457158559872418	-0.17335400773281973	-0.42382213504342325	0.8932960979756677	0.1496558692089343
136														9.649985799349192	-1.593984148956093	1.5311139754907135	0.22161730379232586	-0.05791970358978754	0.9734120805680868	0.8782328626931952	0.4456785487667563	-0.17342914995719172	-0.42378391846026425	0.8933173787099576	0.1496370654257656
137														9.619549544910402	-1.582554184974939	1.5421466553957024	0.2216169382078837	-0.05783532782276318	0.9734171806347971	0.8782168621690323	0.44569737877043775	-0.17346178126359807	-0.42381726687493804	0.8933134508182416	0.14956604857340822
138														9.65242041903072	-1.5216009286722594	1.565093711401102	0.22159248808300802	-0.05775975437654196	0.973427234054782	0.87817969279432	0.44577142929464186	-0.1734596782779389	-0.4239070610273623	0.8932813910515396	0.1495030434879855
139														9.622127861531913	-1.5097089944013737	1.5757322634246462	0.22155761699533982	-0.057675276591489855	0.9734401804021869	0.8781755743406398	0.4457781479422771	-0.17346326253314154	-0.4239338191072216	0.893283496594026	0.14941456331267378
140														9.613404904119573	-1.4879828483396258	1.5805993315340683	0.22153541191991602	-0.05757266491610452	0.9734513082429606	0.8782034935633805	0.4457093662639535	-0.1734986591235188	-0.4238875855206747	0.8933244366292927	0.1493009235149265
141														9.61102851130799	-1.561571788310784	1.5449656663721505	0.2214686010226105	-0.05743161242424322	0.9734748423330928	0.8782367921172033	0.445639143281858	-0.17351049232451726	-0.4238535073970398	0.8933685487352707	0.14913363268513363
142														9.605716846547185	-1.5970216425999988	1.5668765464359602	0.22144462152586053	-0.057335074707094535	0.9734859879862681	0.8782568624611864	0.44558863993609055	-0.17353860521433806	-0.42382444848911344	0.8933999402105627	0.14902813054810105
143														9.621968143442148	-1.6218275552522006	1.5838634854691855	0.22130997270006103	-0.05732490767498083	0.9735172062904456	0.8782281959354405	0.44569781240594897	-0.17340327528779187	-0.42395416243679046	0.8933461339126101	0.14898172094560147
144														9.642198893379128	-1.59187304206967	1.6071467042549825	0.22123158158239092	-0.057335535835333296	0.9735343977698114	0.8781870023534915	0.44581590023133244	-0.17330831485625692	-0.4240803888509144	0.893286527062511	0.1489798790463176
145														9.617424060237061	-1.543402730505665	1.5957000203809153	0.22104337178199426	-0.057395468138647876	0.9735736171591713	0.8781361655725821	0.4460041206204315	-0.1730814811095583	-0.42428375234591525	0.8931887172522621	0.148987290963119
146														9.595995588008211	-1.5523686861348476	1.6015116360708752	0.22100078123085604	-0.057408207695953006	0.9735825349627476	0.8781586352379808	0.44597501951444984	-0.17304246104945786	-0.42425943248479275	0.8932024292724603	0.1489743410438763
147														9.617654560479195	-1.5418770678962082	1.5957856200540135	0.2208491124924368	-0.05741247801294469	0.9736166991582043	0.8782128946808201	0.44591827303787857	-0.17291328863696886	-0.4242260967074501	0.8932304860109344	0.14890103335112267
148														9.602627704786334	-1.6468073446761886	1.5603209669776905	0.22076230356778423	-0.05733723692480608	0.9736408201104116	0.8783030389167953	0.44574753313573057	-0.17289565793545514	-0.42408463442215005	0.8933205348391137	0.14876372165885046
149														9.627786204339598	-1.6936639161089033	1.5711138167477414	0.22066433603620916	-0.05729446183887482	0.9736655459880941	0.8783541730322919	0.44566885914063137	-0.17283869563569237	-0.42402971301367365	0.8933625314702214	0.14866805254209725
150														9.648021955043632	-1.6642430037030311	1.5937763650313745	0.22061426027628828	-0.057243579927440336	0.9736798861637422	0.8783322786093838	0.44572467555974504	-0.17280602405590173	-0.42410111590939603	0.8933379462187039	0.14861210357892873
151														9.623644895148109	-1.6358467878936795	1.6565638318993736	0.2205324904982902	-0.057234084040158895	0.9736989679868757	0.8783013892499401	0.4458186035811428	-0.1727207061778821	-0.42420760280344805	0.8932916837881371	0.14858626248313866
152														9.653631558945802	-1.6285669274469707	1.570121163058036	0.2204875850529659	-0.05716496785015662	0.9737131976553475	0.8783031118798141	0.4458194892578266	-0.1727096600081342	-0.4242273783005357	0.8932956674296486	0.14850583170930692
153														9.657140634382563	-1.6851465715334906	1.5874422874348795	0.220419974065157	-0.05732200893930173	0.9737192728524368	0.878383222908839	0.4457038635210992	-0.17260063659977198	-0.4240966266611851	0.8933433009395259	0.14859272499377413
154														9.66741702131681	-1.725177857370782	1.5541997797634939	0.22039361532503743	-0.057488297906715946	0.9737154358064517	0.8783572582882332	0.44579785558097784	-0.17248999614986305	-0.42416409694402185	0.8932857144067571	0.14874626482864084
155														9.588970742682674	-1.6559344531859979	1.5896796288474493	0.2203594622025503	-0.05766244566849704	0.9737128682405971	0.8783677675897736	0.4458193005086809	-0.17238102028154945	-0.4241600785990594	0.8932637872730977	0.14888933497521448
156														9.585934574875965	-1.6168461714693072	1.6486343325804413	0.22033096633867053	-0.05778520527176445	0.9737120392210254	0.8783714296816597	0.44584393728689575	-0.1722986218851325	-0.4241672981162798	0.8932435578475888	0.14899009890766732
157														9.594615185076572	-1.638488943249071	1.6441919188551608	0.2203676105124737	-0.05794258239001937	0.973694394244415	0.878424280762971	0.44574681027174323	-0.17228048089851433	-0.4240387944552709	0.8932818358606325	0.14912633073464301
158														9.60316267132891	-1.660722577162331	1.639950732443561	0.22046197541357718	-0.05805628316403938	0.9736662597532693	0.8784184226583589	0.4457440930734152	-0.17231737644404793	-0.42400187750898527	0.8932758092970703	0.14926733197026096
159														9.61360728971239	-1.5911121867723834	1.5955597345148753	0.2205868876106732	-0.05820006834697106	0.9736293838307493	0.8784482520883004	0.4456600994799474	-0.1723825517114007	-0.4238750917631828	0.8933083609683342	0.1494325225873609
160														9.6563595384445	-1.5716631457012542	1.586012117005802	0.22069116855111076	-0.058298272836319054	0.9735998764933402	0.8784323810997623	0.44567202036296055	-0.17243260161871649	-0.4238537011268715	0.8932960100940219	0.14956696958604748
161														9.723705006226098	-1.580256994718022	1.5132897875641302	0.22075915188719109	-0.05842033630741039	0.9735771470016009	0.8784643591462514	0.44560085455373016	-0.1724536115329306	-0.4237520106947147	0.8933235375420902	0.1496906500268868
162														9.735703308161716	-1.659645441601735	1.5261849791131543	0.2207711196082811	-0.058548061176806276	0.9735667605661884	0.8784981276047255	0.44554781241465463	-0.1724186377614279	-0.42367576345820956	0.8933416319555201	0.14979845150451504
163														9.676246389849988	-1.6542878091494833	1.5215248709301146	0.22083062946406498	-0.05878032070093597	0.9735392683342563	0.8785452328241217	0.44546737777262546	-0.1723864531289796	-0.4235470540241235	0.8933664921176947	0.1500140119749158
164														9.638335438561413	-1.6384238041596253	1.5119208237539112	0.22082004936823296	-0.05902565045147595	0.9735268246873279	0.8785271447547762	0.4455529016428849	-0.17225756229154637	-0.4235900869071789	0.8933076650440126	0.1502426498953699
165														9.620502457338745	-1.5930065953749337	1.5257400461928725	0.22081295111036153	-0.05938519619834398	0.973506568593359	0.8785967889569042	0.4454722437983316	-0.17211090157191172	-0.4234493158059764	0.8933240612889386	0.1505416834823049
166														9.597205221380978	-1.582894448489418	1.5624175559290452	0.22082834226108738	-0.05960979275615952	0.9734893506668614	0.8786020199631964	0.4454951669837476	-0.17202484329512885	-0.4234304355745	0.8932976708811518	0.15075124353549663
167														9.624275016964654	-1.5561387234231625	1.610869318183541	0.22084518406405507	-0.05988008708985487	0.9734689413873585	0.8786875209093832	0.4453562180975801	-0.17194789792242998	-0.42324419106921635	0.8933488759560464	0.15097066123665415
168														9.634401623452675	-1.5969547494746261	1.5783280056140145	0.2208933373757721	-0.060059627275436345	0.973446955244367	0.8787474815227019	0.44524338883154446	-0.17193367447742908	-0.42309454879554015	0.8933930634795288	0.15112854431298028
169														9.601431339998095	-1.657805474017827	1.5567968524272435	0.22090137675712473	-0.06036100395891214	0.9734264897504483	0.8788548586943377	0.4450668032160751	-0.17184201472393162	-0.4228672594280187	0.8934607377361896	0.1513644311842814
170														9.575580974841703	-1.702131982863193	1.4834400886768144	0.22085932254424478	-0.06055027175729971	0.9734242776073619	0.8789032337845677	0.44501366677327614	-0.17173218110777383	-0.4227886768686301	0.8934743986120255	0.1515032466205012
171														9.588192674249102	-1.669165296685182	1.4852426640192282	0.22087468660219975	-0.060754681336530114	0.9734080549872586	0.8789465900219093	0.44495235894368	-0.17166912989618527	-0.42269050699919775	0.8934910558960019	0.15167883282320563
172														9.586476555299345	-1.6494221566484921	1.5156578057899806	0.22087266367382558	-0.06090656642097564	0.9733990222968364	0.8789362921229336	0.44500166030916893	-0.17159404625823405	-0.4227129768895427	0.8934561614812956	0.1518216937077525
173														9.557528210279076	-1.6557589411780784	1.4995733443342085	0.22083715253501202	-0.061101485020824575	0.9733948636542511	0.8789558700507528	0.44500785565568246	-0.17147765716866942	-0.42269082148013615	0.89343976681866	0.15197977662658446
174														9.564665436264207	-1.6583416529462902	1.523952219576826	0.22086636017203454	-0.061175969720845214	0.9733835583535773	0.878942140451481	0.4450391211568092	-0.17146689003578636	-0.42270411008520686	0.8934190961517947	0.15206430859470021
175														9.586056478886418	-1.648094585907871	1.519753303036968	0.22090117919433788	-0.06133204596159231	0.9733658352175285	0.8789446379937991	0.44504837053802543	-0.17143007677592242	-0.4226807215529249	0.8934037877799792	0.15221918278549912
176														9.577004517156526	-1.625933605922525	1.526748018189327	0.2209588142639115	-0.06139077355020406	0.9733490511229739	0.8788743801553769	0.4451857369401574	-0.17143361260718637	-0.4227966725337229	0.8933313117471907	0.15232249061269754
177														9.58069772859583	-1.5718575329098512	1.5334508739801562	0.22099589435227351	-0.06149656064512066	0.9733339548727666	0.8789018174304519	0.4451325901659302	-0.1714309554590996	-0.42272025028012145	0.893350519225792	0.1524219137857823
178														9.611005018834957	-1.5842946471794863	1.522587097113417	0.22105153876570974	-0.061427835951299414	0.9733256588519861	0.8788866624882569	0.44513179378870305	-0.17151070129500617	-0.4227226652423138	0.8933556442586525	0.1523851736936471
179														9.598217251400742	-1.6171633594351074	1.5221129083161449	0.22107852747467122	-0.061409635086802805	0.9733206775817194	0.8789565673368456	0.44497076434040134	-0.17157031100324183	-0.4225631756614165	0.8934371134001684	0.15234988340695937
180														9.592516059554713	-1.6340546297958585	1.469599979978925	0.22111683885925223	-0.061268127315034115	0.9733208926906891	0.8789258447425974	0.4449964862572393	-0.17166096429363947	-0.4226070314327519	0.8934340175939235	0.1522463569008388
181														9.55820092274039	-1.6770629069852856	1.4741787696853368	0.2211804529126622	-0.06122789640394277	0.9733089704463322	0.8789597107047826	0.4448940529003138	-0.17175304553835236	-0.4225032949068163	0.8934877874911792	0.15221872222891308
182														9.578154528294895	-1.6487710660520472	1.4966981519227116	0.22122675644624964	-0.06103468486895258	0.9733105822270816	0.8788224752011898	0.44513278440326887	-0.17183672870096267	-0.42276444897073245	0.8933820971411627	0.1521139349110803
183														9.594981716249034	-1.5822596751917277	1.5766519184565975	0.22126807112226135	-0.06086596000987138	0.9733117566401376	0.8786938667542401	0.445359258469878	-0.17190758977904919	-0.4230100817123811	0.8932807318011717	0.15202632983285344
184														9.656308066511517	-1.4957044632220373	1.5421039508958168	0.22130696767915659	-0.06071074630450696	0.9733126072027463	0.8785941082785291	0.4455279391373186	-0.17198037197980104	-0.4231969032907894	0.89320717682473	0.15193854123915607
185														9.658661318771049	-1.4233962871876267	1.5755360597433925	0.22134488821087278	-0.06056021416917362	0.9733133621412482	0.8786612411068957	0.44534545344812754	-0.1721099952634123	-0.4230376624361079	0.8933083944265082	0.1517868525522817
186														9.598989260031328	-1.5311810138052482	1.5786841943706118	0.22135705476254713	-0.060298798934832754	0.9733268254568286	0.878796335538897	0.4450092576138545	-0.17228975965324445	-0.42275058243633135	0.8934936012557577	0.15149630214879822
187														9.609012444285465	-1.68496246197135	1.5534163671209555	0.221301964564189	-0.060227843242234846	0.973343745743722	0.8790661311956736	0.44444665596396155	-0.17236562008452488	-0.4222181633524323	0.893778371242469	0.15130117525801973
188														9.576472819886341	-1.746893290595795	1.5278438172748152	0.2212485381571024	-0.060031748883556	0.9733680051703606	0.879110513624792	0.4443379960976166	-0.172419401629599	-0.4221537506616515	0.8938455875317259	0.15108367367907136
189														9.60057763314399	-1.6640041707646105	1.5554479044229559	0.22118444258572723	-0.05985811514890399	0.9733932650315913	0.8789712436028474	0.44462601680218694	-0.17238694295649304	-0.42247721273141453	0.8937139985663434	0.15095791959765847
190														9.639189550917926	-1.586943596875644	1.6299124432963954	0.2211947634325478	-0.05970125479192384	0.9734005531158737	0.8788208627161982	0.4449123482708351	-0.17241488801982263	-0.4227845407353207	0.8935819842255106	0.15087898986546472
191														9.627056340701168	-1.508185538710424	1.617460372337791	0.22121501996650925	-0.05953401943047498	0.9734061924354444	0.8787233118499963	0.4450812633247545	-0.17247611500905058	-0.42297666147506485	0.8935090204176412	0.15077259127479373
192														9.626241466727851	-1.6013835841215673	1.552996764756093	0.22125159561618168	-0.059272223544818425	0.9734138559489212	0.8786215982990219	0.4452359760011889	-0.17259493815503746	-0.42316878244946904	0.8934493433823331	0.15058702590167627
193														9.613615327528173	-1.6345621632678538	1.5509678020818705	0.22123652880805755	-0.05897110267604183	0.9734355691930174	0.8785282500662128	0.44538524759680576	-0.17268495898233333	-0.42337041955781435	0.8933948680579624	0.15034326579909252
194														9.698541920677801	-1.5763546407418696	1.5555549165237714	0.22124420933129324	-0.05868270706949169	0.9734512518500185	0.8783942906361086	0.44561377328843427	-0.17277683650747966	-0.42364427296407464	0.8932998964214879	0.15013602178724644
195														9.68692647946345	-1.5168833978017666	1.6166965855378368	0.2211976177553227	-0.05852455509700816	0.9734713608268438	0.8783683250437915	0.4456578838655359	-0.1727950696873512	-0.423722432093386	0.8932882664622823	0.14998457767942702
196														9.658241979608158	-1.5248387071658929	1.597108102015449	0.22119456236212293	-0.05827940993155645	0.973486762087425	0.8783825633557568	0.4455854804123483	-0.17290937521796423	-0.4236945102004495	0.8933404110548937	0.14975270282126724
197														9.624028402313563	-1.5681374079960362	1.6006747829757395	0.22118627684571496	-0.05819851696776934	0.9734934840859915	0.8785279537806221	0.44526752933683056	-0.17298977352522088	-0.42339729021471456	0.8935042025312621	0.14961609103906492
198														9.61469137603724	-1.6583413593721184	1.6164391337354023	0.22116339652119882	-0.05808639858807879	0.9735053786899555	0.8786441398442482	0.445010912031843	-0.17306000025987667	-0.42316808428397357	0.8936393335522189	0.14945739851803147
199														9.576086142118092	-1.7359410403979707	1.5403586022548197	0.22109791969226034	-0.05811463975678832	0.9735185661063136	0.8787522835606375	0.4448120767424994	-0.1730220810214383	-0.42297769922859885	0.8937364852292666	0.14941539721634228
200														9.56291603644522	-1.6567301070446745	1.6318192156741347	0.2211049353483343	-0.058051058025319624	0.9735207662021129	0.8787251842276674	0.44485539676557484	-0.17304833594286295	-0.4230303277173634	0.8937190557611956	0.14937065039912012
201														9.617328109011092	-1.5859521659858584	1.6492808837990898	0.22112646479267817	-0.058057849997113775	0.9735154711775283	0.8787408410918847	0.444815438308088	-0.1730715460146771	-0.4229865491542485	0.8937385030849326	0.14937826929672338
202														9.637383079573098	-1.5575774843510115	1.6720348340442452	0.22118038648741123	-0.05793260882927387	0.9735106827701039	0.8786864043810951	0.4448879165153096	-0.1731616138019323	-0.4230714353263549	0.8937105541353427	0.1493050770670465
203														9.626007368320497	-1.609448117753648	1.6429132001625937	0.22119481732191124	-0.057849822810267015	0.973512326984485	0.8785914214116681	0.4450683600105225	-0.1731798750991823	-0.4232611097322205	0.8936260699634745	0.14927317263957582
204														9.658823122153885	-1.5488790390960634	1.66600686365894	0.2212434309996683	-0.057742785591942014	0.9735076347679958	0.8785134032121771	0.4451957437854816	-0.17324823257929678	-0.4233976199933738	0.8935695386635414	0.14922444490287728
205														9.595152396780664	-1.5795832910793555	1.57867357040966	0.22122547881729832	-0.05761877630217088	0.9735190620319141	0.8784940539020016	0.4452212492739847	-0.17328080232310727	-0.42344714520337073	0.8935648358190652	0.14911203642483967
206														9.63830064728338	-1.5598894720020078	1.5671929039673576	0.22121223783220229	-0.057600189249072065	0.9735231707729101	0.8785560669035312	0.44509203082977533	-0.173298359481054	-0.42332538683649423	0.8936304058671558	0.149064799900698
207														9.618189078544988	-1.5889211215586792	1.5440841952041489	0.2211549373507111	-0.0576335256295864	0.9735342163524134	0.878626757885846	0.4449702447209217	-0.17325271033958134	-0.4232085939727724	0.8936889045056493	0.14904572436364025
208														9.645556873277982	-1.5626804098193023	1.5909016715285693	0.22115717835137513	-0.05773244821802198	0.973527845973813	0.8787467742865227	0.4447334775296964	-0.1732519571184541	-0.4229581647689163	0.8938003683077653	0.14908820365211276
209														9.622780163318765	-1.6649544455979575	1.5341551386392789	0.22117584431695056	-0.057882661737884644	0.9735146857448134	0.8788717079583335	0.4444890752852607	-0.17324544121695234	-0.42268873517174166	0.893912221318286	0.1491816802986272
210														9.606864955106781	-1.6589373253219026	1.5926785280549072	0.22122461219168238	-0.05796543800614046	0.9734986794841567	0.8788885617966076	0.44444980480307156	-0.1732606907339429	-0.4226281662451418	0.8939263834384064	0.14926839614935555
211														9.623397073774942	-1.5729336205882487	1.5997642694125107	0.2212913725730843	-0.058128487312067156	0.9734737836159384	0.8788923747663688	0.44444562528066045	-0.17325206996285802	-0.4225852837028908	0.8939178738182233	0.1494406667077396
212														9.63449558556953	-1.5219517203983384	1.62968791506933	0.22132942662752247	-0.058159754576542266	0.9734632647698261	0.8788493060721483	0.44452796074191503	-0.1732593124052439	-0.4226549208577083	0.893874899002221	0.14950077862183042
213														9.630404714846803	-1.575940648961059	1.6246730847533375	0.2212963772384682	-0.05825100139305295	0.9734653225759182	0.8788334655433163	0.4445901323272652	-0.1731801203324153	-0.4227051611492987	0.8938380362649219	0.14957911506562024
214														9.609964181496427	-1.585469613364639	1.527144013627522	0.22123298753247717	-0.05829260380082674	0.9734772403962892	0.8788381829822565	0.44461139643371367	-0.17310157218728328	-0.4227285338842186	0.8938247470860174	0.14959247352964017
215														9.61552904369888	-1.5494479608823648	1.5045267589422004	0.2211046658589915	-0.05840116085519065	0.9734998875943184	0.8788859206250332	0.4445779753863771	-0.17294496907524642	-0.4226964221074883	0.8938342845360745	0.14962622271985668
216														9.58823493352225	-1.5748477149512308	1.4583047146582437	0.2210403650657899	-0.05844562812213694	0.9735118209682879	0.8790471291661999	0.44426899658670255	-0.17291964427591033	-0.42239472264251277	0.8939849927293265	0.14957784280601666
217														9.611070269102111	-1.7139446934843836	1.510298914375657	0.22098400964990567	-0.05853230061547643	0.9735194077488698	0.8792142881084251	0.4439516336840624	-0.17288488232129456	-0.4220761815893503	0.8941369675468698	0.1495686471191146
218														9.595294993739317	-1.7073900837243876	1.5683707575462078	0.22096426006648176	-0.058675663633989295	0.9735152604198778	0.8792204673163453	0.44397142517138066	-0.17280261422594212	-0.4220736495273057	0.8941177439959479	0.14969066185402832
219														9.622556222444501	-1.6803194471320917	1.6164497761777017	0.2209431177523559	-0.05887642511062863	0.9735079379666415	0.8791071320775654	0.44425498665387897	-0.17265038998948395	-0.4223207182322787	0.8939636868460348	0.14991376705432355
220														9.617584378204493	-1.6028903696565404	1.6298518039658811	0.22093430648882112	-0.059001458587322475	0.9735023677941791	0.8789468300548353	0.4446196121295573	-0.17252788309812223	-0.42265884842608104	0.8937741484258377	0.1500908706511111
221														9.59805460412347	-1.5194749533009568	1.596707030411895	0.22089837874900825	-0.059209577651434864	0.9734978850415639	0.8788983129842225	0.4447725131687383	-0.17238087760262577	-0.42277850193635286	0.8936843052464906	0.15028872498145068
222														9.617806935819766	-1.4706274416008835	1.545732116895642	0.2208492190072373	-0.059189036951686536	0.9735102877569528	0.8788968933267253	0.4447902750363647	-0.17234228190930378	-0.4228071349498778	0.8936768258927871	0.15025264555963347
223														9.602748086824338	-1.5757314759670078	1.5105140574191889	0.22074627363830487	-0.059171742535160554	0.9735346873944225	0.8790095200986713	0.4445876181726046	-0.1722907813654423	-0.42262672212095975	0.8937788063346342	0.15015358502656553
224														9.615022723374597	-1.655190547448	1.5212338350007533	0.2207313330239966	-0.05911399189191413	0.9735415833871983	0.8791394772446637	0.44430804785971484	-0.17234888498934253	-0.4223641298351813	0.8939216378238602	0.1500421516070672
225														9.68465959209459	-1.7016507091557973	1.4924642880096664	0.22064295516749738	-0.05910564506988847	0.9735621238810729	0.8792666526068492	0.4440704405921951	-0.17231249927326658	-0.4221455198725902	0.8940402488216768	0.14995063700556394
226														9.619979173228504	-1.731874924945873	1.5087003297628563	0.22065586232552714	-0.05911624794590703	0.9735585548133077	0.8793145575001817	0.44396600709227013	-0.17233715070989747	-0.42203897851932787	0.8940914124267969	0.14994547954179221
227														9.674296405360106	-1.6605019439977493	1.5271451648849992	0.2206165182064147	-0.05925263305665779	0.9735591802095712	0.8793249574240598	0.44398286110368923	-0.1722406406669405	-0.42203787880432564	0.894074015125166	0.15005227199982707
228														9.655086050514612	-1.5969184661368814	1.5680597908548992	0.22062544737109108	-0.059296337779485786	0.9735544958030071	0.8793002171901365	0.4440396542466654	-0.1722205374102666	-0.42208475454781014	0.8940429127186476	0.1501057300567567
229														9.591859114003643	-1.6456505990783115	1.5565289132991638	0.22056541490724912	-0.05940116630786868	0.9735617079507897	0.8793083162975028	0.44406352466016674	-0.1721176079209828	-0.42209925685417254	0.8940240978338645	0.15017699509412497
230														9.570321710927967	-1.6551454308285622	1.5624189725348152	0.22052349173239882	-0.05940602763787178	0.973570908292991	0.8793009846512314	0.44409560715028573	-0.17207228161791266	-0.4221364329047256	0.8940078386625633	0.1501692925479996
231														9.590435911163222	-1.6253733700578326	1.5859438152971304	0.22044594805062698	-0.059502907969611385	0.9735825532183804	0.8793209895097394	0.4440993736316332	-0.1719602970095253	-0.42213526433558407	0.8939995247667367	0.15022206336346064
232														9.556732780855299	-1.5556681406152015	1.5800466583403994	0.22042371527695512	-0.05951524945663733	0.9735868327096551	0.8793438865356014	0.44406137572491156	-0.17194133825744873	-0.42209917668240865	0.894017577943193	0.15021602901361622
233														9.568616434695649	-1.6159687348246936	1.5166879029958964	0.22040320645621775	-0.05950123777190852	0.9735923321839742	0.8794402558955188	0.44386240479266986	-0.17196221073856266	-0.4219090694619442	0.8941173123898677	0.15015648101389928
234														9.602257761180898	-1.685884537951101	1.5227037020597671	0.22050474555287147	-0.059470137301612325	0.9735712403096092	0.8794417286759469	0.44381576531877015	-0.17207501944784626	-0.4218529400776124	0.8941425329464212	0.15016400275709424
235														9.63973830578259	-1.7015740364395033	1.5351513887834751	0.22055057518007365	-0.05958260318028091	0.9735539826768721	0.8794558064330222	0.44378863258375895	-0.17207304879230584	-0.4217996305344286	0.8941485128253013	0.15027810450401918
236														9.682738722227787	-1.681626548516796	1.5248759403962515	0.22059627816805155	-0.059562765130202644	0.9735448418375234	0.879306724871007	0.44408390579944806	-0.17207314783699018	-0.4220864433442839	0.894003222376716	0.15033719674458929
237														9.710023239447995	-1.6550423720109217	1.5720486170596766	0.2205389961293757	-0.05957886849873778	0.9735568343012425	0.8790945558497112	0.44455724754842774	-0.17193491654566523	-0.4225580588057055	0.8937668667390708	0.15041766803729492
238														9.687541882373598	-1.5334839139292662	1.5957376575587983	0.22048868232514418	-0.059646082701476144	0.9735641148814441	0.8789032351833923	0.4449923031583599	-0.17178752374367762	-0.4229820849051268	0.8935458549779001	0.1505389016205615
239														9.664189152158825	-1.504102556691528	1.5562001095774425	0.22040199635947988	-0.05974769858186674	0.9735775123301312	0.8788723350295295	0.44510778520310074	-0.17164637564287022	-0.42309145432222894	0.8934815454533805	0.15061324381919566
240														9.612282293823847	-1.5012282225645321	1.5733771216208636	0.22036261033789067	-0.059775362703851254	0.9735847297378355	0.8788926351424777	0.4450844536355216	-0.1716029283674398	-0.4230698002190448	0.8934913178904382	0.15061609806732268
241														9.631504389670317	-1.5643382412345839	1.5332422851092258	0.22028691252087645	-0.059755340961068326	0.9736030892507719	0.8790016385050521	0.44487883750759644	-0.17157779414400814	-0.42288272094926477	0.8935950532341348	0.15052602817463218
242														9.630941706970845	-1.676019120078841	1.5444826437831156	0.2203071232284025	-0.059745952129347246	0.9735990923675839	0.879119616372602	0.44462025906181524	-0.17164359976618193	-0.42262687037588426	0.8937243682679586	0.15047684871874323
243														9.596542220598373	-1.7187947150470504	1.549691602105694	0.22034500094468895	-0.05977832894381202	0.9735885331839991	0.8792458690683094	0.44434474357758685	-0.17171036829872072	-0.4223443882484989	0.8938592172393003	0.15046899172702416
244														9.605289781183814	-1.7411613677479265	1.5441738877676094	0.22035105732347005	-0.05977512797254292	0.9735873590039544	0.8792124064314505	0.44441273279349197	-0.17170575793501558	-0.422410885173958	0.8938256300906158	0.1504818496685461
245														9.610699957500263	-1.705799318302142	1.521833121313872	0.22032811557686657	-0.059816564707376674	0.9735900061488697	0.8791020978550088	0.44466192634162627	-0.1716253850952058	-0.4226523666481362	0.8936989145393224	0.1505563918203646
246														9.601133709347454	-1.5716430972895972	1.6204722082531504	0.22033424045350072	-0.05988366785934657	0.9735844949502286	0.8789740956523591	0.44494202614108114	-0.1715550423204989	-0.4229153126287788	0.8935550009356906	0.15067215617665206
247														9.62653960507506	-1.5068330138722357	1.6217906624047602	0.2202889545332894	-0.05996739327741968	0.9735895892285114	0.8789027386651307	0.44512435276773765	-0.17144762039770434	-0.4230871688878819	0.8934585733634289	0.15076148449064508
248														9.636789297743974	-1.5480202213142888	1.5881163639594058	0.22033595562011238	-0.05997306404831537	0.9735786040426466	0.8789377245143429	0.4450339754850567	-0.1715028777878515	-0.4229900035302497	0.8935032133420799	0.15076957471869684
249														9.551861792405106	-1.6080843630351431	1.5817317850696562	0.22041105091503085	-0.05995874013668473	0.9735624880385203	0.8789743609147396	0.4449260938939261	-0.17159499942253253	-0.42287473498550066	0.8935578998887064	0.15076882322757526
250														9.560558618903068	-1.6308577356156257	1.5761413644768074	0.22040544743912335	-0.05993161942441344	0.9735654265288637	0.8790188861115389	0.4448293039509098	-0.17161785514852335	-0.42278509505230943	0.8936079069366595	0.15072382712064256
251														9.576616482170122	-1.6561696947297408	1.593600045313366	0.22044188633261766	-0.05997975697522956	0.9735542118974729	0.8791244153955469	0.444601081785829	-0.17166869350673258	-0.4225466092699777	0.8937182480111183	0.15073836992080622
252														9.612377690750991	-1.6334479704966636	1.5597873653764118	0.22047945500252736	-0.059987189537086205	0.9735452465156558	0.8791004390220474	0.44463909012637176	-0.17169303318083362	-0.4225768900839599	0.8936988400031819	0.15076854892163344
253														9.63929967279131	-1.5886960790952398	1.5317097436020983	0.2205159773513794	-0.06002334187140629	0.9735347462537502	0.8790921305440544	0.4446494149475436	-0.1717088343747108	-0.42257511728482156	0.8936912756748803	0.1508183478039854
254														9.655267248414747	-1.614152635712781	1.5495691119574768	0.22056806178477806	-0.05999320005848563	0.9735248050600709	0.8790433232305618	0.44472787893807186	-0.1717554935919482	-0.4226494599597595	0.8936542562098534	0.15082938822967307
255														9.633546404630112	-1.6245990711809355	1.5555487087576256	0.22063756776761895	-0.06001866977687048	0.9735074848031755	0.8790127995747479	0.4447709789182915	-0.17180010039528354	-0.4226766635069343	0.8936310959172584	0.15089036594947397
256														9.596605311805257	-1.5178553983812986	1.606925920957792	0.22071872057609382	-0.05991327346680053	0.9734955809092023	0.8789142828149686	0.44493033165720836	-0.17189148738450183	-0.4228391299904753	0.8935588394917815	0.15086308532904608
257														9.61314765158369	-1.432874782343521	1.61258374591871	0.2208202993420666	-0.059868407626291364	0.9734753048571764	0.8789193313360144	0.4448738170897871	-0.17201190619203166	-0.4227755957979763	0.893589984632916	0.15085667025826643
258														9.609081928129635	-1.4888302137713159	1.6058862638972617	0.22089349558371263	-0.05961824007933758	0.9734740515589778	0.8789587223309402	0.4447189549486093	-0.17221096233335015	-0.4226554483822137	0.8936837900282515	0.1506374966386877
259														9.667394784750384	-1.5882147265294384	1.547299181839219	0.22095424851641748	-0.059493764644965696	0.973467879301066	0.8791391596806128	0.444292415976115	-0.1723907973824963	-0.42224821844338356	0.8939042124716028	0.1504715951497574
260														9.650364366277456	-1.6570964782185704	1.4649660702335157	0.22098085064718975	-0.05933011378068698	0.973471828686385	0.8791870655713573	0.44415201148558836	-0.1725082445140848	-0.4221345370604849	0.8939848590955419	0.1503113579496027
261														9.59842397916588	-1.6558815289563213	1.4805719781212274	0.2209609316514329	-0.0592476210462658	0.9734813742871964	0.8791509668034563	0.44422130741188826	-0.1725137896222224	-0.42222013719418744	0.8939558990473917	0.15024315726877782
262														9.604914669363025	-1.5289896724904626	1.52008292678263	0.22097015568314382	-0.05914460446552461	0.9734855448644237	0.8791204926258533	0.44426410524355353	-0.1725588718015445	-0.42227875833700673	0.8939414525318543	0.1501643423139939
263														9.565071303590777	-1.6065549982321217	1.5479423208797718	0.22095749595764247	-0.05909516055717101	0.9734914211120973	0.8791286315224394	0.44424286140675484	-0.172572098922804	-0.42226843857623514	0.8939552796912501	0.15011103788371916
264														9.539536835555182	-1.6710473655642248	1.547133267627487	0.2209487398994648	-0.05897863580669621	0.9735004750154055	0.8790757871929284	0.4443373446591431	-0.17259804318819932	-0.4223830189626143	0.8939160165584032	0.1500224670920484
265														9.598812515081862	-1.6760530358411534	1.5534038124434522	0.22092112938614095	-0.0590040005677549	0.9735052041503184	0.8790046507152516	0.4445027112398011	-0.172534529070054	-0.4225454751996657	0.8938321249638923	0.15006483189216036
266														9.640489543249497	-1.636652160047089	1.5712818390995442	0.22091859886291798	-0.058929569966412354	0.9735102867766829	0.8788502808414334	0.44481686338876003	-0.1725112805294765	-0.422867776664739	0.8936807393183316	0.1500585873252892
267														9.698963642158187	-1.5109933112410339	1.5948749657962322	0.22088236663562916	-0.058910425212472306	0.9735196669357687	0.8787188713305978	0.44510463242224435	-0.17243842774665968	-0.4231596924057449	0.893538710967547	0.1500814669622163
268														9.661337169972336	-1.495733972330932	1.5828946037362743	0.2208691878082215	-0.05884076954457329	0.9735268695399938	0.8786621088548657	0.4452170605828125	-0.17243743047471305	-0.42328442014756196	0.8934872874335728	0.15003588522396738
269														9.653400538731598	-1.60391876701724	1.571289065323659	0.2207915707487868	-0.058824607440313814	0.9735454523779447	0.8786644796010119	0.44523820709131373	-0.1723707377532389	-0.42331999075612636	0.8934778142212632	0.14999193618534185
270														9.662252437470823	-1.6259407770528769	1.5653621088073368	0.22077616626096386	-0.05877497320578534	0.9735519436248743	0.8786689239303642	0.4452257952723523	-0.1723801419629229	-0.42331880011424866	0.8934872655772776	0.1499389866614821
271														9.649458995170054	-1.658156903453253	1.5651715032318225	0.22076720054643928	-0.05882875433647794	0.9735507284297552	0.8786902709048475	0.44519360895055743	-0.17235445560455986	-0.42327916435852864	0.8934997639690773	0.1499764008340953
272														9.620869706476805	-1.684028478002344	1.6226168094860776	0.22076325960560927	-0.05880305880836567	0.9735531744507265	0.87861665529659	0.44534589276554926	-0.172336324761466	-0.4234340045907271	0.8934255626920669	0.14998135779030763
273														9.714388098719514	-1.646866438055948	1.6242714398051132	0.22081951048912202	-0.05885167830688842	0.9735374793749891	0.8785029466551006	0.4455733419680502	-0.1723280872223929	-0.42364055106381193	0.8933089481740826	0.15009266006858657
274														9.6231745343697	-1.6099094875532718	1.6589781524675586	0.22080878905752538	-0.05892028938346605	0.973535761117134	0.8783029778648074	0.4460108834337508	-0.17221547820232813	-0.4240605590582087	0.8930860492458794	0.15023298869963814
275														9.623863495222118	-1.497595732636933	1.6482191854148527	0.22079579466363486	-0.058967954773732734	0.9735358223345751	0.8781849594534876	0.44627261025369414	-0.17213928757558933	-0.42431167088418736	0.8929521474564905	0.1503198865896046
276														9.675793193376961	-1.4992595560299784	1.6320800061899066	0.220815546314106	-0.05892368758949307	0.9735340227988227	0.8780881231714568	0.446461168202641	-0.17214433836859572	-0.42450175788944783	0.8928608090447183	0.15032575701049938
277														9.67574727586843	-1.4994634413873145	1.632164922686892	0.22082916069362973	-0.0589438714972384	0.9735297128492093	0.8781410527750206	0.446348326494278	-0.17216696218187555	-0.42438517082778127	0.8929158927069638	0.15032775968795808
278														9.658884744004476	-1.5860491525922444	1.626635141479916	0.22084334553961976	-0.05894976583832379	0.973526138241021	0.8781976685497253	0.4462249470497342	-0.17219800110422084	-0.42426061764521045	0.8929771675345732	0.1503153570904711
279														9.597022450012744	-1.654705319875324	1.586236147812804	0.22086516568390058	-0.059030106509768754	0.9735163199006317	0.8782877953290338	0.4460412813437832	-0.17221418034895414	-0.4240626453290707	0.8930636157982488	0.15036040361035685
280														9.604155745172811	-1.6577192694255851	1.610189888701001	0.22088916316276933	-0.059129198403058136	0.973504861566425	0.8782899595162863	0.446045312079812	-0.17219270189094582	-0.4240456633549417	0.8930550472775102	0.15045915698963827
281														9.618229530763282	-1.6449205647776757	1.5827559009293264	0.22098225240371844	-0.05927390139932198	0.9734749348265126	0.8783090651572002	0.44599598350404973	-0.17222302041521825	-0.4239575806437061	0.8930700909285672	0.15061800192399505
282														9.6204882264544	-1.5721431486879538	1.6179336392262955	0.22108169801833916	-0.05923190849885401	0.9734549110343591	0.8781954681994404	0.44619072181705266	-0.17229787984285744	-0.42414101715737673	0.8929755992074822	0.15066179603583996
283														9.67796643267706	-1.558928537297834	1.653718539205244	0.22119888155527337	-0.05926131193541656	0.973426500413046	0.878133063152776	0.4462836258061299	-0.17237531359001995	-0.4242091208314829	0.8929272211356467	0.15075675626104754
284														9.687984867820047	-1.6014886666344574	1.6198202652924791	0.2213313866345618	-0.05913586589318498	0.9734040099853122	0.8780238334255471	0.44644186980312484	-0.17252189664908363	-0.42436607454782427	0.8928564309292695	0.15073429775972547
285														9.647569163236595	-1.6609774074517352	1.5738069865104505	0.22143470329626233	-0.0590707343201089	0.9733844669620421	0.8778993633468011	0.4466536024351566	-0.17260726307713065	-0.42456964094407057	0.8927548419239066	0.15076276798348734
286														9.611449829331004	-1.6844415083398527	1.6087108760573006	0.22153411255752548	-0.05901054215061424	0.9733654980984482	0.877677618973423	0.4470718689347289	-0.17265208125114306	-0.4249760394733947	0.8925494383631077	0.15083390186297135
287														9.64646144843304	-1.5315427391737315	1.5919064313775524	0.221609165185606	-0.05904818349509594	0.9733461305885325	0.877556359944591	0.4473051860882469	-0.17266414109292727	-0.42518726818490027	0.8924300434905184	0.15094503784150523
288														9.670114534936204	-1.4304415190019226	1.546297156910058	0.221757828904945	-0.059005690906406505	0.9733148482171747	0.8774933727750843	0.44737446788007385	-0.17280470544758575	-0.4252397512641208	0.8923981252387735	0.15098589343097701
289														9.671503869742939	-1.470128542100623	1.592964121002276	0.22193303906269693	-0.05901185601153536	0.9732745383613344	0.8775863423444825	0.44711503373598427	-0.17300392578696483	-0.42495639529583196	0.8925277292372169	0.1510175971197699
290														9.652791720784979	-1.5392525480138008	1.6161184847351908	0.22205645301197863	-0.0589671198309481	0.9732490998991885	0.8777227956962665	0.44677421855234456	-0.1731920654997533	-0.42460996878413954	0.8927013366270847	0.15096588354110885
291														9.615452731960572	-1.6563189391672035	1.5877328568299172	0.2221911177645183	-0.0590916806191461	0.9732108098804488	0.877862375827821	0.44645236346323636	-0.17331455871918083	-0.42425081766861455	0.8928541092696474	0.15107211280648983
292														9.600822068483986	-1.6701971697260949	1.617160853936378	0.22227745880760003	-0.05912028613123155	0.9731893562271409	0.8778320331838096	0.44648894949661216	-0.1733739873619754	-0.42426837358258795	0.8928339205838748	0.15114211005676942
293														9.600021624674211	-1.5399506425219172	1.6348038888038565	0.22230466724518438	-0.05923146117725364	0.9731763812011758	0.8778042338841686	0.4465570514955618	-0.17333933983553412	-0.42431163299635855	0.8927924919971038	0.15126534413925052
294														9.608585932757387	-1.561812410686624	1.6306484594896993	0.2223482811580906	-0.05932030326760901	0.9731610059421214	0.87772906299101	0.4467146682962724	-0.1733138687753375	-0.4244442647120659	0.892707738708022	0.15139339286720374
295														9.596392486422156	-1.4828507656279615	1.6198707198456193	0.2224541559636719	-0.059400194967240305	0.9731319362410958	0.877716077623109	0.44671654470232836	-0.17337478412709623	-0.42441564011755617	0.8927014873556929	0.15151045804345842
296														9.601674749627394	-1.448669449010141	1.5978227902172173	0.22255725914721092	-0.05945258054447705	0.973105162388672	0.8777389844113805	0.44663904006905786	-0.17345847667574216	-0.42431420155983424	0.8927367801053081	0.15158660825365589
297														9.575697134650028	-1.514310881750061	1.5981034073033684	0.22267896787060545	-0.05934980302507037	0.9730835925802916	0.8778384853996217	0.44636559013747734	-0.17365872708424213	-0.42404442080916427	0.8928803731867482	0.15149577010106077
298														9.539852756029441	-1.6512364493025	1.5400498250810195	0.22282470979399766	-0.05920882530415017	0.9730588182177493	0.8779691975048931	0.44601020463069935	-0.17391085531931372	-0.42369710517990833	0.8930673056222492	0.15136561924948916
299														9.597876227618325	-1.76976732256843	1.5576917396457137	0.22293770261013712	-0.05906875512133186	0.9730414497457599	0.8780358375006836	0.44580204725954586	-0.17410802027382571	-0.42349952635084176	0.8931805062962435	0.1512505681080203
300														9.607423786457497	-1.6817156306224623	1.5400359717853456	0.22300754647149051	-0.0590347745708284	0.9730275071179321	0.8779020189838386	0.4460517455627306	-0.17414328969139442	-0.42374010818055197	0.8930580807941959	0.15129965316325605
301														9.597018172149932	-1.6404964062293503	1.5752429067226383	0.22306037021803377	-0.05910755218480912	0.9730109806743775	0.8777493297523917	0.4463665183887343	-0.17410641969998358	-0.42402851950950293	0.892895978564267	0.15144829515824654
302														9.573599592098146	-1.612347137072199	1.5357422647253642	0.22310859259708454	-0.059092349659648935	0.9730008479549492	0.8775197085343988	0.4468288470306219	-0.1740779784894952	-0.4244781702785812	0.8926657132840865	0.15154605664272797
303														9.55450045132465	-1.548839603273705	1.5762967349195862	0.22314820868027613	-0.05901261830119331	0.9729966021749624	0.8772991575499423	0.4472632069404719	-0.17407415626532974	-0.424913008891168	0.8924534355351895	0.15157770375781515
304														9.52254532416611	-1.518245771028656	1.61591520144932	0.22324857498803868	-0.05882729496205569	0.972984801080293	0.8772178638034109	0.4473630286484768	-0.17422726543983408	-0.425028108705754	0.8924156374503471	0.15147751266805326
305														9.518264330869586	-1.5746098446671979	1.6091301706486998	0.2234222044660531	-0.05862074606047407	0.9729574125740771	0.8773403790526061	0.4470032648362255	-0.1745334939476807	-0.4246838563394645	0.8926094831207368	0.15130080240227534
306														9.549927240573073	-1.6091520030958295	1.5672016769940385	0.22357328247070096	-0.05827154709313598	0.9729436849914019	0.8773997057904228	0.44675879711940203	-0.174860897502284	-0.4244817353481249	0.8927547277924643	0.151010769020117
307														9.608948047745702	-1.618190846893086	1.5709887272477951	0.22379051890350343	-0.05790361390502424	0.9729157081400418	0.8774940637471074	0.4464117974538515	-0.17527314449912013	-0.42417210155488616	0.8929522263765065	0.15071280526800623
308														9.657782771371625	-1.6985546616096825	1.517387002934006	0.22408086523057286	-0.05747719052485112	0.9728741637061229	0.8775447261966595	0.4461178546886125	-0.17576721324655548	-0.42391392919075904	0.8931266608367483	0.15040528029511496
309														9.628485800971898	-1.7100391479743386	1.4972762384794591	0.2243250831319762	-0.05714656977739896	0.9728373587812656	0.877593434933821	0.44586229197151916	-0.1761720169577486	-0.423683868041833	0.8932754816743718	0.1501695501775573
310														9.657009771366122	-1.7070843746357074	1.5127271462196974	0.22457684174047793	-0.05677851048764432	0.972800823858963	0.8775269487003146	0.44583951203779987	-0.17656042538069655	-0.4236882066550688	0.89331032136246	0.14994990259653623
311														9.665345490832308	-1.73249321409171	1.5056476646394885	0.22473572794734614	-0.05650520630194167	0.9727800441234145	0.8773850012909619	0.44602824909651645	-0.1767890282725585	-0.4238978793219377	0.893233431230981	0.14981530374996094
312														9.663721137523655	-1.7154551963178994	1.53334843019587	0.22485532590796148	-0.05628439621271286	0.9727652076188757	0.8772448923256349	0.44623743536276067	-0.17695635102886526	-0.42412437008430603	0.8931428877978238	0.14971406305606122
313														9.595626210869431	-1.6896826522382855	1.5318913006225592	0.22500071366107469	-0.05615031461457198	0.9727393386826156	0.8771572406119214	0.44634187255585067	-0.1771273780233233	-0.42422853993347454	0.8930991406176707	0.149679894888696
314														9.601232259039394	-1.5452486548221822	1.5995272444145996	0.22520395439897187	-0.0558991905904897	0.9727067694913996	0.8770728182765073	0.4463958535221412	-0.1774091694325436	-0.4242952396192676	0.8930879141773044	0.1495577720710667
315														9.660168814634481	-1.5538805247900804	1.6044700248772297	0.22540588199907527	-0.05563914839271261	0.9726749063928568	0.8771842610591396	0.4460360466588461	-0.17776281172134684	-0.42395749847166314	0.8932839023776717	0.14934493376933924
316														9.587632776100948	-1.7146387458400638	1.5793505152660194	0.22561552101638785	-0.055304857533922835	0.9726453667239964	0.8772565395054599	0.4457416873813259	-0.1781440765935109	-0.4236963542106661	0.8934515772349398	0.14908279097531327
317														9.578596727471597	-1.8262541036254438	1.5663698148984004	0.2257792485436488	-0.05504562211858255	0.9726220799532791	0.8772528082726393	0.44563874650369517	-0.17841978027220695	-0.42361685672885174	0.8935189349421717	0.148904907894179
318														9.592626982725744	-1.8159524800455578	1.5367277570794282	0.22595859593886386	-0.054818988307910044	0.9725932302058425	0.8770650147039809	0.44592368002395694	-0.1786309927649683	-0.4239099820759634	0.8933907040678168	0.14884010542043896
319														9.618781051144548	-1.641897465928677	1.6282108146141074	0.2260884387311421	-0.05474134104968942	0.9725674287432187	0.8768485998172408	0.4463150143439133	-0.17871609040524605	-0.4242882874540119	0.8932000299772014	0.1489065330268209
320														9.61117152599189	-1.640299631607095	1.605595274727352	0.22624518607671346	-0.05465030910053004	0.9725360967554516	0.8767166462353898	0.44651534255416786	-0.178862995271531	-0.4244773704108181	0.8931054767377422	0.14893478247261932
321														9.564611062665971	-1.6045386219344109	1.5997575835721303	0.22644108353157855	-0.05459222591447738	0.9724937658199913	0.8766393431899648	0.44659144799355144	-0.17905178175737563	-0.4245325637221631	0.8930709755941721	0.14898434444854203
322														9.555588996654208	-1.5844399079487699	1.6056978075782053	0.2266244117495515	-0.05449958037272101	0.9724562569793911	0.8766383903547659	0.44650532340628213	-0.1792711039907357	-0.42443669558059605	0.8931196962944268	0.1489654306729442
323														9.572443293046074	-1.6315046103431743	1.5939965906439775	0.22680675785386528	-0.054263447040310275	0.972426949907869	0.876695396777028	0.4462709408492048	-0.1795756905138735	-0.42422149387058067	0.8932512108409754	0.1487897794518963
324														9.590827794309885	-1.7171607571531675	1.6276138074635242	0.22702291442368294	-0.0539892136132642	0.9723917734843286	0.8767732871947274	0.44597199820902034	-0.1799377105423019	-0.42394480677126917	0.8934171151410042	0.14858216307752536
325														9.629303928305822	-1.7552569620130103	1.6092655414566235	0.2272331675677432	-0.053741952047480834	0.9723563596476638	0.8768160537463778	0.44575395327249584	-0.18026930142032277	-0.42374366715003486	0.8935408304784223	0.14841188907285213
326														9.622885961700186	-1.7747371896543815	1.5563433631262402	0.22746899329952203	-0.053491054920729475	0.9723150539463888	0.8767096384371785	0.4458395041059692	-0.18057504381806128	-0.4238373119000417	0.893513202824676	0.1483107865913189
327														9.59954403339091	-1.7679779598195775	1.590053576070167	0.22767755675778462	-0.053319180368348096	0.9722756785776623	0.8765541433179926	0.44605358738873874	-0.18080108132889322	-0.4240468888942188	0.8934166229606906	0.14829353942990792
328														9.635402450567184	-1.7663093679771011	1.6307140468570476	0.22790846652246427	-0.0531057308180109	0.972233260201308	0.8762479846304372	0.4465679794569983	-0.1810152180198984	-0.42455529712685985	0.8931723355982198	0.14831041299768827
329														9.620355818872143	-1.7621799948175765	1.585219821731758	0.22810549418381504	-0.05298135962472117	0.9721938382110192	0.8759263377650184	0.44714379735154736	-0.1811504217483395	-0.4251128489386323	0.8928915947764064	0.1484037251719958
330														9.578406469261292	-1.6718889118051898	1.5852950258550127	0.2283067779340932	-0.05286349888032843	0.9721530052597084	0.875612341896072	0.4477020694760297	-0.18128950247092895	-0.42565131489122565	0.8926187917991701	0.14850134901192263
331														9.602775625840469	-1.5716828984706845	1.539726119077179	0.22851975708514782	-0.05280491451211877	0.9721061473034274	0.8754751833303853	0.4478953848795863	-0.1814743165745371	-0.4258191212174169	0.8925252742678691	0.14858233676548432
332														9.616965265565856	-1.579627795231242	1.5863345566180609	0.22874742380618415	-0.05265161210896058	0.9720609157066038	0.8753994164254488	0.44793640018008796	-0.18173839196957658	-0.42585264801808775	0.8925137473092677	0.14855548808425426
333														9.655476975297988	-1.6357260985401902	1.6444760930761226	0.22897005262904654	-0.052500583810392853	0.9720166684263286	0.8754266525324859	0.44776371298904305	-0.18203250634442186	-0.4256769796862613	0.8926092908041197	0.14848489126961198
334														9.664671155904559	-1.680798484028301	1.6100801703279475	0.22928242650555805	-0.052361100200850164	0.9719505563975359	0.8754957372340884	0.44746977316580094	-0.18242263069007236	-0.4253666453551139	0.8927648723424902	0.14843887540207776
335														9.595121559737823	-1.637577421314004	1.637418746264633	0.22957621265808925	-0.05226817675382356	0.9718862074751344	0.8756820739919732	0.4469449713818723	-0.18281438085001667	-0.42482427881500057	0.8930331630209987	0.1483782392199955
336														9.62842589038151	-1.7118576687641942	1.5395717013287964	0.22986420274457187	-0.05206990204133227	0.9718287779223298	0.8757916025068835	0.4465631904032519	-0.18322223106188423	-0.4244425959715022	0.8932357148470249	0.1482512746882707
337														9.627012280334776	-1.846227646604763	1.522157575973389	0.2301314388199286	-0.051867386300468776	0.9717763606432439	0.8758498348759498	0.4462961891987587	-0.18359405833097686	-0.4241775425625946	0.8933809298082339	0.148134825886874
338														9.61910994232312	-1.8465111011306854	1.4989571243331608	0.23040641650986282	-0.05176474665042052	0.9717166738485568	0.8757400939535007	0.44639839857612573	-0.1838688597641947	-0.4242548421331198	0.8933358163383405	0.14818551944678493
339														9.63522402484119	-1.7435211603187293	1.5340896968817332	0.23062882663589035	-0.05173892031101679	0.9716652862223716	0.8755887974085852	0.44662336190292967	-0.18404301251368593	-0.4244462300187628	0.8932248634736807	0.14830624091819106
340														9.664417787365528	-1.5898747871693255	1.4945303925807758	0.23090665164879232	-0.051708038746695995	0.9716009453233944	0.8754691682761286	0.44675842261789894	-0.18428414803740073	-0.42454193387961936	0.8931591070738389	0.1484282851373549
341														9.609375413602207	-1.5327619527669387	1.4945429957283802	0.23121043712520573	-0.05167898841430091	0.9715302444704672	0.8755704441275489	0.44641832423107447	-0.18462685926215072	-0.4241675743555346	0.8933308244694089	0.1484651707241405
342														9.624571204660509	-1.5614678596383689	1.5121121508652025	0.23148519974365825	-0.05154807317578253	0.971471769250915	0.8757242151854969	0.44595918245983324	-0.18500677424760087	-0.42370001326101503	0.8935676827927594	0.14837484635541973
343														9.58316418705072	-1.6417379277986563	1.5400329683183347	0.23171741451362185	-0.05142279515661485	0.9714230468490048	0.8760078474310575	0.4452430422503536	-0.1853884693470863	-0.422986159407525	0.8939319490128604	0.1482173386744655
344														9.569599428109267	-1.8266953600795373	1.493384712528261	0.2318802671647092	-0.05126523262232313	0.9713925147044327	0.8762188527063581	0.44470087688086946	-0.18569235919482152	-0.42245954109426376	0.8942108286224028	0.14803692145157302
345														9.601955972470696	-1.8986117153084103	1.4989195664332566	0.23200080864752137	-0.05127705666657062	0.9713631083413194	0.8763813975083037	0.44431005585973943	-0.18586075530705287	-0.4220560044452503	0.8944044039032506	0.14801855083124654
346														9.582263090698097	-1.7983025800728492	1.4929403659564764	0.23213473736364873	-0.05125775337525568	0.9713321298237956	0.8762736273541363	0.4444803834044607	-0.1859616056401085	-0.422206103357985	0.8943208772513054	0.14809515454504743
347														9.584260338112745	-1.6881182493577522	1.4819750770913995	0.2322754068579972	-0.05120577483757055	0.9713012426596785	0.8760953047963316	0.44479095385469963	-0.18605919564173445	-0.4224987009243634	0.8941694336043423	0.14817513868701065
348														9.544140036305388	-1.6352268133160908	1.5282006107949586	0.23242195190667647	-0.051114733378694543	0.9712709819115959	0.8759040472879418	0.4451186933170485	-0.186175854514828	-0.4228145411601802	0.8940115395739299	0.1482269573733403
349														9.589749156007072	-1.6745808241500655	1.5346918197786554	0.23257242525925761	-0.05094972551717747	0.9712436318858166	0.8758053687601385	0.44523465316200206	-0.18636270998949905	-0.4229361926578823	0.8939632146198391	0.1481713462401507
350														9.532796996270285	-1.7278966124495647	1.5449127783341752	0.2327251629943879	-0.050644378390226896	0.9712230152991146	0.875668130675815	0.4454040555015867	-0.18660265877383514	-0.4231362941511405	0.8938961764546305	0.14800439956917666
351														9.574956973251783	-1.6917069078093678	1.560666710090069	0.2328306551828332	-0.050271163213224335	0.9712171210168825	0.8755220108843909	0.44559805981598666	-0.18682499175747613	-0.42338055513224176	0.8938205520334704	0.14776239812109504
352														9.587010108014063	-1.6239810689361442	1.5120269306199792	0.23286291854702362	-0.04992444226378617	0.9712272706377288	0.8754795996187641	0.44560775552828014	-0.1870005317222842	-0.42345050692746933	0.8938351516234402	0.1474733532037935
353														9.610060916861459	-1.6542213740101495	1.5502306194152413	0.2329406009430272	-0.04964314353770216	0.9712230612645051	0.8755585076417304	0.4453553431537514	-0.1872322568912484	-0.4232445819245504	0.8939766085441496	0.14720681793793772
354														9.594099552762081	-1.780674769119396	1.4851423198315483	0.23298043706098648	-0.04937617633011543	0.9712271151269867	0.875629628781418	0.4451373562653691	-0.1874179480657973	-0.423075488709743	0.8940999537345335	0.1469435387654625
355														9.594126052615414	-1.782265990438117	1.4830608537809022	0.23298416779121633	-0.049146741825283946	0.9712378572350822	0.8756695501971636	0.4450071664544048	-0.1875405573781827	-0.42299079944619616	0.8941773982673578	0.14671592964530927
356														9.556868874357201	-1.786587524906176	1.544524041762757	0.23302574628617317	-0.048971408152039986	0.9712367387776157	0.8756739489390974	0.444947021750521	-0.1876626840497302	-0.4229587884382821	0.8942169474008799	0.14656709816283037
357														9.542423744611412	-1.8001923122548749	1.5722537286784806	0.23302912676892487	-0.0488380020387883	0.9712426450862688	0.8756231935107109	0.4450271527006109	-0.187709499880245	-0.42306199198630073	0.8941843674075537	0.14646797609217074
358														9.523422944443631	-1.7180525503094357	1.6399128436199117	0.23306763212658002	-0.04864880650987985	0.9712429008646977	0.8755122929417583	0.4452091823640534	-0.18779512466141246	-0.42327024908771166	0.8941040641692077	0.14635647807094557
359														9.581539470143374	-1.7056998315754668	1.6737576935048661	0.2331071635457	-0.04852544174566409	0.9712395851730233	0.8755167366818738	0.4451597844127359	-0.18789148498941888	-0.42323928703937774	0.8941353632672151	0.1462547710722784
360														9.571747794655115	-1.8145313285586617	1.6615858446617406	0.233114785022426	-0.048314891501828605	0.9712482526435324	0.8753661477514796	0.4454339295148914	-0.18794340054297726	-0.423546460703762	0.8940102268408845	0.14613045517354467
361														9.556098329244815	-1.789708075023415	1.6432461653668984	0.23313974046085034	-0.04812918730375104	0.9712514827516758	0.875184990457132	0.4457699864806037	-0.18799029664222872	-0.423906940137099	0.8938527286318279	0.14604864128446754
362														9.581470167756379	-1.6887716559952097	1.5962225976060402	0.23319981615905128	-0.04795130528713787	0.9712458587117088	0.8750239654042069	0.44605042873152073	-0.18807465272259294	-0.4242062065925982	0.8937223771114196	0.1459774192765157
363														9.610533486106753	-1.6831979016912644	1.6125185939692679	0.23322824322610106	-0.04766863096779578	0.9712529475802498	0.8749387444526706	0.44616358011193546	-0.18820269189702232	-0.42436632761948917	0.8936810177033847	0.14576508010971537
364														9.591225837066261	-1.7510747575714054	1.6341652475372948	0.23326128811703245	-0.047423903838518244	0.9712569921553709	0.87486018298287	0.4462680700720078	-0.18832012602317671	-0.4245101078857397	0.8936418650549677	0.1455863500604267
365														9.646735995650666	-1.8498729317873974	1.6802884522920971	0.23329609687721242	-0.04732555367039537	0.9712534289008449	0.8748048334301585	0.44635129105965776	-0.18838001055475367	-0.42460503363607305	0.8936055152801861	0.145532637135943
366														9.580489250503303	-1.8595451831860978	1.7257507108854389	0.23332948767453676	-0.04717682587020522	0.9712526433850002	0.8745325717357716	0.44688136678450596	-0.1883874332168397	-0.42514718763594755	0.8933484153014567	0.14552827121772682
367														9.595866473083246	-1.865942568515309	1.6690910832577515	0.23334983317519808	-0.04705707555432004	0.971253564728275	0.8741001878370472	0.4477572628750108	-0.18831435199133517	-0.42602431501071053	0.8929160459880608	0.14561668117596044
368														9.5756312221861	-1.7441973192168583	1.6925390490822194	0.23340831690572833	-0.0470139037794009	0.9712416025122977	0.873628799647423	0.44871181557323414	-0.18822971867262211	-0.4269581689414522	0.8924390171974739	0.14580576997419958
369														9.542055242545441	-1.6540978759655365	1.7160781233657814	0.23345200556367096	-0.046924341784779555	0.9712354334796304	0.8731954661166637	0.44958142055632067	-0.1881654172367065	-0.4278198675279151	0.8920059710778996	0.14592980679001544
370														9.606135962354442	-1.605517381965329	1.7285469162871088	0.23353154128422182	-0.046780715952139895	0.9712232409906703	0.8727970590727208	0.4503512579851073	-0.18817289418309335	-0.42858874565184996	0.8916250944462236	0.14600129470089424
371														9.591655567388806	-1.6178204677290093	1.7579278767128725	0.23356459118850176	-0.046668141093195226	0.9712207093909473	0.8724753045910141	0.45098489505999784	-0.1881474616000472	-0.4292253774204952	0.8913106692027364	0.14605090326185954
372														9.576881644276705	-1.6123773414319702	1.7119986732727255	0.2336588172549554	-0.046532363527889475	0.9712045594330394	0.8722606904938672	0.4513661057420444	-0.18822838894923355	-0.4296101080493542	0.8911247823575386	0.1460540219578097
373														9.593426084404827	-1.6578497485332433	1.7012424461818814	0.2337565000752836	-0.04640131122986513	0.9711873233257855	0.8721484108278349	0.45153426610931197	-0.1883453105856574	-0.42978488591740477	0.8910464212628177	0.14601789955922911
374														9.655709858637671	-1.7412191961042665	1.6972321343959271	0.2338464423626994	-0.04632768976035917	0.9711691853409359	0.8720001000411367	0.45179120035900056	-0.18841586134511468	-0.43003682042652674	0.8909200056344239	0.14604751500043378
375														9.619402239554354	-1.763244346380876	1.7326191202236705	0.23386026283519257	-0.04627488086999837	0.971168375137454	0.871755968100983	0.45228082513408896	-0.18837087698565835	-0.4305239941594116	0.8906742898593715	0.14611091621275885
376														9.624242831713332	-1.7085619575286004	1.7393538065525544	0.23392998481300134	-0.04634931923033131	0.9711480334183221	0.8714938986335468	0.45280908838133627	-0.18831440232697366	-0.4310164113463558	0.8904019710704536	0.14631877208328717
377														9.60499361046288	-1.606462988172815	1.7340078637568952	0.23398295769726762	-0.046394869446693354	0.9711330967464052	0.871228745376482	0.45334407096377727	-0.18825415414197572	-0.4315234046224604	0.8901273332568851	0.146495330478573
378														9.6037516338505	-1.586509006027976	1.7641524712763565	0.2340291397802785	-0.046439708320808015	0.971119825369033	0.8710280272046331	0.45374810966929013	-0.1882095342843999	-0.4319033891482073	0.8899191010775216	0.14664056730546338
379														9.591174734351204	-1.6372401541975359	1.7377090867386897	0.23404264783220308	-0.04652232082209656	0.9711126158489645	0.8708511794072256	0.45412292708441315	-0.18812386988718388	-0.4322525446087468	0.8897235754781436	0.1467981502528306
380														9.567903139353708	-1.6090577015275376	1.698599265656237	0.23414603202757356	-0.04659267755981389	0.9710843207896782	0.8706952313779814	0.4544162183425595	-0.1881374884569566	-0.4325106354084101	0.8895701337753281	0.1469677765823476
381														9.52510106768878	-1.6477850056779841	1.6833469462164579	0.23421417074468176	-0.04657559227438701	0.9710687083964097	0.8704227693741556	0.45494575082111943	-0.18811849022579763	-0.43302185254026926	0.8893003306049639	0.1470951977750985
382														9.54145092762851	-1.692766857212507	1.6742744339819815	0.234336301449883	-0.04658487386896398	0.9710387980659694	0.8702254296962773	0.4553040577587269	-0.18816459948238834	-0.4333522808671017	0.8891164516052161	0.14723361081027003
383														9.584621149527717	-1.67412927317499	1.6642805478851512	0.2344316784804471	-0.04654454979959388	0.971017709935712	0.8699647254317268	0.4557928730533354	-0.18818669819699596	-0.433823886651417	0.8888680789395804	0.1473444047560657
384														9.515834654047877	-1.6263681840472881	1.6929971311039913	0.23453012739019002	-0.04649282488325429	0.9709964142985887	0.8696873279182162	0.4563117309533219	-0.18821146578478293	-0.4343265718383053	0.8886045360163084	0.1474530690302076
385														9.48436172132679	-1.5763193219406728	1.6581694038780461	0.2345597955708596	-0.04643101936422572	0.970992205294438	0.8694869289512634	0.45669776945327983	-0.18820103017597906	-0.4347116086380228	0.8884094257813782	0.1474940998757061
386														9.45519562194136	-1.5838114887416013	1.6406501867797434	0.23465400332481154	-0.04622635168869632	0.9709792083938729	0.8693671080780734	0.45686557390537397	-0.18834722926573855	-0.43490036803342286	0.88833381776766	0.14739300558278548
387														9.474786595957212	-1.6887894985979928	1.5439653181741997	0.23473276138350563	-0.04595148448083147	0.9709732188929223	0.8692034809889169	0.45711512535060683	-0.1884968721556119	-0.4351848335707764	0.8882196931219817	0.1472410859110621
388														9.443698600390652	-1.8275924346986552	1.5109648294398201	0.2348242542181186	-0.04574752878409971	0.9709607269303184	0.8690358417451407	0.4573812856071259	-0.1886241377414029	-0.4354701773867177	0.8880931951020237	0.14716046147066775
389														9.429836576151963	-1.8429347492334487	1.436227199819632	0.2349494060726684	-0.04556335669377959	0.9709391109193698	0.868749314832451	0.4578798546376799	-0.18873438132763304	-0.43597408703298834	0.8878457181536514	0.14716173480895012
390														9.466694935973429	-1.6724010399261757	1.4447595620067073	0.2351005005054594	-0.04529620068453105	0.9709150368933571	0.8684085481402415	0.45846148798302094	-0.18889059678383185	-0.4365711261398769	0.887559191400743	0.14712013316000855
391														9.523441809013178	-1.6235098949992797	1.4319933660188378	0.2352262817296774	-0.04494313796488242	0.9709009788508303	0.8680996948034776	0.458970457030891	-0.18907416390127002	-0.4371172797610954	0.8873140559704467	0.14697703838197218
392														9.568026715344342	-1.644192746285923	1.4654323751081546	0.2353463979744181	-0.044535106237818756	0.9708906721525618	0.8679842361799144	0.45907775559726055	-0.18934355034949746	-0.43728187557185316	0.8872791210369869	0.14669806634101995
393														9.628124397990769	-1.6726378485311808	1.440452773246616	0.23538019618491374	-0.044123964382944136	0.9709012509061281	0.8679386050071725	0.45907673202809374	-0.1895550897459875	-0.43735425135941575	0.8873001915234431	0.14635446334262048
394														9.624003321267006	-1.7487091606205607	1.4038758474942972	0.23537036577459605	-0.04369751563662788	0.9709229207523734	0.8679712124695895	0.45893116459347105	-0.18975816316815225	-0.43729482644916307	0.8873965930135561	0.14594698170475937
395														9.590891215322369	-1.830825730983114	1.3496056965762773	0.23525223952064964	-0.04325956060071484	0.9709711603426501	0.8679489718858382	0.45893753407180105	-0.18984446797947835	-0.43740252171522226	0.8874147566029809	0.14551317383809917
396														9.63511915491069	-1.8302999573360976	1.4093658810871834	0.23511679731773133	-0.04285170180454889	0.9710220508677996	0.867853947784438	0.4591042195599431	-0.18987585654111533	-0.43766381725477327	0.887348323509269	0.1451321323183496
397														9.65555760310203	-1.7816244007783413	1.4568804306910328	0.23492293368244221	-0.04243795869219408	0.9710871407304675	0.8676374737204746	0.4595386946665626	-0.18981412566009193	-0.4381967930348056	0.8871432848002582	0.144776941561218
398														9.640819790334701	-1.7738060275094703	1.5110555151895828	0.23477361901937757	-0.0420256815857199	0.9711411791803497	0.8673930995836057	0.4600115156385076	-0.1897857114608692	-0.4387602518543463	0.8869178358603569	0.1444513545297927
399														9.56476900484239	-1.7030284484450093	1.5406144571665095	0.23462857197331577	-0.04157453214441004	0.9711956504694286	0.8671136864974125	0.4605449258194019	-0.1897688751899772	-0.43938967659997435	0.8866622409796051	0.1441068441067075
400														9.564494011251504	-1.683337079355495	1.5653128919152226	0.23445449306723237	-0.0410688094810846	0.9712592051395932	0.8668987299914263	0.46094817060405185	-0.18977190507562225	-0.4399064475770276	0.886476247230903	0.14367386845065316
401														9.545600134978145	-1.7498560291371095	1.5852945855532339	0.2342765069773025	-0.040468251420305246	0.9713273592901093	0.8667142079964483	0.46127247700816965	-0.18982671996280404	-0.4403646215758064	0.8863351637962529	0.14313971315699303
402														9.518456422417943	-1.794182273315048	1.6104012224693656	0.2341163582962007	-0.03993986458551607	0.9713878411813766	0.8665447433935352	0.46157306958476096	-0.18986971620333043	-0.44078309685735095	0.886202634080373	0.14267148584721168
403														9.435253710908967	-1.7211111406326112	1.6155225801950597	0.23390738773446812	-0.03936365541646414	0.9714617010440971	0.8663418903968269	0.4619500738804832	-0.1898785353468589	-0.44129249133300386	0.886031958720491	0.14215591869155725
404														9.450226970779678	-1.709737177291913	1.5817892246010354	0.23377755004058193	-0.0388083998648911	0.9715152933417728	0.8662528096772797	0.4620712725504401	-0.18999002292182648	-0.4415360991167568	0.8859932545925755	0.1416397754630171
405														9.45376817236553	-1.7874506043579421	1.5673514742878187	0.2336560259659603	-0.03831234254443977	0.9715642160652854	0.8662545629090375	0.46201841689101747	-0.19011053282969603	-0.4415969811593682	0.8860424069209533	0.14114162875869446
406														9.49395671248131	-1.8637614864272136	1.4897504807555446	0.2335818113604353	-0.03778846904292227	0.9716025777080721	0.8662035185982491	0.4620474134654342	-0.19027257311003815	-0.44173634870767736	0.8860497837691144	0.1406583766190804
407														9.502499183229627	-1.8877129550028318	1.4805186189085247	0.2335372167309519	-0.03735288283848964	0.9716301408175927	0.8661183756060289	0.4621503430431598	-0.19041013592417821	-0.4419268353914872	0.8860145724358851	0.14028132303382906
408														9.514096154549836	-1.8006600558457477	1.4575318170646652	0.23349895098064202	-0.036849358525482045	0.9716585638315558	0.8659500300706939	0.46240402293733207	-0.19055987245990885	-0.4422768197763763	0.885903292886776	0.1398805574083226
409														9.46874536841145	-1.7640367710212759	1.447139638539573	0.23341595838376675	-0.03635196070171509	0.9716972395375671	0.8657909600511428	0.46265752193394594	-0.19066733042569323	-0.44263190561177107	0.8857914835620633	0.13946484784134996
410														9.485521339406027	-1.8101529942751668	1.432649109386926	0.23332567933770942	-0.03582112276909427	0.9717386348834536	0.8656730621856918	0.4628246299121815	-0.1907970423059524	-0.44291000978488126	0.8857258092153653	0.13899825222693513
411														9.551140584364516	-1.7831550964002256	1.4104256333801817	0.2331902772375996	-0.03537004000442012	0.9717876593535941	0.8655975632062253	0.46294014900907593	-0.1908593120780312	-0.44312882232291795	0.8856835657872061	0.13856936213017484
412														9.563588219494031	-1.7154634351145748	1.3583607310221901	0.23307953782511348	-0.034857782326029874	0.971832734609481	0.8655524551485376	0.462973130336473	-0.19098384217725156	-0.4432751701072029	0.8856866351016919	0.13808080231759967
413														9.583229687640216	-1.8380168835141888	1.333656302535347	0.23292313278704296	-0.03435223720970748	0.9718882332919552	0.8655217125268644	0.46299659335940496	-0.19106627039367818	-0.44341738729692803	0.8856941223335933	0.1375752241738763
414														9.672772450617453	-1.8585560405788772	1.323299432760594	0.23278640966589503	-0.03380063754564888	0.9719403296377662	0.8654594872889305	0.46306607658420706	-0.19117971801028127	-0.4436105987647765	0.885679019520287	0.13704857184640618
415														9.686798415084482	-1.8278854488444476	1.3174601485680781	0.23262947415165225	-0.033252887324300595	0.9719967969291482	0.8654104138443939	0.4631178988506921	-0.19127631158561154	-0.4437886246464656	0.8856726580677075	0.1365122682606985
416														9.738366857974702	-1.8127276391136817	1.3230959047137825	0.2324404005344896	-0.03265786605838422	0.9720622017051581	0.8653264036301553	0.46324263628819784	-0.19135431822998633	-0.44405143325955887	0.8856295634797169	0.1359360177100185
417														9.731427397776452	-1.8108910827239408	1.2941373160852485	0.23219086349660217	-0.03204436872449162	0.9721422536551695	0.865322734838142	0.4632271383694529	-0.19140841896397104	-0.44418911229446134	0.8856600796643694	0.1352858300339021
418														9.74586834542206	-1.9867206394602972	1.2635710788775298	0.231898767536672	-0.03146744848415972	0.9722308168849978	0.8652812425589845	0.4633108943282122	-0.19139327697798764	-0.4444224711809171	0.8856369543343874	0.13466941830556017
419														9.71199989189678	-2.0468271838935452	1.2368438686352412	0.23151446437434953	-0.030980913797673593	0.9723380254652807	0.8651733712623892	0.46358061970204406	-0.19122773516188118	-0.4448326544262817	0.8855129541779339	0.13412948049977041
420														9.688487542225074	-1.977789186980361	1.247986365016579	0.23111922184615813	-0.030540963715517844	0.9724459649916567	0.8649514476783784	0.46409005237111156	-0.1909958545342203	-0.44546930135790996	0.8852613584843219	0.13367658254978398
421														9.648954794679238	-1.8408942863353883	1.4015456584538466	0.23068268060128772	-0.03012651407922534	0.9725625399016966	0.8648187410844754	0.4644424183965477	-0.19074009820441473	-0.4459529638198046	0.8850907485356521	0.1331927960399198
422														9.67068490152799	-1.79018303561193	1.4470747378271516	0.23035084244883813	-0.029672890217403658	0.9726551336261259	0.8648121520417065	0.46449565411823285	-0.19064031311941226	-0.44613723344292067	0.8850781360373903	0.13265844128616927
423														9.67436833493501	-1.866260620114805	1.4321187628274632	0.2300317261012595	-0.02918094876514915	0.972745535695765	0.8649806456359981	0.46418898718241447	-0.19062283927613738	-0.4459752096944481	0.8852553622586705	0.13201914986191593
424														9.63732336297284	-2.038400497373277	1.4196968109093748	0.22980192474532193	-0.028719619219073067	0.9728135786754092	0.865172608372767	0.4638068103800632	-0.19068193508178594	-0.44572125045235145	0.8854707370190069	0.1314311256065652
425														9.650854330618563	-2.1744744783152092	1.446597049790167	0.2295426319436728	-0.02836889440175905	0.9728850836305349	0.8653728660063891	0.4634410778949047	-0.19066245068050708	-0.4454660288958738	0.8856735138582561	0.13092915622469198
426														9.651485628779104	-2.174205791244182	1.4427835916530056	0.22939305094443346	-0.02803042455185517	0.9729301739990628	0.8652396826470192	0.46369767939927836	-0.1906430006389132	-0.44580165965515334	0.8855499745464204	0.13062206103696267
427														9.67041114882252	-2.067889275740901	1.4722594941479552	0.22923855732994114	-0.02782415412556355	0.9729725074638467	0.865060882513927	0.46407231930006354	-0.19054278260717905	-0.44622791640316956	0.8853602085629655	0.13045285629616976
428														9.67915539359085	-1.9023586718992846	1.4606201991552736	0.22919620564063964	-0.02753129092428913	0.9729908156503722	0.8647581553664514	0.46463154281809366	-0.19055409244015542	-0.44683602366768377	0.8850760178868937	0.1302996949894088
429														9.685075568330369	-1.868682446247486	1.4350399710527546	0.2292201666870099	-0.027209118112549335	0.97299423383467	0.864597181192419	0.4648778550102179	-0.1906837544082397	-0.44713513556653367	0.8849566338598948	0.1300843062373836
430														9.698997908383303	-1.858626817525851	1.403566970265731	0.2293094466723674	-0.026801111677297484	0.972984520986677	0.86446856953907	0.46501768003473354	-0.1909257696964658	-0.44733798178322215	0.8848956196456025	0.129801665575363
431														9.685732722226033	-1.9127500077299149	1.373726660417989	0.22939854891296566	-0.02642637141301707	0.9729737677093699	0.8644481880427637	0.46494980373897	-0.19118318491090147	-0.4473316844872588	0.8849425557046257	0.12950303917961556
432														9.679770576612219	-1.9492379713904784	1.3957416517165842	0.22948465670893298	-0.026154194018287502	0.9729608165134075	0.8643292130877351	0.465098124811761	-0.1913602510965116	-0.44751737814113934	0.8848726984328521	0.12933871744316588
433														9.688497301862625	-2.0125202359393937	1.33345688198152	0.22951890589845547	-0.026052689931204354	0.9729554610476906	0.8641684846736917	0.4653825211977394	-0.19139472056566975	-0.4478101181661164	0.8847261532875491	0.12932800066909245
434														9.628749229725491	-1.9865313269654297	1.3571033456933506	0.2295824790933692	-0.025972551586006143	0.972942604605973	0.8638507946681391	0.4659692053244603	-0.1914014217306539	-0.44839010899502146	0.8844196550582779	0.12941477466668738
435														9.642127649577777	-1.9546342772639527	1.357623587872501	0.22963613300634095	-0.025966551505737734	0.9729301026388246	0.8634772506782631	0.46668329561600236	-0.19134716918234024	-0.44908160057945173	0.8840432341214353	0.12958887384768375
436														9.6214442123626	-1.8160919751529652	1.3040847465052101	0.22975177220203724	-0.025950877768266545	0.9729032198081573	0.8630352599895381	0.4675046001043504	-0.19133632403718287	-0.4498713851589291	0.8836096427859579	0.12980653292827188
437														9.636806835309011	-1.6138656601146004	1.3744798818500408	0.22986811130548845	-0.02591098530522218	0.9728768021930427	0.8626924757053165	0.46812455299279176	-0.1913663900655792	-0.45046902642277203	0.8832825276919113	0.12996011891310522
438														9.607094282631454	-1.6215330999517021	1.358707865116371	0.22999678750372798	-0.025794840136673436	0.9728494765174565	0.8625262073081994	0.46837797411802795	-0.19149573119948532	-0.450721665159884	0.8831515722589276	0.12997415501585696
439														9.590403940526157	-1.7853051247650655	1.346919117061568	0.23009282220893684	-0.025714207899601105	0.9728289020583338	0.862502888184417	0.46837073712286287	-0.1916184241677341	-0.450717273955044	0.8831577617385711	0.12994732332546005
440														9.59308398655474	-1.8834000300566474	1.3096662315752108	0.230244114298251	-0.02556519421625303	0.9727970336486946	0.8623644838170296	0.4685540936680882	-0.19179300914753117	-0.4509048068960925	0.8830648233009636	0.12992833781140986
441														9.620653498534613	-1.8612414810312066	1.2516034706368429	0.23036896437140658	-0.025530570427968913	0.9727683846774982	0.8621597335708147	0.46889987321336263	-0.19186845157449783	-0.45123246122541816	0.8828822678444256	0.13003140798413476
442														9.558906498049433	-1.7989349143474116	1.228411177744871	0.23048569248682557	-0.0254573131779961	0.972742653924781	0.8618492508514581	0.46944743385879395	-0.19192440087225443	-0.451765663110477	0.8825933559964922	0.13014128317025422
443														9.583627290114865	-1.6797749392996681	1.2077429485251723	0.2305965189681859	-0.025312081658004304	0.9727201776265841	0.8615868098059918	0.46988846753366764	-0.1920234289017741	-0.45220948089142105	0.8823628089402904	0.13016320060182784
444														9.634495249204555	-1.6650869279361562	1.218382594784057	0.23073558134871003	-0.025133084949175488	0.9726918420242922	0.8613637947419865	0.4702344947387807	-0.1921768275975244	-0.45256326033755523	0.8821835681980827	0.13014855893916394
445														9.607382245135994	-1.749959322890141	1.192422381052695	0.2308035235510861	-0.024977230079964163	0.9726797373719348	0.8612800318395069	0.4703407746949896	-0.19229212780001015	-0.45268801648700807	0.8821313358207211	0.13006869758788528
446														9.630789171940421	-1.778671780332298	1.2326165829582634	0.23089088825341736	-0.02474694390133597	0.9726648891006052	0.8611283541836317	0.47055704146987776	-0.19244227275758863	-0.45293195442862977	0.8820224824179145	0.12995762835171232
447														9.591276952644927	-1.7275763625222589	1.1731064942258889	0.23093677913126692	-0.024680898380473548	0.9726556725273391	0.8611289358354823	0.47052515362407316	-0.19251762432019953	-0.452907451816955	0.8820413443043225	0.12991499923602884
448														9.629314889589278	-1.7843101190771278	1.128069672667208	0.23099758991252128	-0.024544656274588517	0.9726446798821087	0.861104586792083	0.47052215064507485	-0.1926338401163465	-0.4529227351991103	0.8820467479678706	0.12982499889875176
449														9.62960576483509	-1.8049727408649454	1.0992144375847968	0.23093361890955647	-0.024472738443921893	0.9726616825651104	0.8611460931578783	0.4704517442264037	-0.1926202548883627	-0.4528764399880602	0.8820863004419639	0.12971772691637437
450														9.577595244175367	-1.7608946204405498	1.172344859507662	0.23089910206457614	-0.02438028608742271	0.9726721987987879	0.8611583130993606	0.4704229476800937	-0.1926359521891905	-0.45287080326030815	0.8821042183020484	0.12961552224982936
451														9.566254958158874	-1.8491879527904047	1.1918735554408113	0.2308409106015739	-0.02437850545466136	0.9726860554487423	0.8613730050457101	0.4700266520779833	-0.1926434336147641	-0.4524920111683296	0.8823154961849872	0.12950036687469563
452														9.539112233604644	-1.9125581444445996	1.1933926916113857	0.23079798798647633	-0.024244636382797058	0.9726995868962118	0.8613178189200635	0.47012430155967677	-0.1926519034263916	-0.452618938569941	0.8822671583424677	0.1293860802332616
453														9.495804874205172	-1.9309957230941084	1.2053546249139093	0.2307542934642186	-0.02415972458968224	0.9727120662125979	0.8612680703203894	0.4702213075347216	-0.1926375689914377	-0.4527358690168291	0.8822177903715662	0.12931358496882328
454														9.487802245796113	-1.9086630523416044	1.2097333157353907	0.23074809335026675	-0.023928779526692978	0.9727192456847862	0.8610219841532929	0.4706571799065029	-0.1926731995041983	-0.45320686250314374	0.8819916283688982	0.12920645211147896
455														9.606876148299579	-1.9621200862851975	1.1630722152909192	0.23071352288832914	-0.023678120684962334	0.9727335796389907	0.8607381971949316	0.47117270434163305	-0.19268118375443616	-0.45376318299976154	0.8817231023877168	0.1290865774188178
456														9.62866419353261	-1.9533455224929626	1.1552304420243091	0.23067637028853477	-0.023256306465620658	0.972752566894626	0.8602904269565355	0.4719724685783398	-0.19272355899321125	-0.45463039216208206	0.881306492154486	0.12888007374651184
457														9.720035556038962	-2.029448097757709	1.166885982332389	0.23052964285779287	-0.022962400229309954	0.9727943317780836	0.8598593694085455	0.47280510952716104	-0.1926063167327296	-0.4555194272522279	0.880867786095461	0.12874002802191709
458														9.749326521430138	-1.981031147992015	1.2389820306351838	0.23041202737058258	-0.02270322326539853	0.9728282794493277	0.8592451301953864	0.4739845403552376	-0.19244859505786888	-0.4567363614586552	0.8802404325850952	0.12871937291609636
459														9.760947503164497	-1.8704785593765534	1.2461720048045668	0.2302014498200144	-0.02261512464206783	0.9728801820564479	0.8587666717339507	0.47496804927637176	-0.19215919360153227	-0.4577412981365745	0.8797124009038533	0.1287594488813219
460														9.67005998539171	-1.7712151321824363	1.260768299189306	0.2299738977616651	-0.02247208407629092	0.972937311333868	0.858312421759934	0.4758978520913826	-0.19188804295058748	-0.4587066524489318	0.8792134210827752	0.12873215288737372
461														9.656902402033511	-1.8007303613550014	1.2616569750957454	0.22976007138377547	-0.022322906051325364	0.9729912627886986	0.858094824537418	0.47636595984861874	-0.19169962023854442	-0.4592206242099982	0.8789636853493596	0.1286050470908967
462														9.69955606156105	-1.9482271119264178	1.2832331014860794	0.2295945518513393	-0.022117771074786796	0.9730350178502651	0.8579900493281012	0.47658840314680895	-0.19161568109092048	-0.4594990935944762	0.8788482793910779	0.12839892833352096
463														9.65897371766864	-2.0427930183669996	1.2862130251832582	0.2294665448518267	-0.02187846003713323	0.9730706232232937	0.8578358454582262	0.47688426199248346	-0.19156999480830905	-0.45985080954667873	0.8786937655692618	0.1281971111569066
464														9.712636673614021	-2.0825801675360234	1.3149862062299986	0.22936461635911373	-0.021750530846473493	0.9730975219217926	0.8576152438430327	0.47731865608022317	-0.19147583159716408	-0.46031290041719714	0.8784610492023346	0.1281335972485019
465														9.661621218695904	-2.0979497271350875	1.3048479776167137	0.22932020179028412	-0.021630516533487132	0.9731106647269665	0.8573366546484416	0.47784297005905785	-0.19141566435732948	-0.46085367053662796	0.8781789206759825	0.12812368100114946
466														9.610300317517728	-2.0928546628812823	1.32348418820911	0.22928669407508778	-0.021506311238895015	0.9731213133505057	0.8568076305680876	0.47883776423589636	-0.19129840496425438	-0.4618531109783898	0.8776399456032435	0.12821789953481239
467														9.65908640213871	-1.9987008559693256	1.3431825924667147	0.22926750752100192	-0.021430917449621778	0.9731274971823449	0.8562353965343644	0.47991587376025624	-0.19115883404794437	-0.4629226238981489	0.8770527178512117	0.12837902629734985
468														9.618881640754047	-1.884572325489716	1.3693095129314166	0.2292662184101022	-0.021348126767424702	0.9731296206464244	0.855597265193469	0.48110711252031285	-0.19102163771631736	-0.46410162775989955	0.876401850617563	0.12856700721694764
469														9.594946974221488	-1.836169528990966	1.357657826825787	0.2292707298225669	-0.02128206946704747	0.9731300046580762	0.8550745800729947	0.4820781904987417	-0.19091380452563023	-0.46506171091546467	0.87586967738623	0.12872417517980894
470														9.57838264537309	-1.7495697737781726	1.4240412725959397	0.2293311540950977	-0.021157455463537755	0.9731184839677642	0.8546385311508522	0.48285179139387313	-0.1909113108750824	-0.4658328056649996	0.8754464630267444	0.12881493523748966
471														9.621749451487306	-1.7520366756345875	1.3842571776841452	0.22942700615022996	-0.021124669255524975	0.9730966021920886	0.8543732284591106	0.4833083177346099	-0.19094359507691955	-0.4662720615062623	0.8751953029795045	0.12893233225732934
472														9.549174587453269	-1.8394740730335077	1.2988183052422788	0.22954741322155636	-0.021111802611448294	0.9730684851919662	0.8542278233723535	0.48353429461661246	-0.19102201890396509	-0.46647916444341203	0.8750707844055308	0.1290283357253975
473														9.516143006953838	-1.9782337584850005	1.2730458224711856	0.22964601739061336	-0.02114912185112172	0.9730444087201555	0.8541161061616862	0.48371483745105587	-0.1910644740000042	-0.46663517215468214	0.8749700970173926	0.12914699157760196
474														9.578727243054868	-1.8950744988169004	1.2346488739260346	0.2297362425977023	-0.021150867612991064	0.9730230725097466	0.8538507973084644	0.48417914303025433	-0.19107426145399253	-0.46707609098817054	0.87471320914555	0.12929318223906427
475														9.674740868884536	-1.8546086686948065	1.3371215510610763	0.22972719737980068	-0.021324243946932775	0.9730214239183608	0.853549240790174	0.48478078894781296	-0.19089599318386458	-0.46763138082312233	0.8743756991632534	0.12956862421987858
