// Start Time: 1748342924.2155054
// Update Rate: 100Hz 
// Filter Profile: 46.1 human
// Option Flags: AHS Disabled ICC Disabled 
// Firmware Version: 4.0.2 
PacketCounter	SampleTimeFine	Year	Month	Day	Second	UTC_Nano	UTC_Year	UTC_Month	UTC_Day	UTC_Hour	UTC_Minute	UTC_Second	UTC_Valid	Acc_X	Acc_Y	Acc_Z	Mat[1][1]	Mat[2][1]	Mat[3][1]	Mat[1][2]	Mat[2][2]	Mat[3][2]	Mat[1][3]	Mat[2][3]	Mat[3][3]
0														9.687791178973013	0.5529111862953043	0.8117069518473029	-0.09176706063300283	0.02170474454916882	0.9955439270302611	0.3213793227128183	-0.945616859485618	0.050240282535099906	0.9424935742568374	0.32455763605346244	0.07980102357713986
1														9.684942691767507	0.5059876871607365	0.774868870128426	-0.0918392968272107	0.021595050301517676	0.9955396513252288	0.3213606008986427	-0.9456275832621728	0.050158129588389055	0.9424929218558336	0.32453370791986663	0.0799059739658805
2														9.67916216628382	0.4771053653829563	0.7951540806168467	-0.09190384028115267	0.021501159443910622	0.9955357272765973	0.32128140866140126	-0.9456584563604513	0.050083334179283234	0.9425136288617378	0.3244499715773383	0.08000172093987928
3														9.706902383522568	0.38526529527288855	0.7636624847312841	-0.09190521437894322	0.021411030933241842	0.9955375429004858	0.32124722162833363	-0.9456747304608335	0.049995267415092526	0.9425251477631973	0.3244084954531957	0.08003420463624994
4														9.776395407125708	0.4273149605712524	0.72322188884696	-0.09198868557286227	0.021358569205335104	0.9955309604668646	0.32136605503434035	-0.9456350118678514	0.04998282706444132	0.9424764932868311	0.32452771199265784	0.0801238026467051
5														9.691758506801191	0.5846840404688048	0.743232842976497	-0.09208794755427607	0.02139913622586062	0.9955209123288309	0.3212013603447371	-0.9456879524042399	0.050039812051670046	0.9425229419106631	0.3243707348794943	0.08021303089776366
6														9.70621302687914	0.5657945108804882	0.7196194291529698	-0.09215482383786089	0.02145080449456832	0.9955136118757736	0.32120150905141226	-0.9456841445526321	0.05011077054737917	0.9425163547793259	0.32437842364789365	0.08025932497348376
7														9.709206026016538	0.49061486290244055	0.7342767254033468	-0.09228961319368328	0.021501530103156807	0.9955000308888914	0.32109664216240047	-0.9457153379162504	0.05019408353565266	0.9425388977058676	0.3242841097451057	0.08037563361014671
8														9.696004702205768	0.5049242955537306	0.8139274530004377	-0.09236730632987888	0.021504182366665486	0.9954927678602714	0.32107469442302405	-0.9457214070459149	0.050220124016748	0.9425387638301805	0.3242662338200464	0.08044929012514002
9														9.723543186910454	0.4784848649605427	0.8771600394433853	-0.09248026272833731	0.021561304103128176	0.9954810451088817	0.3206434893940395	-0.9458648060330213	0.050274460885532946	0.9426744685812348	0.3238439112805565	0.0805603339839085
10														9.73673150792115	0.4067690199896858	0.869971365320551	-0.09249790390914514	0.02150349607023294	0.9954806564816675	0.32043682482625163	-0.9459383890784798	0.05020762255753808	0.9427430079654181	0.3236327605857719	0.08060680621354366
11														9.738214372414042	0.39375711849841144	0.7595125348483247	-0.09249189954463216	0.02140721825572689	0.9954832894253809	0.3202627105467173	-0.9460030961146597	0.050099285172015784	0.9428027602589497	0.3234499546267228	0.08064168959090384
12														9.749666982563484	0.4495030202003592	0.7219699030151795	-0.09251043753129568	0.021353457323787406	0.9954827215015283	0.3202345395444792	-0.9460151447268186	0.05005182943940931	0.9428105104582274	0.32341826758520853	0.08067816037614423
13														9.766958823338461	0.47617781619727917	0.7360242194876822	-0.09258082396561024	0.021349499504507402	0.9954762628534928	0.3203689999887892	-0.9459679931667264	0.05008252939199517	0.9427579195530698	0.3235564166803433	0.08073877844595018
14														9.752306623502689	0.4961611868294102	0.7611960155559127	-0.09264043935981225	0.021369795923188523	0.9954702812326556	0.32043894834182585	-0.9459419320738108	0.050127253366315766	0.9427282903259061	0.3236312607994899	0.08078476126428147
15														9.72474909351662	0.46578941570895604	0.7699610392973966	-0.092665358556	0.021473735961863583	0.995465725169645	0.32013836451328787	-0.9460393990800948	0.05020839526343679	0.942827958267278	0.32333934813445214	0.08079051341303867
16														9.687060768843907	0.4313444884517348	0.8000528735372024	-0.09265223840403708	0.021577771635317405	0.9954646967572358	0.3201330085893572	-0.9460362108550827	0.05030253037853974	0.9428310662734061	0.32334175035434487	0.08074461559472873
17														9.692798290662322	0.4601567943182277	0.7805781456490974	-0.09255649354187667	0.0216366054631989	0.9954723264899248	0.31990592040915616	-0.9461127447383373	0.05030781580292648	0.9429175454886838	0.32311380587607275	0.08064719996302672
18														9.68264555702481	0.45615604922254094	0.802112783974049	-0.0925429533559381	0.021678582635189625	0.9954726720704543	0.3198176893270577	-0.9461410873051193	0.05033575773333093	0.9429488042187988	0.3230279894498559	0.08062549630434213
19														9.68704781959322	0.43260712020365416	0.7995277080779681	-0.0925540949155696	0.02170899600514123	0.9954709734627168	0.31974966952103645	-0.9461626550956572	0.050362475550006724	0.9429707781026665	0.32296276812472646	0.08062978388701342
20														9.669674877043931	0.40624723195554036	0.7864822789850889	-0.09259347789164751	0.021725121480496074	0.9954669592450504	0.31980452159287	-0.946142367836628	0.050395314794676044	0.9429483102592021	0.32302111212915574	0.08065882033701477
21														9.662075061661087	0.5063667842187148	0.7758736864461621	-0.09268241090644208	0.0217419844062004	0.995458314959823	0.31991296694655535	-0.9461028131631066	0.05044958378726405	0.9429027862340963	0.3231358120650457	0.0807315469506305
22														9.714282960107768	0.5224502976188178	0.7213569106730646	-0.09263893735108353	0.0217778473806427	0.9954615776864154	0.31989901061504195	-0.9461065332336829	0.05046831461480947	0.9429117934854666	0.3231225048429891	0.08067959202929298
23														9.721443439813523	0.545171980425072	0.7563737608897764	-0.09264895277113316	0.021839362411814556	0.9954592979122036	0.3197332889255216	-0.9461600136905792	0.050515863309572334	0.9429670171873886	0.3229617171469211	0.08067796325038734
24														9.679331294444951	0.5341923081837141	0.7893794911909058	-0.09267156729568415	0.021901129366010685	0.995455835859861	0.3195723951585769	-0.9462115750456086	0.05056816688707241	0.9430193343020977	0.32280643702101364	0.08068791328462055
25														9.72007456338667	0.49428790840065157	0.7728946070242739	-0.09258337345652307	0.022014389564892184	0.9954615440143812	0.31918890736348915	-0.9463385376099689	0.05061436209544001	0.9431578660942783	0.3224263309444679	0.08058846529235147
26														9.749376500765155	0.39829530280870046	0.7944276422199957	-0.09259651956286657	0.02214655945968952	0.9954573895797563	0.3189637768454154	-0.9464085154616826	0.05072505221409612	0.9432327356624939	0.322211811958707	0.08057018436701707
27														9.736454641372625	0.34871512653236364	0.7783500674878309	-0.09259585205375781	0.02220327692647861	0.9954561882253609	0.31915313270228246	-0.9463409285871633	0.05079492855694459	0.9431687473982363	0.3224063606297368	0.0805409992285307
28														9.752435918786377	0.32428201434784654	0.8084192257635937	-0.09266051697119704	0.022288164870085753	0.9954482740460971	0.31915751076864574	-0.9463339669544564	0.05089701669256205	0.9431609151754495	0.3224209371225216	0.08057435938586588
29														9.746170053984686	0.4192904546586195	0.8523669039053102	-0.09272344008213196	0.022365381739396145	0.9954406829937116	0.3190903739526525	-0.9463518633333792	0.050985135247425206	0.9431774472017936	0.3223630569173412	0.08061242227358878
30														9.756233855743087	0.42457567656814005	0.8312074021933537	-0.0927612832550413	0.022425276205168015	0.9954358097416427	0.3191068829800111	-0.9463424877709451	0.05105578394540777	0.9431681406640384	0.32238641848970717	0.08062788357460404
31														9.760441291819099	0.4592765181249458	0.7583798125516528	-0.09276508366478031	0.022441525073392837	0.9954350893981212	0.31911177054201756	-0.9463399169427726	0.05107288421740272	0.9431661132346751	0.32239283421491516	0.08062594677068402
32														9.731174466508087	0.49865337416634115	0.8077733887143627	-0.09277440046889907	0.02246175318398297	0.9954337648791799	0.3190048788065151	-0.9463752466452531	0.051086004294496834	0.9432013559761655	0.32228770094596937	0.08063398727388149
33														9.722743059951888	0.42451656960651113	0.7891148012000198	-0.09283237829925006	0.022491465132415484	0.9954276887526795	0.3192166250401932	-0.9463003229413179	0.0511511984131878	0.9431240087269822	0.32250555467674347	0.08066765997221215
34														9.689375483205547	0.423776807996815	0.7459258772717998	-0.09284217675114204	0.02257368213951405	0.995424913838695	0.3191928216894727	-0.9463040619629788	0.05123050745677521	0.9431311005358809	0.322488838856526	0.08065157168305781
35														9.70788386055678	0.5034195224219158	0.7430387606424899	-0.09288628819615108	0.022650636206865776	0.9954190505232281	0.31934262581426576	-0.9462480830376422	0.051330816140369745	0.943076044019352	0.3226476623609891	0.08066015850342578
36														9.6964221626531	0.447986978600259	0.7812111645935821	-0.09289735988168069	0.02274036221090367	0.9954159715684345	0.319483142265913	-0.9461951698180566	0.05143172582052258	0.9430273603320913	0.32279649400124516	0.0806338708334915
37														9.71369491147542	0.47551669449440925	0.7943995822525277	-0.09291615775432144	0.022796619517435057	0.9954129302790634	0.3197750870178186	-0.9460919441008298	0.05151627927422062	0.942926551408391	0.3230949511306084	0.08061743733826537
38														9.713681448869266	0.4762091335659195	0.7941493760787731	-0.09291098589142494	0.022873950463742215	0.9954116390171789	0.31979584243311177	-0.9460809186751242	0.0515898680103935	0.9429200219865842	0.3231217691660773	0.08058631662884513
39														9.718112243896044	0.45298337840242897	0.7914270627044443	-0.09293541670632177	0.022942492976540302	0.9954077809308324	0.3196019463096448	-0.9461433535134673	0.051646398881016575	0.9429833531068879	0.3229340437586467	0.08059776141419306
40														9.748744237236279	0.40872174633918945	0.7968869732124543	-0.09295835044742701	0.02299745480236376	0.9954043711752057	0.3196630811158235	-0.9461191535896327	0.051711331276379446	0.942960370139505	0.3230010283009177	0.08059823858446263
41														9.777383486079348	0.4924261617790096	0.7722898303395381	-0.09291100244973388	0.023000558241325852	0.9954087200463801	0.3199282915639573	-0.9460289491368049	0.05172152020271689	0.9428750892248416	0.3232649095025625	0.08053796870760416
42														9.724915166695473	0.5348591988066088	0.7565390817305035	-0.09296475677759547	0.022996788877109903	0.9954037882681702	0.32023255784641547	-0.9459238131521364	0.05176145870108825	0.9427664943624295	0.3235726926257282	0.08057325669545307
43														9.710214720900625	0.5549052354933163	0.7816044232837683	-0.09298088402893012	0.023028025392737017	0.995401559799717	0.3201713406104099	-0.9459429091329064	0.05179117022144167	0.9427856956153562	0.32351464063885105	0.08058169417047234
44														9.70446411113297	0.5271801493308408	0.8010542553827499	-0.09297153694403837	0.023055079756399116	0.9954018066166497	0.3201998021199325	-0.9459319010743712	0.05181626435958711	0.9427769513732398	0.3235448992446839	0.08056251071142206
45														9.735142983022158	0.4826324285247638	0.8062103846503825	-0.09294572664231171	0.023134975753971915	0.9954023632661299	0.319871901087206	-0.9460406683649645	0.05185576818858975	0.942890798976101	0.3232210183395182	0.08053020867833038
46														9.706290716687379	0.4575681558016446	0.7600176606055999	-0.09291055648998298	0.023151345536235324	0.995405266056285	0.31985499623896824	-0.9460462383872249	0.05185842471914692	0.9428999999330211	0.32320354273003205	0.08049260893439264
47														9.722344946152166	0.43237178041599655	0.7897546964592176	-0.09292325494086551	0.02319027595887105	0.9954031744937056	0.31968731984633325	-0.946101442047522	0.05188524727769725	0.9429556120097401	0.32303911908088	0.0805011883315141
48														9.772710989636282	0.518585790172592	0.7760947590694963	-0.09299063447132128	0.023180383099966922	0.9953971125836965	0.3197969281866785	-0.9460631969206268	0.051907149360063964	0.9429118021442864	0.3231518176827455	0.08056200162205585
49														9.746416750055381	0.5395796755448063	0.7690758458498628	-0.09304326783069466	0.023065269213609574	0.9953948682143633	0.3201951123621189	-0.945931698080082	0.051848940073475874	0.942771467711447	0.3235447664905686	0.08062718986649459
50														9.712620842800053	0.6022610173867345	0.8216289551715346	-0.09309256669543098	0.023017996561927684	0.9953913531171209	0.3202853567096552	-0.9459023033895513	0.05182781801032335	0.9427359462243002	0.323634059203628	0.08068414602607499
51														9.69834114244657	0.5572141065206188	0.7521951195283846	-0.09320941210959016	0.022963149520807025	0.995381685213401	0.32021407587958145	-0.9459275380569927	0.05180770554678962	0.9427486150097335	0.32356419225483257	0.08081622601747435
52														9.695819571398586	0.45268064890425774	0.7859701193980401	-0.09324721472136377	0.022909726211673254	0.9953793756109348	0.3200218849664903	-0.9459955829542142	0.05175277938054684	0.9428101346979691	0.3233689865711047	0.08087983948286737
53														9.678510313077977	0.425375906145872	0.7733006377147039	-0.09325995503217988	0.022828781476369353	0.9953800417547566	0.3199147743056558	-0.9460362913507246	0.05167081021552966	0.942845224821316	0.32325559884350363	0.08092403751649291
54														9.687422130111955	0.37706490968523576	0.7684638918326059	-0.09325831882863278	0.022770813733530793	0.9953815228399463	0.31987164623363035	-0.9460541131596115	0.05161148040473956	0.9428600192526169	0.3232075262361544	0.08094367843915451
55														9.726411449232074	0.40632195870609583	0.7931310014450289	-0.0932938704273496	0.022741696374946385	0.9953788570120801	0.3198180450555323	-0.9460733634225306	0.05159078482867088	0.9428746850974115	0.32315322413426495	0.08098964090602656
56														9.734583631048396	0.538516414628937	0.7417247152912906	-0.09330937091485136	0.022696368562711067	0.9953784386621707	0.320087643241991	-0.9459829942828913	0.05157591658287161	0.942781661861994	0.3234208548959715	0.0810042509692942
57														9.721152455225718	0.6101697392826214	0.7502431992693968	-0.09338589458499241	0.022691555438033584	0.995371371903152	0.32021468880860904	-0.9459382898644066	0.05160721693336165	0.942730941342102	0.3235519202233299	0.08107112405801226
58														9.693043414504924	0.7014588340968616	0.7835360450076955	-0.09347622864268251	0.022659866585003713	0.9953636145274198	0.3203055899480448	-0.9459071220738071	0.05161439196660003	0.9426911072704436	0.32364524846874654	0.0811617484830594
59														9.687841106461281	0.5512703589874663	0.7792691604961263	-0.09343231898161364	0.022670791744866498	0.9953674884038455	0.3201357552783187	-0.9459656273365207	0.0515958340392319	0.9427531490067265	0.323473441103724	0.08112603120094763
60														9.704422709507158	0.4038359636469329	0.7852769829219434	-0.09342518765889413	0.02267522204097014	0.9953680568595182	0.31992320025452814	-0.9460384286054773	0.0515794294324827	0.9428260074105941	0.3232601520556966	0.08112948812316284
61														9.708880572573388	0.3798455135214799	0.7827489579687672	-0.09340135864673121	0.022668925613653274	0.9953704365784969	0.3197724342668127	-0.9460908563217914	0.05155270960266495	0.9428795132391105	0.3231071206207353	0.08111727385801354
62														9.733703766948237	0.36459574857408616	0.7365871923531958	-0.09337965946504595	0.02266517006398422	0.9953725580224534	0.31981151477837483	-0.9460780429182027	0.05154543358265881	0.9428684076865409	0.3231449005849135	0.08109586310418665
63														9.74340595395013	0.4332940162194694	0.8098199347450933	-0.09342756599135082	0.0226226458632805	0.9953690299617911	0.3203752477130854	-0.9458859997816833	0.0515691387341799	0.9426722604201906	0.32370957865214695	0.08112409089252415
64														9.74013360197357	0.5096034485539409	0.7965553151049148	-0.09348715621103987	0.02262878205649302	0.9953632954083717	0.32069522036552867	-0.9457746813795291	0.051621969123194944	0.9425575458603462	0.32403424245608803	0.08116084313036398
65														9.736826313749429	0.5864106223293329	0.7832895678923426	-0.09355555039582347	0.022730264363229363	0.9953545569655631	0.32071511107951467	-0.9457613527197656	0.051742450917346	0.9425439918196865	0.3240660407751128	0.0811912846366763
66														9.684363451219296	0.629024854369954	0.7673444275135218	-0.09353925333650914	0.02272941803085085	0.995356107953946	0.32079896522755014	-0.9457328531429019	0.051743544477738906	0.942517072521332	0.32414926197997973	0.08117157115427209
67														9.74121954338419	0.5633873632689173	0.7809451308639688	-0.09354634031650305	0.022769405544745297	0.9953545279871533	0.3206276217732339	-0.9457895583020373	0.05176909853259809	0.9425746709780768	0.3239809648389496	0.08117465153971554
68														9.739960235187354	0.5113114043267772	0.7975799988873686	-0.09352751940720683	0.022753762454104598	0.9953566543745593	0.32038301139623226	-0.9458747490996945	0.05172702411961361	0.9426597101405234	0.3237332625940244	0.08117540001756807
69														9.716987820419682	0.45590496768131494	0.8034641835957941	-0.09347306098669789	0.022710253101316108	0.9953627636564728	0.3200940592386502	-0.9459771616470742	0.05164303324039607	0.9427632683287468	0.3234369398294191	0.081153963821123
70														9.682478046635113	0.4017642712796347	0.776717206463691	-0.09342160165662666	0.02265955078439813	0.9953687503142539	0.3198455501699089	-0.9460659238868878	0.05155668430530838	0.9428527076804831	0.3231807735901042	0.08113543739503054
71														9.70425544443169	0.4039847512258001	0.7872649928611715	-0.09330996591990215	0.022594040144321592	0.995380710889047	0.3200502854187151	-0.9460010953368228	0.051475648853917755	0.9427942856548436	0.32337507166058677	0.08104010096911696
72														9.74636108659284	0.41523021508704594	0.7546082640438238	-0.09334484538771348	0.022552529325411186	0.9953783819536022	0.32014187007576556	-0.9459712047920817	0.051455444110510284	0.942759737612896	0.32346539710646743	0.08108152693937021
73														9.703614728532356	0.525802673949375	0.8121719609169202	-0.0933897850436039	0.022508116471283424	0.9953751718535203	0.3205105761061332	-0.9458461175499224	0.05145962028477852	0.9426300009301766	0.323834072649334	0.08111827622503948
74														9.68309978516358	0.5748513677999408	0.7855678829603079	-0.09339758047339769	0.02243801708893728	0.9953760230942034	0.3206288463714841	-0.945808962357665	0.05140573507312832	0.9425890063204677	0.3239474372688167	0.08114199314017118
75														9.686977098140611	0.6726682395739055	0.8073701992156693	-0.0933534312935233	0.022375576407432818	0.995381570276525	0.32065310729693325	-0.9458046297131637	0.05133407439476148	0.9425851270026209	0.32396440544229643	0.08111930941442075
76														9.64673521182489	0.5903803096907059	0.7998348057014651	-0.09331092023781279	0.02231607889422707	0.9953868920109196	0.32035898061185564	-0.9459094856415986	0.051238350037621394	0.9426893420982886	0.3236622276324992	0.0811145282810854
77														9.709929260722154	0.4297196652838954	0.7701185315714789	-0.09324507572575252	0.022278014436318966	0.9953939149531074	0.31981857627166976	-0.9460979705076287	0.051134220175027945	0.9428793316880272	0.3231134789421841	0.08109405404478137
78														9.697153909675597	0.37816208417521785	0.7540230974243122	-0.09319583427508349	0.022194140051104594	0.9954004001511969	0.3195655582790664	-0.9461898064567689	0.051016704314279876	0.9429699838465484	0.32285022890605797	0.08108846563936334
79														9.698549662814417	0.3712897202354268	0.8082833681238473	-0.09315245143909268	0.02210694783366693	0.9954064012494431	0.31964418030497355	-0.9461681104769877	0.05092646378425125	0.9429476225051153	0.32291978814232897	0.08107152174508836
80														9.747699507010546	0.462656544018764	0.7400020156720232	-0.09311045104848942	0.022098888537340544	0.9954105098053571	0.3196688222192381	-0.9461608193628039	0.050907249028723595	0.9429434171818115	0.32294170221283214	0.08103313498419312
81														9.777839633076074	0.5396563012292521	0.7692946577731318	-0.0930987698788176	0.02208472382061935	0.9954119167564844	0.3197748449072878	-0.9461254308574663	0.05089909281406013	0.9429086210294036	0.32304633422860757	0.08102097462933755
82														9.709600324731412	0.5485177460153263	0.793652960296125	-0.09302714312217164	0.022019257271118364	0.9954200635670127	0.3197479020253854	-0.9461392593457032	0.050811229813194386	0.9429248272226647	0.3230103005075736	0.08097602097606083
83														9.68220283041241	0.5163966323117933	0.8017749710714452	-0.09290517745680826	0.021898833189496675	0.9954341108816083	0.31961886465392375	-0.9461917170808067	0.05064598587263852	0.9429805986122175	0.32286479466274015	0.08090682918228187
84														9.683638883035105	0.50896574014508	0.8561079354630822	-0.09285022980032298	0.02173956670845356	0.9954427286716984	0.31947431926055486	-0.9462502377153594	0.050464313694248586	0.9430349909515728	0.3227040112284865	0.08091431874527877
85														9.693885686868533	0.5115268341383193	0.8347780907481382	-0.09281366835831645	0.021568358911552704	0.9954498625544806	0.31916683984003524	-0.9463646922232838	0.05026328341497907	0.9431426993368487	0.32237970656818904	0.08095167373569617
86														9.689980184482522	0.411161446937872	0.8135800380311334	-0.09273947873715838	0.02136074469382898	0.9954612537259726	0.31885272359126754	-0.9464837329278382	0.05001483741266399	0.9432562375844598	0.32204388193087835	0.08096547640136253
87														9.744114450672072	0.3549459734117293	0.7187491162672993	-0.09269467480469307	0.021174383275134434	0.9954694082470692	0.31862484097317323	-0.9465716130081241	0.04980353563772866	0.943337642616721	0.32179780443644446	0.08099546334339702
88														9.738006970129986	0.4469684611779591	0.762145769148503	-0.09257325685757978	0.021047188229875446	0.9954834041722629	0.31853121837940307	-0.9466119650455375	0.049635174527339204	0.9433811822548264	0.3216874313681568	0.08092676607429594
89														9.814857826494855	0.5104228541269732	0.7558796893623801	-0.09246527849714042	0.02090742753921393	0.9954963845972213	0.31888926293962255	-0.9464985950478098	0.04949795505216892	0.9432708043050366	0.3220299505422047	0.08085110203030438
90														9.768390712847628	0.5214364450033405	0.7911794163662658	-0.09241890762741545	0.02078701667186411	0.9955032121750481	0.3188389764177926	-0.9465225257879546	0.04936410935938165	0.9432923473821938	0.3219674022535113	0.08084886675962821
91														9.730728691564236	0.48483276053150437	0.8214413905674199	-0.09239938460550884	0.020688611779945743	0.995507074343092	0.3186666790417559	-0.9465865202473329	0.04924944014447977	0.9433524799315589	0.3217855513050032	0.08087124073682411
92														9.748463380349655	0.38808393189197243	0.810524069878247	-0.0923030334202875	0.020568204489830766	0.9955185076056989	0.3184396729685369	-0.9466714905162671	0.04908425127676855	0.9434385643491074	0.321543213282094	0.08083091791586466
93														9.738342116981789	0.38186678659421747	0.8322682537439375	-0.09219944963717247	0.020363084395665615	0.995532323071681	0.3183368550379495	-0.9467183503396781	0.048846820312752504	0.9434833905327378	0.32141827876462437	0.08080459061734163
94														9.710865529479367	0.3487558715647315	0.8408742512717523	-0.09216090776312591	0.020157585774464415	0.9955400739377702	0.31821496922482984	-0.9467705663954734	0.048628468703366956	0.9435282722004235	0.32127739780902553	0.08084078930554772
95														9.760184822454756	0.43859984879388575	0.7737647444950867	-0.0922213903539375	0.019914675413265026	0.9955393617855457	0.3183453584610795	-0.9467369957154177	0.04842823236535296	0.9434783770216857	0.3213914539108501	0.08096965756131358
96														9.664126912037924	0.5953084964404649	0.7623426431869149	-0.09233789501040451	0.019656902599643256	0.9955336856808188	0.3184936300319416	-0.9466970626626721	0.04823358969582456	0.9434169389904572	0.32152492551286993	0.0811554157146595
97														9.629109489150402	0.6040597545886295	0.8318331314203776	-0.09233256858043565	0.019460725020328418	0.9955380339098163	0.31812491800411274	-0.9468322100188526	0.04801356699613246	0.9435418556292117	0.32113867137499763	0.08123250841433866
98														9.664426514438457	0.46944854039489137	0.7397707187035166	-0.09223505210673988	0.019325684585358077	0.9955497039717175	0.3177620271204158	-0.946963736165205	0.047822343191865735	0.94367366673188	0.32075878834935095	0.08120228083905756
99														9.690833094830417	0.32457724780731106	0.7232696608574926	-0.09217885198926817	0.01918875705133463	0.9955575577779348	0.31730322652435783	-0.9471270355723564	0.047634451032345704	0.9438335243480034	0.3202845142849491	0.08121642830167802
100														9.734207810178495	0.2701950668434491	0.8157148034442732	-0.09216902633595103	0.019029692155631106	0.9955615206509059	0.3170827225133137	-0.9472095880409672	0.04746096719205642	0.9439085854402571	0.3200497885325383	0.08126939886851559
101														9.725413201652257	0.3159977634453324	0.8222937715401422	-0.09225852885451774	0.018784993823013352	0.9955578777050931	0.31708973393733336	-0.9472174074983479	0.04725762968727429	0.9438974862161413	0.32004110195282376	0.08143235582783409
102														9.729597568958079	0.41203095466926515	0.8455672701878162	-0.09230158178117492	0.018538308454162683	0.9955585111485665	0.31712284454079076	-0.9472171719697691	0.047039670448990156	0.9438821533809449	0.32005618295113514	0.08155072215314224
103														9.747120479825888	0.494629249910066	0.7900937130577298	-0.09231975765008699	0.01827321729591494	0.9955617268040622	0.3170368892395615	-0.9472585140739433	0.046785877951874666	0.9439092505154996	0.31994905382588956	0.08165739248339249
104														9.712394976832428	0.4390899632360479	0.7642904183491401	-0.09234575052218058	0.01799991690710348	0.9955642949362099	0.31700727472851775	-0.9472809472220111	0.04653165373557597	0.9439166542283769	0.31989812444199617	0.08177126542251817
105														9.751580534071877	0.34422602207556674	0.7650928313167484	-0.09240358753354533	0.017802233770573522	0.9955624829631281	0.3169074701678166	-0.9473230726011745	0.046353548616093726	0.9439445070356441	0.3197844220568725	0.08189438959408119
106														9.721182747254526	0.2652452416339685	0.7360483880368337	-0.09238825827874542	0.017568156410845248	0.9955680637769296	0.3169886211231214	-0.9473066916575825	0.046132916873193264	0.9439187591157846	0.319845887610097	0.08195110962169538
107														9.71246525320208	0.3111124287106217	0.7424483061731999	-0.09242822074286927	0.017350433255607672	0.995568172691428	0.31739382793509163	-0.9471787384176262	0.04597385646541843	0.9437786721467147	0.32023647505466357	0.08203912509008715
108														9.734197111849701	0.43410401807727567	0.7785797281932684	-0.09238934100527763	0.01713121649087407	0.9955755777891266	0.3177155698342086	-0.9470802195226062	0.04578072164062166	0.9436742162174054	0.32053951271341696	0.08205726315147599
109														9.712528478202362	0.5517330159672239	0.7927705733601701	-0.09227695468846492	0.01693463507831061	0.9955893640292605	0.3179699686968372	-0.9470045444173717	0.045579511403465445	0.943599524501976	0.320773457423788	0.08200199004922931
110														9.728428370123417	0.5246234576428123	0.8227862619729462	-0.09223697250467239	0.016766108020597276	0.9955959213079442	0.3180314069544389	-0.9469919793385467	0.04541162030848045	0.9435827282722764	0.32081940198545217	0.08201552423745423
111														9.698036893386673	0.4460666773611132	0.7930767803238256	-0.09215463174315275	0.016620731411659706	0.9956059838789768	0.3179329212885578	-0.94703335044501	0.04523815542020426	0.9436239618668061	0.32070482446050036	0.08198923196708263
112														9.689360553040375	0.3702490159387223	0.7740783726907369	-0.09210110799173615	0.016468768961486968	0.9956134619196284	0.3179524001158901	-0.9470344479048654	0.04507799620737038	0.943622624340493	0.3207094232017823	0.0819866373401214
113														9.745895497421559	0.30232728693538957	0.7871394675976899	-0.091964814205441	0.016284893471957163	0.9956290851480611	0.3181470089737449	-0.946978686088866	0.04487592644685945	0.9435703225670136	0.3208834217251042	0.08190772877311603
114														9.72276921488734	0.36768395243908925	0.8168333207888195	-0.09187378558025117	0.016098834630410397	0.995640514968478	0.31829645522700706	-0.9469376125860293	0.044682484933055044	0.9435287881739886	0.3210139956347908	0.08187454118045834
115														9.746207223675336	0.4207818546762029	0.8110454964842227	-0.09170573386847503	0.015913900558077065	0.9956589808487005	0.3187707991565777	-0.946786946049806	0.044493329778288904	0.9433849882103923	0.32146730247213384	0.08175290490599307
116														9.730506320520538	0.44478545111646955	0.7807881065936486	-0.09160594072741202	0.015744112947786826	0.9956708665673272	0.3191307190065531	-0.9466733184670706	0.04433071496044197	0.9432729911376693	0.32181011638857915	0.08169646981456935
117														9.749624468165745	0.5220324012682956	0.7780647542144535	-0.09154710976058461	0.01556805173869713	0.9956790459076386	0.31950476426423974	-0.9465543465530035	0.04417662995373922	0.9431520727363836	0.32216844163679076	0.0816802479574203
118														9.711759434286245	0.4854827254863868	0.8081649006094769	-0.09149364693237466	0.015420007245544987	0.9956862638138392	0.3197030433613422	-0.9464939625971822	0.04403569952414163	0.9430900681464686	0.32235291551905043	0.08166836119243609
119														9.725974176194502	0.40669590550640833	0.854193191924684	-0.09147106251844317	0.015318465842774825	0.9956899062087405	0.3198381180657677	-0.9464526105109341	0.043943535237685794	0.9430464585341991	0.3224791476378921	0.08167359661998153
120														9.782823301594968	0.3972639224967069	0.7968020134596536	-0.09135915154598873	0.01518280998859009	0.9957022585640991	0.3198913153792887	-0.9464420802725536	0.04378281665528608	0.9430392631135283	0.32251646620011865	0.08160929638271719
121														9.778596668165196	0.41963293913016886	0.7994363681852479	-0.09135895025306257	0.0150371099356994	0.9957044880552868	0.3199412024300346	-0.946431417783812	0.0436485786635446	0.9430223587997701	0.32255457950013006	0.08165398978134647
122														9.772701664993859	0.3901858980237692	0.8183640327997416	-0.09127477643996063	0.014937505135238505	0.9957137069088537	0.3201322541501771	-0.9463716716534907	0.043543069994029016	0.9429656701272653	0.32273445746017454	0.0815978855689603
123														9.767489201249964	0.541114142386404	0.791356042514943	-0.0912890180901762	0.014784492654147524	0.9957146850142822	0.32056578778378864	-0.9462296540507567	0.04343981465826771	0.9428169975550349	0.32315764043566286	0.08164097347144028
124														9.769166493145091	0.5921940232936896	0.7757239608246779	-0.09132515596919105	0.014640913473183886	0.9957134926975096	0.32079190303390925	-0.9461578384343243	0.04333474030347942	0.9427365861337332	0.3233743781160743	0.08171132567126987
125														9.681749558827368	0.5224832278724023	0.804045458166498	-0.09135855475718907	0.014513417698801934	0.9957122953842531	0.3207609882700079	-0.9461734856575639	0.043221793607667675	0.9427438691801321	0.323334340498061	0.0817857039950039
126														9.685564781953296	0.4395979385919656	0.8725922777007112	-0.09135006455856753	0.014426978833020465	0.9957143305119682	0.3205808357781112	-0.9462391267904675	0.04312125534607411	0.9428059680745309	0.32314606173147953	0.08181399238810894
127														9.68264174239079	0.3924761865788742	0.8351644727280242	-0.09133199671902664	0.014303849840842014	0.9957177643564699	0.3204906574248303	-0.9462756219467263	0.04299053166380368	0.9428383768593194	0.323044652005055	0.08184099175973586
128														9.673716736380483	0.3174928847991976	0.8168176534466909	-0.09136741291011735	0.01426895585637214	0.995715015833788	0.32036114877404487	-0.9463209679010929	0.04295765434602811	0.9428789584110391	0.3229133360663623	0.08189167952976756
129														9.715908193558723	0.3285501726170713	0.7850066546591398	-0.09149328733795686	0.014203436508283568	0.9957043942674197	0.32051936783319446	-0.9462677326973716	0.04295012106601351	0.9428129789178252	0.32307219076722005	0.08202466907562361
130														9.702977049167675	0.40000773799227707	0.794420918171664	-0.09160122235635654	0.01414666168519152	0.9956952787002593	0.3205482093313745	-0.9462587024351272	0.04293382769145601	0.9427926927788906	0.32310112972404637	0.08214376673719254
131														9.698615481041848	0.4236237996009099	0.7982896433268696	-0.09174648221643045	0.014082002200214189	0.995682821090604	0.3206643141793021	-0.9462195452440952	0.04292982424813635	0.9427390840592261	0.32321860932206736	0.08229671910277314
132														9.694260120554349	0.4473639985336741	0.8020195823407128	-0.09183697028315169	0.014053480686702036	0.9956748819618781	0.32074218538537125	-0.9461927351722705	0.042939008156145986	0.9427037824276656	0.32329832598979835	0.08238792999442596
133														9.709017581588533	0.5502224768685321	0.8032985946911154	-0.0920280070585448	0.01406553061272875	0.9956570728746997	0.3207927850617877	-0.946172031727725	0.043017152724591334	0.9426679346244543	0.3233583882085194	0.08256220567580769
134														9.717449306471213	0.5031148218091192	0.7989984620392311	-0.09211644348830944	0.014127956114210027	0.9956480109431745	0.3205867583703783	-0.9462386694813132	0.04308724562798752	0.9427293838619	0.32316061213314473	0.08263490527067502
135														9.730201714764664	0.432043606285009	0.7916629299194438	-0.09220509318210257	0.014177468561449968	0.9956391013698034	0.320196916592078	-0.9463687577296132	0.043128980955213864	0.9428531992819489	0.32277728200494293	0.08272043777263216
136														9.741301949450182	0.30855914333811146	0.8002047106599253	-0.0922169472557503	0.01421153399347494	0.9956375178449144	0.31984047380714364	-0.9464890565351564	0.04313394456818609	0.9429730144355415	0.32242285613886273	0.082736907638648
137														9.729264201268611	0.25226897727557335	0.838822248461748	-0.09236001233238111	0.01420422959611592	0.99562436088293	0.319835687020108	-0.9464888896253969	0.04317308332813985	0.9429606362040452	0.3224236679855618	0.08287470598679836
138														9.742329313677327	0.3027078217490403	0.8561332027886621	-0.09241203910123957	0.014184932637819614	0.9956198083180199	0.3196192496705048	-0.9465629335012251	0.043152614771509196	0.9430289233471123	0.32220707721528297	0.08294003329617278
139														9.735627049506123	0.3386863975726757	0.7513085452400343	-0.09247849159267868	0.01413998913082129	0.9956142773685616	0.3197301077199821	-0.9465260125311646	0.043141231081440884	0.9429848285153434	0.3223174961264652	0.08301231764415812
140														9.747788575375033	0.5172870285819661	0.7393051855055425	-0.09260728707556481	0.014094710967122087	0.9956029477172401	0.31993847419750443	-0.946454818935016	0.04315841103260659	0.9429015129421934	0.32252847135941337	0.08313917280009081
141														9.669098294939655	0.5230255194854055	0.7867258410347194	-0.09267613323583279	0.014116555065718545	0.9955962320145304	0.3196862589717706	-0.946539086930662	0.043179309131833876	0.9429802914977004	0.32228012626524927	0.08320871385478101
142														9.668770136015825	0.40124298517576984	0.7626788110487034	-0.09268870555818148	0.014157855682314952	0.99559447516769	0.31930115527620007	-0.9466686381062002	0.043188677514328144	0.9431095249764119	0.3218975687212182	0.08322487098299342
143														9.719083012638688	0.30674378055143764	0.7950869219694896	-0.09269693677778285	0.014215940482271316	0.995592881125724	0.3187338083834991	-0.9468594511707521	0.043196517475053986	0.9433006081336779	0.3213332954501078	0.0832398698329539
144														9.719098953561629	0.30662305153264324	0.7949386229941816	-0.09263794269805253	0.014231944356698306	0.9955981434959085	0.3184360091429851	-0.9469610197755836	0.04316636545593297	0.9434069745628133	0.32103314281459205	0.08319255712396795
145														9.70882685176661	0.30183689346758175	0.8166493740012434	-0.09262029131203459	0.0141947340983207	0.9956003169752164	0.3181284540141761	-0.9470674934342656	0.043098139480575115	0.9435124632901378	0.32072055188904697	0.08320191832019902
146														9.710545042288604	0.3533017931969984	0.8006001521933278	-0.09254935888243132	0.014129082096695778	0.9956078471012346	0.31810164962096793	-0.94708048595191	0.04301038987863995	0.9435284609797785	0.32068508254703476	0.08315720746232169
147														9.737129136460998	0.3896536717141072	0.73836365623645	-0.09253981640954229	0.014080729557704036	0.9956094191167594	0.31781573331488944	-0.9471798405542737	0.04293610724203553	0.943625742567681	0.32039363711332236	0.08317677116172167
148														9.707691377459806	0.30578519185108244	0.7630570473860049	-0.09255978548103355	0.013971928666782485	0.995609095639968	0.31767625667309685	-0.9472315797842532	0.04282674638115991	0.9436707487560868	0.32024540507048316	0.08323700182832411
149														9.708805615308682	0.2988016698548435	0.8180169125167199	-0.09262635126677576	0.013874169110483586	0.9956042720290517	0.31791137818442294	-0.9471549874272096	0.04277599107728161	0.9435850330902271	0.32047611022236366	0.0833207543464336
150														9.681370447833432	0.38917356868124586	0.851292238634469	-0.09256988423343554	0.013802641822568518	0.9956105180298799	0.3178834473259324	-0.9471683661997816	0.04268723446906622	0.9435999843414523	0.32043965601834257	0.08329163464392292
151														9.706282557198893	0.37307890311766445	0.8049634307989805	-0.09251276126607016	0.013709972743969095	0.9956171079537992	0.3176446315985231	-0.9472542283368792	0.04255954551616378	0.9436860055227936	0.32018973054310074	0.08327820504292133
152														9.693184165442403	0.3212627992166256	0.7883815375870888	-0.0924311231013561	0.013569387450372589	0.9956266163609948	0.3174738277374255	-0.9473193410822879	0.04238436873621443	0.9437514800963065	0.3200030276976166	0.08325386525795048
153														9.760151488461695	0.37954567666738004	0.8047839871121721	-0.09238389138569442	0.013415735096239612	0.9956330823472395	0.3173857928123574	-0.9473563944889922	0.04221516719959045	0.9437857146266353	0.31989979661238543	0.08326250653233341
154														9.747023177135768	0.32737310539066994	0.788524270238438	-0.09235296014494787	0.01322736082668613	0.9956384723774117	0.31725151271731916	-0.9474103087269641	0.0420140999719264	0.9438338881556638	0.3197479379815279	0.08329974625125014
155														9.757342082974619	0.3298972540436932	0.7672815517983298	-0.0922863981214439	0.013000703459231183	0.9956476296518441	0.3175367067761844	-0.947324137320017	0.04180213751258802	0.943744489028416	0.3200124381339746	0.08329693192455045
156														9.779459401088534	0.45290228055004517	0.8038934214842492	-0.09234108907412547	0.01283581903407513	0.9956446981822022	0.31768584744671924	-0.9472796876920172	0.04167607968816098	0.9436889453631763	0.3201506442845907	0.08339507997176537
157														9.68338696254414	0.43084406814362125	0.8372278599669827	-0.0922998798413508	0.012739651842060773	0.9956497544077514	0.3175833220945259	-0.9473190672151943	0.04156222344796767	0.9437274848750974	0.32003794487759923	0.08339153512105368
158														9.693284645249493	0.3123386547754862	0.7907285977537477	-0.09224673089647517	0.01264571421990715	0.9956558775755717	0.31750752841512053	-0.947349433785217	0.04144900127325454	0.9437581840909433	0.3199517717073892	0.08337477881630628
159														9.69870568416863	0.28135677672708514	0.8420154484085867	-0.09215145551856768	0.012586212501987354	0.9956654541062802	0.3174273391681628	-0.9473804322374195	0.04135457607400517	0.9437944657574711	0.3198623201761898	0.08330727781577713
160														9.711974797103752	0.33056068875123834	0.8582700689161763	-0.0920500006806741	0.012448754922555066	0.9956765669009021	0.31740606473693267	-0.9473947648655807	0.041189192435709676	0.9438115211433385	0.31982524604253804	0.08325637843990102
161														9.716290317516005	0.30513116860536704	0.8552979828337156	-0.09199330711657355	0.01230116310564644	0.9956836409382268	0.31737232000322324	-0.9474130855155469	0.041027501626132334	0.9438283964479599	0.3197766826711399	0.08325161426851518
162														9.742981275532452	0.34070879253671044	0.7931285269509329	-0.09193334543085724	0.012132096203448128	0.995691253471477	0.31759804701803745	-0.9473443680321773	0.04086721042649158	0.9437583062035635	0.319986656908417	0.08323940696782922
163														9.742423687176249	0.4672605121529596	0.7639132333694446	-0.09182881653314978	0.011935948347860187	0.9957032698505904	0.31784892832730316	-0.9472687540394975	0.040668985500529525	0.9436840187347167	0.32021780206211925	0.08319274023134104
164														9.753951888595848	0.46385735363246156	0.7960974455975618	-0.09170460018413579	0.011823832953089253	0.9957160555496558	0.3178317720242287	-0.947280864562484	0.0405207147727166	0.9437018761224365	0.32018613431572984	0.08311202316718619
165														9.789775320039789	0.3237868356577048	0.7567474083812306	-0.09160652780454703	0.011764793089731718	0.9957257823854673	0.31769284741549847	-0.9473317393378933	0.04042066728883667	0.9437581781180113	0.32003775603293716	0.08304418070385555
166														9.792255624127039	0.2468506994279185	0.7693124805911047	-0.09151103252694626	0.01170294922132517	0.995735292085892	0.3177562866646818	-0.9473140456879453	0.040336597866095225	0.9437460851367416	0.3200923926335357	0.08297100076058894
167														9.783827299714808	0.29392527987850614	0.7747568683931789	-0.09150277736216356	0.011623339478144867	0.9957369832010793	0.31802804960900416	-0.9472251647147911	0.0402820927079271	0.9436553403636857	0.32035821405172843	0.0829771853745585
168														9.75238321767766	0.4082793431665885	0.8108078226913491	-0.09150039503956958	0.01150032833289652	0.9957386304426671	0.3184963630281028	-0.9470710556111976	0.04020550163053488	0.9434976123157247	0.3208179516045316	0.08299456297131008
169														9.693140325704277	0.492140929156682	0.8548458811597978	-0.09149801850878392	0.011464922894886903	0.9957392571110074	0.31886086572394845	-0.9469484976090515	0.04020312407928958	0.9433747192493239	0.32118078774885483	0.08298819592137618
170														9.723321787312443	0.4467974552257324	0.8601477036981421	-0.09147834535698474	0.011420586742811545	0.995741574169322	0.3189248013824743	-0.9469287872973502	0.0401602147743291	0.9433550145061501	0.32124047376695986	0.08298117027423524
171														9.681137419782251	0.37142726084231914	0.7975061037915462	-0.09147458771248501	0.011383048659421552	0.9957423492078904	0.3190183149214235	-0.9468985031765457	0.04013152659334973	0.9433237591344376	0.32133106118960014	0.08298574918164653
172														9.721645740938284	0.33013681759148183	0.7808730109937847	-0.09142349674694733	0.011321853696713319	0.9957477390742252	0.3191994855812921	-0.9468399367558775	0.04007271601432122	0.9432674237177915	0.32150575390340397	0.08294948800206331
173														9.739148020558604	0.35620585239826885	0.7946947524240044	-0.09148380371590281	0.011265673300008883	0.9957428374147458	0.3194231033495374	-0.9467651217734497	0.04005852268689966	0.9431858749494831	0.3217279732917291	0.0830151582385742
174														9.722224158688187	0.4516313720018928	0.80632674157035	-0.09150399503772183	0.011230000083769842	0.9957413850946711	0.31970995740915065	-0.9466683829175244	0.04005640919700354	0.9430867203102665	0.3220137572875377	0.08303359616436651
175														9.719830794208733	0.5276616246616646	0.7933419178040145	-0.09152834660597342	0.011189710975589517	0.9957396005662621	0.32001164722273717	-0.9465666041972696	0.04005258368993622	0.9429820292080687	0.32231421654455716	0.08305683839336231
176														9.731210866489183	0.5258346327097013	0.8264086036948903	-0.09157476843860357	0.011160537393229475	0.9957356597965702	0.3199721974459947	-0.9465806225254905	0.040036457396187775	0.9429909091009298	0.3222740564556038	0.0831118396418512
177														9.733528975653256	0.4497055356024714	0.8403191562841947	-0.09154234085904994	0.01112695168280517	0.9957390174017964	0.31992193191141693	-0.9465995944150194	0.03998956533132611	0.9430111119770079	0.322219488547124	0.08309418685033015
178														9.728662938264412	0.35153514188008633	0.8187098655933651	-0.09155753127876876	0.011135209597866152	0.9957375284548377	0.3197252922145879	-0.9466662218932362	0.039985020253615666	0.943076325640949	0.3220234019968072	0.08311421407899544
179														9.714247552365592	0.3075096006007425	0.7483054191895379	-0.09161494425247807	0.011174813805998801	0.9957318040145234	0.31964277381329187	-0.9466920160162016	0.040034035021781295	0.9430987218412296	0.32194619169603755	0.08315918778979381
180														9.732811187154434	0.32821974222246036	0.8165760195153541	-0.09167605623506625	0.011205309393833351	0.9957258366410777	0.31967082757287324	-0.9466803724777038	0.04008533852109983	0.9430832745373339	0.3219793679832068	0.08320591253676257
181														9.706784105181685	0.3503040832605515	0.8091380777622399	-0.09171644236111975	0.011272219850641918	0.9957213622596729	0.31971092013267	-0.946663431257385	0.040165600554660924	0.9430657568529045	0.32202683891196693	0.0832207502479112
182														9.731541760168229	0.3360845104364077	0.7636520132021003	-0.0918081742813921	0.011316233272210846	0.995712409282744	0.31982917736725314	-0.9466199988768655	0.04024767112454242	0.9430167317920207	0.3221529459602878	0.0832881922567913
183														9.70234501349906	0.37623004352603395	0.8135273018241889	-0.09196086851016944	0.011390512463966523	0.9956974715688812	0.3201737329370754	-0.9464970964142543	0.04039835660672206	0.9428849237314133	0.32251124430815403	0.08339375213295391
184														9.700945740126045	0.4474004102573755	0.8550385059988377	-0.0920079357341711	0.011492363076483825	0.9956919530421319	0.32027170844548347	-0.9464587849697323	0.04051914514188906	0.9428470568079151	0.32262004578844217	0.08340104030595552
185														9.695537539808203	0.47870243642335886	0.8037844810457352	-0.09207212038726992	0.011608894071654774	0.9956846680680713	0.3203787088883324	-0.946416518376245	0.040660258676405575	0.9428044375894915	0.32273984464738803	0.08341933312214028
186														9.699676069216329	0.45623402725404655	0.801399256606008	-0.0921670937256659	0.01174320995371872	0.9956743061132731	0.320272202859748	-0.946446146755047	0.040809402934728234	0.9428313438306606	0.32264808741492246	0.08347016699374576
187														9.736925419110985	0.4344691610372032	0.8426755836523867	-0.09224892353373582	0.011833579820018786	0.9956656579874142	0.3201944383336912	-0.9464678977841298	0.04091503543029801	0.9428497535488035	0.32258097410221476	0.08352159828587602
188														9.755630706610715	0.39207555697027263	0.8161094940003993	-0.09232949271107255	0.01191184275226892	0.9956572566792055	0.32000615338296884	-0.9465279437217078	0.04099894573024224	0.9429057888107124	0.3224018606587139	0.08358058190182355
189														9.736270757730003	0.31428983402110033	0.8191316806328707	-0.09232377873585929	0.011987003657449286	0.9956568844854378	0.3197210334106021	-0.9466223694463742	0.04104327543689609	0.9430030650399758	0.3221217183100955	0.08356325698632561
190														9.776733564867488	0.27439653837923655	0.8032435315669515	-0.09240593294225558	0.01208319782864331	0.9956481004287132	0.3194609476359189	-0.946706046679995	0.041138353334762345	0.9430831599030023	0.3218721135944662	0.0836211456367289
191														9.756021740868665	0.2665992868489997	0.8472350469214597	-0.09245032247479157	0.012174206976133278	0.9956428709928125	0.3192947177629989	-0.9467583743814978	0.04122455272226913	0.9431351022430217	0.3217147326794446	0.08364095703684615
192														9.763760167217818	0.3481025153699327	0.8133228936367333	-0.0926125456808255	0.012229034267108446	0.995627122522991	0.3193829991658458	-0.9467236871260114	0.04133715130919688	0.9430892938774921	0.3218147152561921	0.08377274507994631
193														9.735156887502681	0.4465575661163791	0.7934613533492351	-0.0926889396662659	0.012257751045405607	0.9956196603135419	0.31959241114959297	-0.9466499246061444	0.0414078613160693	0.9430108436275444	0.32203053858677777	0.08382649353502147
194														9.765626513617274	0.5246348555463082	0.8247371602415442	-0.09279994657131291	0.012353204847649846	0.9956081399056328	0.3196729710130479	-0.9466168537270783	0.04154183245282855	0.9429726197085752	0.3221240918805047	0.08389700775419612
195														9.700341577340355	0.5181297901106037	0.7932349193157152	-0.0929514897039534	0.012450209220859904	0.9955927946967945	0.31946769489165683	-0.9466807381029448	0.04166499760561282	0.9430272596709112	0.32193255876848065	0.08401794523999995
196														9.717296168824703	0.4237928681015169	0.7829271534510075	-0.0930200939410229	0.012563147237605765	0.9955849684756641	0.3191656391829362	-0.9467780896184894	0.04176773615257329	0.9431227687253398	0.321641751565075	0.08405966191937436
197														9.688725476899714	0.3356299443237495	0.8617615789063897	-0.09313937859147708	0.012704618801352735	0.9955720209089371	0.31874289108353737	-0.9469145088518924	0.041903249390553954	0.9432539560157176	0.32123434683559454	0.0841455220068616
198														9.71501835440836	0.25189169717596566	0.7753268481690049	-0.09325053575252712	0.012792832327038456	0.995560485868598	0.31846577423717237	-0.9470035289600869	0.04199841397791121	0.9433365720788021	0.32096831553627525	0.08423450718334541
199														9.731604039725024	0.2209241010259669	0.8603911965714196	-0.09338950127120293	0.012881831841117714	0.9955463120622436	0.31812092480192666	-0.9471150412429328	0.04209721908351588	0.9434391757052936	0.3206355517715024	0.08435262108969299
200														9.701910050641466	0.32522406826079764	0.7864008625974535	-0.09353669897853922	0.012873521758965695	0.9955326003610935	0.3181559049014251	-0.9471013869806049	0.042140039816912334	0.943412797305906	0.32067621554605047	0.08449295037166982
201														9.668223840322485	0.3883215551673903	0.839976968131007	-0.09368419890211344	0.012836380185215601	0.99551921037206	0.31811163136235987	-0.947115885064296	0.04214843117903033	0.943413091316867	0.32063488207401264	0.08464639111820826
202														9.66450812643049	0.4713234082229621	0.7741780919426018	-0.09382373047868259	0.012913018280856059	0.9955050786198641	0.31802498567980364	-0.94714007026434	0.04225867701457256	0.9434284371813394	0.32056035509485503	0.08475755222418963
203														9.702511356431566	0.3208801413945272	0.8449100142109635	-0.09384683029750496	0.012962531537481337	0.9955022577670288	0.31773813590900735	-0.9472350532360398	0.04228747935248772	0.9435227869172961	0.3202775775746059	0.08477631668550956
204														9.692615356048417	0.25347446865657625	0.7719032761528347	-0.09389417252999677	0.013002490996589483	0.9954972725190119	0.317559595806325	-0.9472932593065964	0.04232474434193323	0.9435781830226002	0.32010375833496574	0.08481625094048417
205														9.715264341488519	0.2501210099794073	0.8375852337135585	-0.09393613641607829	0.01300429759563937	0.9954932900423102	0.31754565246538924	-0.9472973072450783	0.04233875631797862	0.9435786988246128	0.32009170550057525	0.08485599091509594
206														9.690956829816045	0.3238074046742497	0.8142965187691011	-0.09400324068825994	0.012990079764782031	0.9954871413372499	0.31767110607938076	-0.9472543760596452	0.04235817982580459	0.9435297870774446	0.32021930744968674	0.08491840809880458
207														9.730686940278233	0.4117999923795245	0.7698354233880396	-0.09412149253879315	0.012997979977858648	0.9954758646791823	0.31774953267790806	-0.9472257098843182	0.04241095397560868	0.9434915893240604	0.32030377308212493	0.08502419552170842
208														9.696967415634917	0.4749790794627501	0.8229968600029647	-0.094237227244932	0.012972597458840246	0.9954652463629046	0.3179017018736239	-0.9471734428668401	0.042437920232154175	0.9434287747080015	0.3204593279075334	0.08513498816592024
209														9.695146380380121	0.4230113480337031	0.8396807198620325	-0.0942350993002063	0.012975516004363974	0.9954654097678639	0.31789214811565264	-0.9471765943787331	0.04243914734677348	0.9434322064813649	0.3204498947503739	0.08513246577057482
210														9.731283419392843	0.2842056430327788	0.8011429007316333	-0.09422802581469147	0.012958348026351402	0.9954663029794097	0.3177665020198259	-0.9472200963596564	0.042409188231883416	0.9434752404515712	0.32032197905986926	0.08513695076768302
211														9.739883957534019	0.23619475703086074	0.7955292067073774	-0.09418761153736782	0.012946993246570365	0.9954702753968893	0.31755475050185444	-0.9472930292259611	0.04236622727605946	0.9435505679435471	0.3201066886926529	0.08511188863862745
212														9.748696337060421	0.3101349464850107	0.8148111321857293	-0.09413500745199449	0.012925714864283538	0.9954755277088739	0.3177120739536873	-0.9472413067264278	0.04234318003241089	0.9435028555526795	0.32026057004641967	0.08506191179066375
213														9.73053893139767	0.41152148474327516	0.7718524169086862	-0.09410275899503695	0.012863557219245286	0.9954793818282677	0.3178127840601216	-0.9472102236837174	0.04228269666184034	0.9434721538219755	0.32035499222691977	0.08504689246417885
214														9.721969208557065	0.4585884361235638	0.7776118964845474	-0.09407318793058883	0.012762265975805653	0.9954834804655165	0.31804724628578673	-0.9471353052634978	0.042197898685223695	0.9433960909621174	0.3205804705383394	0.08504103401777685
215														9.675302108079874	0.47018791971371465	0.81306828890996	-0.09401375660194089	0.012647475887337056	0.9954905599367936	0.3182284461745548	-0.9470794272622113	0.04208579929157777	0.9433409084816158	0.3207500581611198	0.08501370815767773
216														9.677867138499876	0.39334650042311486	0.8261732087566913	-0.09392787944837061	0.012580508508877042	0.9954995149511577	0.3182315183507514	-0.9470824438440201	0.04199458644413323	0.9433484267175664	0.32074378461335223	0.08495393128864487
217														9.731413363310509	0.2800945894271459	0.8010123875342242	-0.09379885988766273	0.012468954085521289	0.995513083323262	0.3181787187650409	-0.9471069380044352	0.04184197544213303	0.9433790737602844	0.32067580695755055	0.08487019514124
218														9.722885056648007	0.32699206412740023	0.8064218204490008	-0.09371759975809368	0.012404731588359391	0.9955215387573507	0.3184197411400418	-0.9470288338133073	0.04177626573207302	0.943305825248573	0.32090888202171775	0.08480335778541259
219														9.699726741909963	0.3934611571812092	0.8362797097282989	-0.09364861184754886	0.01228559585388142	0.9955295081681618	0.31880276809856145	-0.9469044233493935	0.04167502962262917	0.943183297430421	0.32128037160067413	0.08475960283301681
220														9.686935716192618	0.46423496602406383	0.8445040702224632	-0.09357020059545912	0.012195499164689982	0.9955379889088359	0.3190103374563445	-0.9468385787873079	0.04158257226314943	0.9431208947725179	0.32147779942035637	0.0847053854446716
221														9.701641543556706	0.44398892750147956	0.8196069446336245	-0.09348479941190713	0.01211473686622111	0.9955469981018364	0.3192421927417595	-0.9467641020457387	0.04149888493634221	0.9430509077734611	0.32170012158559835	0.08464051700847841
222														9.68430707497041	0.41669425465124693	0.8053762701274413	-0.09337932186010561	0.012050836088490169	0.9955576726631737	0.31920167657061443	-0.946782080369432	0.04140026528706106	0.9430750722627842	0.32164960693415834	0.08456322153067392
223														9.730242751520016	0.3450246738666204	0.8399239077015288	-0.09325449429307997	0.011985513235708428	0.9955701616494033	0.3191147788495914	-0.946816193526269	0.04128987280439905	0.9431168311582181	0.32155161817180106	0.0844701109101792
224														9.713221171702598	0.4397480662012224	0.8506913350702684	-0.09314853688992725	0.01192157282403239	0.9955808486389577	0.3192672738632902	-0.9467683346415863	0.041208353035522005	0.9430756904486346	0.32169488124836343	0.0843839170898853
225														9.709022830110623	0.462866113231637	0.8530684881191557	-0.09303730021761453	0.011866150635035294	0.9955919119987486	0.3190627400439864	-0.9468419363585472	0.04110128305077829	0.9431558877957773	0.3214802358184765	0.08430557095622865
226														9.703473691345136	0.3698786346581305	0.7764916581833272	-0.09295129513641032	0.011737341751465485	0.995601472247341	0.31898258350069963	-0.946875768779232	0.04094374093750294	0.9431914801119032	0.32138530350242756	0.08426932144600074
227														9.735558221593227	0.375547544112756	0.7658752771649577	-0.0929368438233617	0.01160237506786796	0.9956044033414767	0.31898285648706437	-0.9468814193650399	0.04081072075572226	0.9431928118510585	0.32137355609015683	0.08429921184958894
228														9.742663652872231	0.39629743085632435	0.8015937301536129	-0.09288881458786125	0.011456694169265286	0.9956105726051596	0.319033055270464	-0.946870944341168	0.040661092056875764	0.9431805647749825	0.3214096434788113	0.08429865544341975
229														9.76863394648492	0.37384058335234954	0.810059494506379	-0.09294767190585035	0.011326012822909848	0.995606574767773	0.3193314606211891	-0.9467737175072015	0.04058258364288045	0.9430737768302223	0.3217005583941823	0.08438366064618746
230														9.75583031816989	0.4447817857951721	0.8191950214846692	-0.09298886132599898	0.011242887314972555	0.9956036707214959	0.31950705685536684	-0.9467166140437402	0.040532620359127275	0.9430102397582518	0.3218714808403792	0.08444191810176921
231														9.746432343509507	0.43382279301863735	0.8955456356132275	-0.09298051627823861	0.011214375393192172	0.9956047716725616	0.31950077075424066	-0.9467200358499721	0.04050223706999709	0.9430131924210174	0.321862410829175	0.08444351612263062
232														9.706300477263632	0.4108287010235238	0.8170052821608722	-0.09299796493023066	0.011196933426682737	0.995603338283211	0.3194634408979029	-0.9467332433919211	0.040487970883775926	0.9430241186992556	0.321824167113739	0.08446725408725259
233														9.683719257646668	0.3495138161338939	0.8767613131514775	-0.09296783941856179	0.011135008539395058	0.9956068463096626	0.3192875867123386	-0.9467961709598528	0.04040355958541278	0.9430866438484087	0.3216411389119693	0.0844663243793401
234														9.705424941291035	0.3513374021561792	0.8878333996511358	-0.09291759644586856	0.011073540336713872	0.995612222190514	0.3190823760149838	-0.946869318355966	0.0403104362757421	0.9431610454144906	0.32142786229653353	0.08444744964843781
235														9.761064489743656	0.41185854296990954	0.8720355158193818	-0.09280564038462913	0.010939146947549688	0.995624150057068	0.3188021253909502	-0.9469717467230345	0.04012126312241365	0.9432668328521956	0.3211305746458674	0.0843968960839393
236														9.74268006391547	0.3900270954738075	0.8044646470323767	-0.09278462102528401	0.01075657864997806	0.995628098296217	0.3187570907056937	-0.9469947047600773	0.03993677855331523	0.9432841200963985	0.3210690349007846	0.08443780907770043
237														9.695076899316822	0.4072050222813822	0.7858815751008209	-0.09272808290335383	0.010618078547905307	0.9956348522671445	0.3187119923995134	-0.9470163685984623	0.0397827036199592	0.9433049181159827	0.3210097413078481	0.08443090336877396
238														9.779071919175003	0.370447645567433	0.7910427341423316	-0.09261992899919369	0.010576443082065679	0.9956453623675031	0.31852575989072923	-0.9470828525733759	0.03969144300111707	0.9433784442302137	0.32081491426242836	0.08434987699204388
239														9.751311578689615	0.3390240901533842	0.7985472401122127	-0.0925142737858049	0.010569211610933077	0.9956552620821166	0.31824732960327407	-0.9471792097162659	0.0396255205852889	0.9434827748010401	0.32053055462341407	0.08426397336072156
240														9.759799567827011	0.29121141067339923	0.7928194511309339	-0.09251429573766384	0.010583544856479554	0.9956551077870464	0.3182444704654859	-0.9471796102176403	0.03963890773093154	0.9434837370629694	0.3205288981764822	0.08425949994786192
241														9.713134454722168	0.30368314195961593	0.8281595340661615	-0.0924852374475203	0.01055526879573751	0.9956581075624933	0.31831163275327146	-0.9471583089247095	0.039608613821120714	0.9434639289915763	0.320592769936463	0.08423829625677265
242														9.72397954542991	0.4299787151883571	0.8317095717346108	-0.09248758265619483	0.010543675314961254	0.9956580125551474	0.31846850573405705	-0.9471054178580891	0.03961235059133858	0.9434107577878951	0.3207493700301014	0.08423766209577921
243														9.691392204691313	0.5514557460066003	0.8137666329161033	-0.09254240085073101	0.010559039671234838	0.9956527560982313	0.318467054575621	-0.9471045579104003	0.03964456501557423	0.9434058719314351	0.320751403841927	0.0842846233824533
244														9.683327248404197	0.47123265717433166	0.8491793807894639	-0.0925768997317527	0.010564496413213414	0.9956494910617849	0.318313424505434	-0.9471560930993081	0.03964718255408789	0.9434543345682819	0.32059901235092564	0.08432195362970801
245														9.677660736700577	0.3148248528842417	0.8974100636217686	-0.09256933809117074	0.010625326675150315	0.9956495468177593	0.31783486101319286	-0.9473162606861426	0.03965984574288192	0.9436164044621562	0.32012342099988744	0.08431533998770291
246														9.704027585855476	0.23024363347456597	0.8101345240206321	-0.09255161093339748	0.01066067719061628	0.9956508169410954	0.3177164005100339	-0.9473552715290886	0.03967717672660892	0.9436580356043076	0.32000678034673624	0.08429218452226139
247														9.701632586247465	0.3065127468809978	0.7972644092738047	-0.0925570771831154	0.010677121243281823	0.9956501325994366	0.3175430576313657	-0.9474133075614658	0.03967910288259374	0.943715843892346	0.31983436922476066	0.08429936090598461
248														9.71238331841366	0.43319042286569676	0.8015983925108752	-0.09266372546970436	0.010667682136590362	0.9956403138382393	0.3177121637683029	-0.9473549130469249	0.03971963896507977	0.9436484594252978	0.32000760816531515	0.08439618321094733
249														9.693422388104546	0.4767028706295747	0.830054472305187	-0.0927372566083427	0.01061835002806541	0.9956339949396263	0.31775967041236264	-0.94733977429641	0.03970067877824757	0.943625239751558	0.3200540621187433	0.08447960833897455
250														9.72024305437181	0.44891645105315914	0.8932063789275209	-0.09276963685059963	0.010595146037168934	0.9956312255845832	0.3175274232169424	-0.9474190021323436	0.03966824805513108	0.9437002331163307	0.31982022650077296	0.08452746735338551
251														9.73906899947749	0.4052600681540833	0.8664282482346899	-0.09280288647752516	0.01057203089055525	0.9956283726492976	0.31723398003832587	-0.9475188711793728	0.03963067836928871	0.9437956485227523	0.3195249926403506	0.08457867880087316
252														9.738601536428348	0.28290869327044976	0.8414884381535704	-0.09277697188175166	0.010557906125905098	0.9956309377006569	0.3168706876317535	-0.947642696837806	0.039576336992575956	0.943920230108579	0.3191580325609977	0.08457392886440135
253														9.738155486210568	0.160671421540508	0.816154542699451	-0.0927288914834235	0.010593058332789118	0.9956350434769831	0.3163384783820224	-0.9478217280914956	0.03954666676975627	0.9441034476047646	0.3186247932487513	0.08453946621542069
254														9.751373217235049	0.21082340010728068	0.8326207592241389	-0.09268496554841071	0.010610612255810531	0.9956389466412245	0.31620303069522626	-0.9478673207185371	0.03953714320757026	0.9441531340521219	0.31848855116223396	0.08449794221244283
255														9.79143266190612	0.2981281796829854	0.7873679288214402	-0.09268210085612655	0.010564225786748482	0.9956397065778474	0.31609357641607444	-0.9479061143818893	0.039482265207614525	0.944190065150757	0.31837461496004316	0.084514646184281
256														9.744682862621355	0.31012867193829574	0.8236385684818109	-0.09280066043922813	0.010458390330779638	0.9956297803369138	0.3162932002648875	-0.9478413885990254	0.03943746346896973	0.9441115659116979	0.3185707521577579	0.08465238910628309
257														9.664407280960539	0.3844751956762018	0.9123517902122973	-0.09284437214353458	0.010260944867914207	0.995627759542536	0.31654020224747204	-0.9477652311492044	0.03928570968970746	0.9440244821626194	0.318803669419146	0.08474666626178007
258														9.6982806794979	0.4427950308278578	0.8870685792488974	-0.09291892592224638	0.01015827204134756	0.9956218572905025	0.3166075909262423	-0.9477455260489311	0.03921799615120197	0.9439945479574217	0.31886553178944954	0.08484731028909664
259														9.670443877048909	0.411055530716684	0.8954394532117258	-0.0928788216842577	0.010032293912563245	0.9956268766768984	0.31679545962853306	-0.9476875355887648	0.03910206706096597	0.9439354645532133	0.31904182792942015	0.08484191646918343
260														9.675233523647046	0.322744321196863	0.7969170495024529	-0.09278815059391643	0.009958863125173884	0.9956360681266095	0.31657402098887855	-0.9477664301283228	0.03898311373848776	0.944018669489271	0.3188096845565843	0.08478877690259123
261														9.676687464235156	0.2521624433396621	0.7553993547966765	-0.09271308833378172	0.009883647620583469	0.9956438101858136	0.31664401217320204	-0.9477467236624932	0.03889366711775441	0.9440025703389103	0.31887060274776313	0.08473892787148524
262														9.672476604121758	0.2756881265781431	0.7581013481215709	-0.09268149932541686	0.009880856033821217	0.9956467789165154	0.31675835747804165	-0.9477086178022311	0.03889111352479313	0.9439673101599476	0.318983925029811	0.08470521189377894
263														9.76213374219325	0.3963494385816756	0.7158871777230302	-0.09267005044455451	0.009773963721485451	0.9956488996547803	0.31727321459263325	-0.9475388071943243	0.038831896204201855	0.9437955123079684	0.3194912807791914	0.0847074521716436
264														9.754122225706242	0.500685800100736	0.871455219920896	-0.09266379341145353	0.00972344943393505	0.9956499766091019	0.31752888499896265	-0.9474542722893162	0.03880475630689709	0.9437101401287978	0.31974342284373547	0.08470723089711502
265														9.771606304979478	0.5265987536360428	0.8852250837393828	-0.09261228095888824	0.009646614232935113	0.9956555168578306	0.3176236682670023	-0.947425824532979	0.03872353760465505	0.9436833000388457	0.31983003273902655	0.08467927365033295
266														9.80604318655729	0.4566459770797756	0.8873389676751676	-0.0925427915798746	0.009588128584175099	0.9956625429917798	0.31737440634657244	-0.94751345149352	0.0386231204720435	0.9437739760783643	0.31957209989154334	0.08464251324331534
267														9.756028204224513	0.30001275086187534	0.858773444854581	-0.09247552528015435	0.009458520845192664	0.9956700324944908	0.3169929511045664	-0.9476484238793362	0.038443902884954556	0.9439087594540997	0.31917550203991363	0.08463600134335036
268														9.733827944798838	0.17373542419945764	0.8223553028862395	-0.09238889681515744	0.009304479555400591	0.9956795259547532	0.3166263176613367	-0.9477793736977366	0.03823655001891399	0.944040288710975	0.3187909745481038	0.08461824766071308
269														9.763068591708636	0.13287934448267655	0.7732495402181283	-0.09230452081843815	0.009104687515184395	0.9956891985462784	0.31649590359713115	-0.9478321414127284	0.03800756123717641	0.9440922722079208	0.3186398223232826	0.08460759532732814
270														9.729656002167607	0.1936767728938838	0.825588682482144	-0.09229340282830079	0.00892406653331751	0.9956918643992637	0.31655485441433195	-0.9478192655815607	0.037837335254372384	0.9440735945576987	0.31868322960102496	0.08465250870450514
271														9.710550018112519	0.36371773108707495	0.8249141451713046	-0.0922219968431589	0.008731699233664542	0.9957001861638638	0.316751202809337	-0.9477611711678446	0.0376488770801168	0.9440147132418534	0.3188612862281157	0.08463865150067695
272														9.710296085789297	0.49070074008101	0.7967024180325363	-0.09221814362749375	0.008586235991592445	0.9957018080416421	0.31691903892010964	-0.9477100055740151	0.03752423356783868	0.9439587579740188	0.3190172752162434	0.08467491575284064
273														9.692421631425983	0.5263847757382805	0.8788632152739831	-0.09217357137850274	0.008462203420395026	0.9957069969888752	0.3167585222141067	-0.9477694684371886	0.037377443773272984	0.9440169867878794	0.3188438894060238	0.08467882169924129
274														9.718570468838752	0.3752340411112929	0.9160787571666892	-0.09212769745500643	0.008320050600347906	0.9957124404764895	0.3164073023425312	-0.9478939209894638	0.037195881163680694	0.944139240994654	0.3184774580864842	0.08469475960654754
275														9.704641076916053	0.20112231006261314	0.8738796325721367	-0.0920039833312512	0.00812974005781869	0.9957254513056177	0.31607062677169556	-0.9480160549344718	0.03694480313425896	0.9442640657905665	0.3181186365384366	0.08465168128038386
276														9.765940964315957	0.16722852798659374	0.8140281988041759	-0.09194627289211904	0.007971024061504989	0.995732065204621	0.3158660569744969	-0.9480915401726691	0.03675684296019849	0.9443381369788221	0.31789761595272736	0.0846557075390692
277														9.751338265672757	0.1849184335427366	0.8391608578182108	-0.09195407606526834	0.007774079976997639	0.9957329017238981	0.31591156614819277	-0.9480833747812316	0.03657590514569417	0.9443221538589355	0.31792684401280435	0.08472420897995508
278														9.682809568551844	0.3216450229196349	0.8356675092386386	-0.09194362690659624	0.007600602110242272	0.995735205925161	0.3159417547947701	-0.9480796976008172	0.03641008890877076	0.944313071522608	0.3179420039011911	0.08476853842572135
279														9.728228838982023	0.3773380813173284	0.8422570841918686	-0.09188492215706201	0.007433245590854509	0.9957418882120891	0.31609395808386004	-0.9480352668534615	0.03624558545485118	0.9442678490465878	0.3180784174729119	0.08476054267675714
280														9.69198160036578	0.3929788896179877	0.8562181582079809	-0.09185386241230986	0.007306654799384998	0.9957456908044259	0.31604218204406076	-0.948057685240415	0.03611045036295246	0.9442882013076143	0.31801452522208656	0.08477354905276568
281														9.738695406863226	0.3789176305414092	0.8211723064510814	-0.0918270521665106	0.0071413261008702045	0.9957493630185913	0.3158752348413803	-0.9481201984028929	0.03592945023740585	0.9443466675455111	0.31783185938791664	0.08480731485967358
282														9.747094387724847	0.3291921594009129	0.8155265854325556	-0.0917763760287853	0.006948700960454912	0.995755397855309	0.31572520340109445	-0.9481782217355128	0.035716323492456126	0.944401764473341	0.3176629902608146	0.0848264809961905
283														9.748004574518282	0.32062928975459765	0.8701792378673753	-0.09169498523033104	0.006757245876142459	0.9957642137131555	0.31540148993088996	-0.9482948641658294	0.03547887746372244	0.9445178292827425	0.3173187517700151	0.08482263814651991
284														9.747157375972874	0.3252347232422951	0.81636112466969	-0.09163295065709859	0.006599216694005955	0.9957709840585328	0.31513747527058067	-0.9483898737630156	0.035284827105355326	0.9446119700882248	0.31703800668499704	0.08482410201850593
285														9.705878473900839	0.2425911417095645	0.8075302959286749	-0.09154984408504563	0.00645012090693875	0.9957796051277058	0.31487465462973835	-0.9484842942642417	0.0350926688336225	0.9447076679692014	0.31675848761216985	0.08480260966411346
286														9.710945165070045	0.21065875797478856	0.8587646096697517	-0.0914468342227982	0.006341922311439263	0.9957897652275924	0.3146781799033985	-0.9485551661354941	0.034939088287327114	0.9447831071750343	0.31654837990275825	0.08474670245871885
287														9.725590979784615	0.18975340644562633	0.833566913685202	-0.09130311716709988	0.006235795470248495	0.9958036230353969	0.314435994232931	-0.9486416723978421	0.03477043170528765	0.9448776356366563	0.3162911510698286	0.08465318321601306
288														9.753602907902547	0.21915302110872711	0.8254408356448455	-0.09124489460041191	0.006135200805815061	0.9958095844690547	0.31432877194755826	-0.9486817421576682	0.03464643160024916	0.9449189342664792	0.3161729137794114	0.08463389543756811
289														9.789968033250101	0.3291744774852698	0.783361535330161	-0.09110723763046424	0.005970633370802114	0.9958231885171672	0.3143056332606472	-0.9486967904360138	0.03444370359048951	0.9449399135140656	0.31613090857041715	0.08455654022293546
290														9.747502458667713	0.3161184728174514	0.8158216192208074	-0.09107714401807449	0.00579648629371024	0.995826970203237	0.3143062447264474	-0.9487029412841148	0.034268261187706345	0.9449426111481429	0.31611569076133683	0.08458328257411979
291														9.744252191634919	0.3316177115079884	0.8734909310690991	-0.09101339922104079	0.005600148597925764	0.9958339216445244	0.31417128834856645	-0.9487555425423766	0.034048818959295596	0.9449936310577092	0.31596132489721285	0.0845900610566307
292														9.703763805164149	0.24252005137026195	0.9186861863092031	-0.09094689566131864	0.005508174438459218	0.9958405104151588	0.31391657607892287	-0.9488445634566538	0.033917217775595504	0.945084676329298	0.315695509016373	0.08456536025133521
293														9.721616628950988	0.20491103502092556	0.8366482434630955	-0.09081238971205757	0.005416145608834411	0.9958532900189312	0.31403618175827785	-0.9488092597572058	0.03379741329843364	0.9450578746412663	0.3158031886566809	0.08446277057263502
294														9.704129734746202	0.17779846894032397	0.8220312644337766	-0.0906736243312733	0.005364107507317528	0.9958662160156261	0.31393791479269006	-0.9488454249215242	0.0336948847914674	0.945103845884805	0.3156954005938992	0.08435125688221051
295														9.64002694210949	0.16306989024114724	0.84237997277154	-0.09051321406042767	0.005322747081506679	0.9958810302661443	0.3137368376511458	-0.948915772366155	0.03358651002116042	0.9451859895179939	0.31548458808355323	0.0842194745925251
296														9.715619028496148	0.17379850915903025	0.8526498823577633	-0.0903900410184495	0.0052755983339713985	0.9958924683653864	0.3135942022639405	-0.9489663403336558	0.03348971812648355	0.9452451093717048	0.31533324115285905	0.08412270937688027
297														9.739539246911436	0.2277675995705711	0.8473471565573839	-0.09030005766363647	0.005244213398375469	0.9959007971739837	0.31357517291394366	-0.9489747511642239	0.03342951666999533	0.9452600227016554	0.31530845196193436	0.08404801962827124
298														9.734390072709953	0.3203659660948508	0.8915905857124078	-0.09022530792898897	0.005142183307850129	0.9959081040738386	0.3136915819443129	-0.9489401685925758	0.03331888126525609	0.9452285359776192	0.31541419496009104	0.08400535930096464
299														9.703572116577254	0.3718795148075864	0.8325407483994657	-0.09022956365457391	0.005090914459178142	0.9959079819103143	0.31394122659552726	-0.9488584952941114	0.033293575234432576	0.9451452439103745	0.31566063818310375	0.08401684007051602
300														9.711788718078342	0.3239298328502843	0.8269128003352405	-0.09024709613854626	0.005062316375519099	0.9959065390846044	0.31375359608014863	-0.9489218993705509	0.033255222774190935	0.9452058731225358	0.31547044528434076	0.08404912591315145
301														9.704593027772098	0.30188262399404375	0.7917651547771694	-0.0902887464640203	0.005038984700971499	0.9959028822606851	0.313536808922367	-0.9489945412389237	0.033226949145304496	0.9452738289579036	0.3152522312877562	0.08410362034630914
302														9.684849841404239	0.2229963175361598	0.7935378749518008	-0.09025781880657108	0.0050214452516730845	0.9959057742737839	0.3133220761239765	-0.9490670563589549	0.033181307200137844	0.94534797971839	0.3150341372323534	0.08408739275673521
303														9.752103072694673	0.28207041098499097	0.810934318905849	-0.090237842394292	0.005001537463586558	0.9959076846892103	0.3131818830165302	-0.9491146479706036	0.033143523618615	0.9453963401400725	0.31489104406228774	0.08407966709686143
304														9.711716188066973	0.3230950744551371	0.828090393097129	-0.0902912853152198	0.0050511437314446905	0.9959025904892154	0.3130196258925386	-0.9491664326362271	0.0331933270811115	0.9454449733338375	0.3147341244663864	0.08412035005964069
305														9.695003440657905	0.29051977937533635	0.8683849633551072	-0.09026974702691853	0.005117082884302904	0.995904206354432	0.3127372276528453	-0.9492584355031852	0.033224224085102366	0.9455404799434598	0.3144554628064201	0.08408901652113437
306														9.639068358488739	0.22923394565120275	0.8832950556146754	-0.09023236369712323	0.005191584466586935	0.9959072085251498	0.31237198627970975	-0.9493777530937162	0.03325092657950354	0.9456647729133717	0.31409382257767027	0.08404289315134322
307														9.652554290391135	0.27953079652740387	0.8998688686298725	-0.09013436099511318	0.005248344878782368	0.9959157855180505	0.31209838445887017	-0.9494677742924872	0.033249721776785784	0.9457644502655858	0.3138206501428862	0.08394167116355467
308														9.69721869228115	0.3435843397072299	0.851918482084926	-0.09015214248937559	0.005288799246952802	0.9959139620504878	0.3119653129229949	-0.9495103712713011	0.03328210301488843	0.9458066582221933	0.31369106370880445	0.08395047237392778
309														9.695161670471311	0.42018955633791166	0.8402110418731185	-0.09025754541502545	0.005315898412351028	0.9959042708612736	0.3118007879602295	-0.9495628483695948	0.03332665035077442	0.9458508572301637	0.31353171804506846	0.08404771059745203
310														9.647544754356945	0.4397415949200958	0.822299435833096	-0.09031040837719645	0.005347542289702495	0.9958993091323057	0.31151650914278795	-0.9496553892472966	0.033348256402049054	0.9459394772765514	0.3132507708929466	0.08409791831394736
311														9.703289601128558	0.3732929257779986	0.8351967643447721	-0.09029172989006301	0.0054622337623786155	0.9959003803171202	0.3110326903995462	-0.9498118349394569	0.03340873705726863	0.9461004539774198	0.31277410732230815	0.08406122038403468
312														9.738519481920529	0.23580860747773005	0.7943656828020695	-0.09021545385219887	0.005706550725821435	0.9959059228486667	0.31033479845512685	-0.950034905332169	0.033555797089497796	0.9463368769915165	0.3120915153113096	0.08393688889060069
313														9.72391854746347	0.12811279057368496	0.8457924135657728	-0.09021724945918047	0.0059408133417093445	0.9959043903090591	0.3098412516488386	-0.9501895993485574	0.033736094416939866	0.9464984134570437	0.31161584046172386	0.08388278307634028
314														9.745650370002274	0.1320673088215964	0.8560940695302902	-0.09019981397384813	0.00614318397207303	0.9959047418552487	0.30946384599548066	-0.9503070960483424	0.033890282115275894	0.9466235374111345	0.31125340880198055	0.0838164299429327
315														9.726081618893078	0.18388132685717937	0.8291466632291349	-0.09010218613004645	0.006389175724568319	0.9959120315008487	0.30907991584540917	-0.9504259525026277	0.03406045258753637	0.9467582593648611	0.3108853281244286	0.08366069017994743
316														9.698190752220333	0.2838351959269566	0.8082108892126726	-0.09005066796947186	0.006680173359821073	0.9959147817369389	0.30886514393569425	-0.9504870448911251	0.03430306627284996	0.9468332482860089	0.31069237644013636	0.08352872058247868
317														9.6619646348573	0.303261265343284	0.8208429398752916	-0.08998922732167974	0.00700063867185774	0.9959181341979036	0.3086313940550187	-0.950553334008241	0.034569087483955846	0.9469153085517751	0.31048244759406884	0.08337894318287725
318														9.679750543255446	0.27020230721862254	0.73772261996519	-0.08997906340795359	0.007369114125024917	0.9959163942345967	0.30830752384702764	-0.9506467377781758	0.034889119952036834	0.9470217731855709	0.31018780780154054	0.08326634976827407
319														9.6848324806329	0.24285014003975733	0.7879029446869852	-0.0899589300435531	0.007742186635472381	0.9959153826764207	0.30829519298720803	-0.9506378740495987	0.035237854694069815	0.9470277001684797	0.3102058848064648	0.08313148708545387
320														9.654955664996189	0.16316071396357942	0.8094295242116132	-0.08987071558282739	0.008140418164487517	0.9959201715362225	0.3081119147289223	-0.9506847604957339	0.035574346982724686	0.9470957198101515	0.31005196298891136	0.08293055989208614
321														9.674762844736659	0.1165956975249637	0.8339159912586981	-0.08979423321674496	0.008553477322702563	0.9959236083689892	0.3078992480160187	-0.9507404292998332	0.03592616269434498	0.9471721325884689	0.30987009232977025	0.08273739860155516
322														9.718268866978907	0.12478962774219352	0.8541011375564256	-0.08970937125031753	0.008940188756337869	0.9959278597041427	0.3078187162201229	-0.9507537638423289	0.03626180475708815	0.9472063485083221	0.309818258927144	0.08253956494242676
323														9.722244234294639	0.23267208004126608	0.8219673285100461	-0.08964058647791662	0.009247732281847387	0.995931244968014	0.30798378481948474	-0.9506893351619741	0.03654827352350168	0.9471592017945876	0.31000688291863243	0.08237219797305939
324														9.702536778999692	0.285648246059349	0.7940035653584413	-0.08951842177218938	0.009607264348220956	0.9959388297657445	0.30800486047415737	-0.950670660871535	0.03685512830495244	0.9471639024412364	0.3100532132228645	0.08214345307123183
325														9.754044585025008	0.37436107914424793	0.7801496466761416	-0.08937192887175938	0.0099412297416622	0.9959487086597211	0.3080595557712895	-0.9506421305969722	0.037132864581745	0.947159948703353	0.3101301524929073	0.0818982300601735
326														9.725236607010777	0.353609087649213	0.731579461305705	-0.08927627940036598	0.010322248090482294	0.9959534111246299	0.30808319708433873	-0.9506212920428018	0.037468690785326636	0.9471612796196432	0.3101815763536456	0.08168782087953652
327														9.75121117315573	0.3355516524281957	0.7373140131265634	-0.08912449224101932	0.010705638920218669	0.9959629582359429	0.308123018114128	-0.950595642739827	0.03779060349208427	0.947162620984919	0.31024718096924764	0.08142270021077463
328														9.732439995853364	0.3818800492911623	0.7630692642335509	-0.08898556686029196	0.011104082228759832	0.9959710177753217	0.30815031638786095	-0.9505732486166663	0.03812979837895028	0.9471668023113006	0.3103017859636247	0.08116557291839416
329														9.765606389185251	0.3854652683138957	0.8039351084033866	-0.08880424691628874	0.011543706038945084	0.9959822029436658	0.308039291022164	-0.9505949916699503	0.038483204109973496	0.9472199327063349	0.31021912362537185	0.08086095733364074
330														9.78628836960755	0.39828455577949085	0.7584291218869901	-0.08870804874016724	0.011910232866905762	0.9959864599690943	0.30792659322894145	-0.9506188976284599	0.038793358375757175	0.947265588560637	0.3101320006460281	0.08066007007287979
331														9.765704025759673	0.39185268478088475	0.799649348883565	-0.08858796940788133	0.012303071111044894	0.9959923725197024	0.30760674656152603	-0.9507097330057346	0.03910361924424477	0.9473807371622152	0.3098380835362276	0.08043693706610339
332														9.783970586057386	0.2922939015715354	0.8389885355686805	-0.08848002492505613	0.012638513577180377	0.9959977676500191	0.3073106343468461	-0.9507947035214572	0.039365032362289276	0.9474869176968097	0.3095637248291609	0.08024238944158535
333														9.781178827384073	0.24938915206982867	0.7984486606916814	-0.08837642935070672	0.012917129166638536	0.9960033908121564	0.30710271218299634	-0.950852911341687	0.03958112129395444	0.9475639983162447	0.3093733808315309	0.0800660997414096
334														9.69434621564245	0.24201362379829533	0.7536297967719392	-0.08833082482956178	0.013185177636033218	0.9960039239258227	0.30728779913437515	-0.9507823668294905	0.03983841650046557	0.9475082447599501	0.30957881390175734	0.07993174647847934
335														9.666945152196742	0.3350583977997999	0.7865184770826729	-0.0882338908216258	0.013484116388039619	0.9960085135759189	0.30742088955436797	-0.9507281450949393	0.040104747723150536	0.9474741036968128	0.3097324211792661	0.07974114430048795
336														9.678975218926837	0.39494632982312694	0.7477440687095244	-0.08812932669486534	0.013819255013633042	0.9960131776071925	0.30757247707367363	-0.9506664126045448	0.04040474343897077	0.947434637916027	0.3099070830692205	0.07953116835840573
337														9.762069057505448	0.4910981657480229	0.7233623583321354	-0.08802714043841314	0.014134829112105923	0.9960177855601817	0.3077679368826207	-0.9505909675264621	0.04069041022305747	0.9473806624442214	0.31012419941545527	0.07932755740391756
338														9.754594403825237	0.5345107196979859	0.782362992509091	-0.08794442832893923	0.01442661376345411	0.9960209085863694	0.3077932582865028	-0.9505718300483563	0.040945159321923	0.947380117840392	0.3101694194046853	0.07915708172290181
339														9.762799676982743	0.4297248198136093	0.8435241304746215	-0.08771393339762906	0.014707738465415426	0.9960371219573845	0.307454488224575	-0.9506742025698144	0.041113236783456686	0.947511479380847	0.3098422872970713	0.07886541348422754
340														9.852761818434834	0.3033429028197874	0.8010581340606174	-0.08763269229516368	0.01495185070955582	0.9960406384287038	0.307338432918146	-0.9507031449242143	0.0413112319185269	0.9475566467987647	0.309741783412518	0.07871739779688713
341														9.800672423016293	0.3479588167732663	0.7848181714776546	-0.08761130896452102	0.01516095878114107	0.9960393585950102	0.3072226982514721	-0.9507325682923728	0.04149454503032088	0.9475961546041689	0.30964129071721835	0.07863713411847412
342														9.749748518539905	0.3852470645041127	0.8231625506390908	-0.08760265654105986	0.015321488868292793	0.9960376632165111	0.30718201484169794	-0.9507392800109635	0.041641700277842614	0.9476101436375322	0.30961277981228996	0.07858080078595814
343														9.75406984959786	0.3628141386226072	0.8194437692233524	-0.08759140324600262	0.015476808414622789	0.9960362515886124	0.30708643734232155	-0.9507641530637211	0.04177852617584754	0.9476421614078793	0.30952866369743953	0.07852604836537241
344														9.754388509945905	0.30223927636995845	0.7224782823969934	-0.08754644773638542	0.015679123720459653	0.996037039757106	0.30700802132163757	-0.9507818765497578	0.04195113906313161	0.947671722872912	0.30946403394236266	0.07842395911459032
345														9.72832631054142	0.3251018622689889	0.7141058168463591	-0.08746680767771653	0.01582875244735743	0.9960416698866719	0.30690352070683447	-0.9508107816768655	0.04206050908842693	0.9477129241138473	0.30936759371819844	0.0783064839243387
346														9.755944969809185	0.3578504199889962	0.705982217636407	-0.08746594150631953	0.016028215717291072	0.9960385561700579	0.3069578484513971	-0.9507846145736123	0.04225512944243606	0.9476954090584709	0.309437736856751	0.07824128487230958
347														9.780417831897337	0.40762327738347515	0.7553133067368137	-0.08745300697714403	0.016207089630278726	0.996036797420844	0.30707100549587363	-0.9507402340751429	0.04243117833027246	0.947659943837666	0.3095647550294741	0.07816836501509355
348														9.727852887973464	0.5142076871492026	0.8360587766905065	-0.08749483247067469	0.016381995576511765	0.9960302628494077	0.30715039221753015	-0.950706246222925	0.04261771877204379	0.9476303555983981	0.3096599160589675	0.07815014737546744
349														9.73524647366148	0.47533458486957847	0.775440042890758	-0.08750963563426478	0.016543616842217862	0.9960262910249588	0.30700449867565804	-0.9507467742885292	0.04276457614503232	0.9476762640607107	0.30952686462039813	0.07812053900351451
350														9.74238901444535	0.3766953400653536	0.7840767368374072	-0.08751086445788814	0.016698781473329677	0.996023593746222	0.306708775962493	-0.9508366240535862	0.04288870604213027	0.9477719004852497	0.3092424050088942	0.07808687210339926
351														9.749577651770169	0.27777906353624704	0.7925936495825361	-0.08745593071168101	0.016847917008421753	0.9960259072312485	0.3061320223659383	-0.9510189611986042	0.04296650233459828	0.9479634196874345	0.30867310076066834	0.07801456146963837
352														9.719201855967961	0.20218408988647305	0.7611533438636594	-0.08748167777646676	0.0169375978447614	0.9960221251722597	0.3058557091094274	-0.9511046565642041	0.04303739614635013	0.9480502314005229	0.3084040370052533	0.07802377009782702
353														9.707691723936131	0.20517317307610508	0.7287920090163544	-0.08744262581249529	0.016982495426476035	0.9960247898722735	0.305833815271062	-0.951110386873804	0.04306633740533128	0.9480608971093379	0.3083838952180442	0.07797376829668112
354														9.683067650546304	0.27980562184649715	0.7060915571776699	-0.08747407386236344	0.01708983284860907	0.9960201925739901	0.3059334257387579	-0.9510728887744333	0.043186794903097736	0.9480258569351733	0.3084935945063704	0.07796586901246844
355														9.73235416931379	0.3145106930918554	0.7094402220522265	-0.08741840385370275	0.017143080146771184	0.9960241651038155	0.3060894187954052	-0.9510205895280464	0.04323315851540857	0.9479806381826383	0.3086518315137766	0.07788938653006089
356														9.682845332008538	0.4032227690367185	0.7333365575694779	-0.08746544017421115	0.01719718196392342	0.9960191030836865	0.3062405477029656	-0.9509683536852199	0.04331186017489885	0.9479274886391464	0.3088097265659261	0.07791039122324322
357														9.695757984340572	0.45419875483916233	0.7509476497518194	-0.08751350220893739	0.017312546759111508	0.9960128827760416	0.30590891220128136	-0.9510706261156983	0.04340969449009416	0.9480301284067695	0.3084881519031293	0.07793545899291787
358														9.698618072055034	0.3786293664825333	0.762966480320993	-0.0874933735642151	0.01738720164094118	0.9960133507144625	0.30557175484888055	-0.9511773014568824	0.043447023278695734	0.9481407133020548	0.3081548740687077	0.07790867324483525
359														9.731975815565079	0.25770787434328224	0.7794526525984906	-0.08751107026950566	0.017452059460518254	0.9960106616903618	0.304985429627683	-0.9513645834862055	0.04346627431626307	0.9483278443107656	0.3075725197554319	0.07793230906492632
360														9.723361575851378	0.1837852990014752	0.75928233540681	-0.08751859915807741	0.017435308293903995	0.9960102935342104	0.3046338908886478	-0.9514791504784761	0.04342371157329572	0.9484401337582943	0.30721887349161	0.07796073657357866
361														9.726486911831987	0.16698811651957682	0.7021425111512705	-0.08747487121490888	0.017432417552392	0.996014185503507	0.30446844848984067	-0.9515334674467419	0.043393826784113354	0.9484972908659912	0.3070507631435875	0.07792764639597555
362														9.694749631664354	0.21904762256340174	0.6438632942808779	-0.0874647155860393	0.01738580784045568	0.9960158920485095	0.30445677069031724	-0.9515394203937582	0.043345198321548845	0.9485019759116357	0.3070349574925395	0.07793289786269719
363														9.748247439434058	0.3501078608143845	0.6713972384013039	-0.08741147576501374	0.017346696112913174	0.9960212477846789	0.3044125742074785	-0.9515561761058628	0.0432877393630636	0.9485210691223253	0.3069852371837356	0.077896377209
364														9.729226778908027	0.392590921121674	0.6999180015011243	-0.08742112061347096	0.017300804167543066	0.9960211994961966	0.30443025916543776	-0.9515523102619612	0.043248331061322726	0.9485145043567601	0.30699980946294037	0.07791888098894217
365														9.728959655465756	0.33254768328512047	0.769588731047821	-0.08747038033249371	0.017240773010388816	0.996017915657391	0.30435196391012487	-0.95157956133772	0.04319977440175851	0.9485350887703308	0.3069187094171958	0.07798776302179738
366														9.747956378382577	0.2892362961908075	0.7417567077007008	-0.08744097064297496	0.017196838568324962	0.9960212575022028	0.30410199140555993	-0.951662724231306	0.04312815938365344	0.9486179713015072	0.3066632160072415	0.07798471947701568
367														9.75672169969982	0.24080713657391634	0.7353954381103709	-0.08740130219802023	0.017117365853017458	0.9960261081720421	0.30368763622357564	-0.9518005625925932	0.04300591416724747	0.9487543580817048	0.30623958730816864	0.07799027622912391
368														9.705930506269308	0.15361648606157075	0.7471261536622263	-0.08733470532255372	0.017038865900974476	0.9960332957763167	0.3033736817031562	-0.9519061526889446	0.04288456275635927	0.9488609268465507	0.3059155986898031	0.07796529985938971
369														9.721811201657554	0.12621073544874867	0.7761773356691338	-0.08727601629342652	0.016944634423848692	0.9960400475604342	0.302979987745695	-0.952037851289794	0.04274408423549275	0.9489921095591723	0.3055107347962662	0.07795618589103381
370														9.691370449876755	0.16978254327416803	0.7718708841528615	-0.08720837918315538	0.016790022208009903	0.9960485900569819	0.3028341909730474	-0.9520923273865148	0.04256351617793233	0.949044862679287	0.30534946419796416	0.07794583591231385
371														9.752476883677238	0.2588748238884203	0.7389494290716861	-0.08717736314571756	0.016579392261474424	0.9960548333837851	0.30268907938457784	-0.9521484047910623	0.042340718878546624	0.9490940040777185	0.30518607275902276	0.07798738627270463
372														9.721965144923832	0.42313939599781586	0.762742402590648	-0.08715208170357086	0.01632762440291957	0.9960612046134977	0.3025277397109402	-0.9522112809321155	0.04207901105076234	0.9491477658194875	0.30500341825457916	0.07804763604939319
373														9.69314765151221	0.39672820223017535	0.7172351000667481	-0.08716059253524933	0.016043411179981315	0.996065078228634	0.3021410943937328	-0.952347284515735	0.04177808940178421	0.9492701355185795	0.3045935958506286	0.07815977980599886
374														9.697533151326182	0.24879528014768743	0.687769222706743	-0.08716091163063527	0.01578395930900367	0.9960691954438952	0.30151404457619135	-0.9525590901489911	0.041478436540367036	0.9494694604920284	0.3039441501379135	0.07826683326875078
375														9.704295441187973	0.08606346488455026	0.7658045550074621	-0.08707758370525587	0.015549975100182356	0.9960801637872518	0.30072876010968347	-0.9528209182656617	0.04116443317081292	0.949726122236799	0.3031344520007015	0.07829301853478254
376														9.785616525365052	0.002867835849731313	0.7312956715931763	-0.08702028657362149	0.015317250720336323	0.9960887769446134	0.3002864612480757	-0.9529723106223618	0.040887851229742145	0.949871312818612	0.3026700464490134	0.07832836055222481
377														9.819150152761306	0.06034081800720824	0.7063952310858573	-0.08701816742193552	0.015093846750545425	0.9960923723876214	0.2999740442946309	-0.9530809715823636	0.040647685753821355	0.9499702160005079	0.30233894456038846	0.0784075972980906
378														9.783968371393925	0.06696584552055512	0.7754443245421355	-0.08699187600405939	0.014824075023046307	0.9960987201623167	0.2998846614338653	-0.9531207247574087	0.04037417336129581	0.9500008438659359	0.30222695253339504	0.07846824718563933
379														9.81440806239509	0.14056282248943341	0.8080046625344562	-0.08696331383253175	0.014569668019878412	0.9961049677725012	0.2997023642037941	-0.9531893426618063	0.04010698102089902	0.950060984851984	0.30202284981395844	0.07852593999650137
380														9.769440174085563	0.2016346870466093	0.8296296914422666	-0.0869325042449377	0.014231425488853006	0.9961125469716055	0.29949812489078653	-0.9532681946250853	0.03975704092526447	0.9501282086606031	0.30179001912718306	0.078607706127375
381														9.813353872500477	0.2630638117807479	0.7835725386941681	-0.08687904780627742	0.013890244400523027	0.9961220267430938	0.2991830888651922	-0.9533824252564634	0.03938820317286637	0.9502323454762828	0.30144487443411316	0.07867323107668012
382														9.746498614646448	0.19986102948324255	0.7670470832588322	-0.08688938381845496	0.013498763881863246	0.9961265072034331	0.29892482498869777	-0.9534795857616853	0.038995237416916045	0.9503126769569719	0.3011552139833992	0.07881213805935877
383														9.724482086107574	0.07216475582480103	0.7298117273032867	-0.08687438902252204	0.013075553069172824	0.9961334601567698	0.29839930899418876	-0.9536626084004336	0.038541947676164146	0.9504791912102833	0.3005938443328751	0.07894712043785429
384														9.712398218960356	0.010720130361018645	0.7674685162952272	-0.08684567182575387	0.01269345038282299	0.996140906499935	0.29823309639147366	-0.9537302142441738	0.038153619153579454	0.9505339812452197	0.3003956636756616	0.0790417341849946
385														9.702038306447955	0.0025840677260218817	0.7899053405080846	-0.08681088314509655	0.012403091413148049	0.9961475964388837	0.29824437030523937	-0.9537381501539913	0.037866033883596245	0.9505336217876774	0.30038259647362975	0.07909569891568602
386														9.731481419644721	0.08385856329573246	0.7685830124627866	-0.08679506947127597	0.01216101840766251	0.9961519590638593	0.2985479657198902	-0.9536515249529448	0.037654762241158796	0.9504397551028637	0.30066738863104425	0.07914160305298928
387														9.712601549982283	0.12493382091654413	0.7976971778535992	-0.0868175302591161	0.011984047748404253	0.9961521465314782	0.2989527263899482	-0.9535297980967261	0.03752587807944932	0.9503104670704856	0.30106030416044705	0.07920043835165858
388														9.731776520106306	0.2026173172999606	0.7979881782029102	-0.08685349649748414	0.011847171346257984	0.9961506485854709	0.2993453326743606	-0.9534100531228381	0.03743851506649107	0.9501835832891653	0.30144471323179634	0.07926060126167483
389														9.700099153693168	0.3157976087414065	0.8374527634108523	-0.08690239232519237	0.011676759221427274	0.9961483963256899	0.29961652302263586	-0.9533297886414611	0.037312909571006525	0.9500936339856116	0.30170510002801176	0.07934808930971637
390														9.731349429218819	0.4507404234949529	0.8020731724383855	-0.0870522582075704	0.011465111283599339	0.9961377693693871	0.2999202200499694	-0.9532394296274107	0.03718133145528785	0.9499840872068024	0.30199857785569906	0.07954302626248794
391														9.71059044970966	0.43960350525277975	0.8475126615170518	-0.08721795739922605	0.011234211848231757	0.9961259058930535	0.2999100297524781	-0.9532493060693781	0.03700992477859888	0.9499721058857334	0.3019760801162882	0.07977120455795189
392														9.75627930846078	0.3664743409072181	0.8835634070788836	-0.0874399290143994	0.011019365377480217	0.9961088456592656	0.299657376285566	-0.9533349323803177	0.03685055686235861	0.9500314287704422	0.301713573261285	0.08005750469693457
393														9.755642356477663	0.24347045217197819	0.8584914720253017	-0.08761625523666022	0.010810392455817303	0.9960956416094067	0.29918271566042687	-0.9534911910226191	0.03666403267944526	0.9501647722728708	0.30122696435946505	0.08030704498625846
394														9.846885388944974	0.16575601446359747	0.8045858399372066	-0.08778356146682692	0.010578253538656546	0.9960834035803787	0.29876404687083147	-0.9536303916468765	0.036457103900177756	0.9502810587576516	0.3007942430956694	0.08055267026573315
395														9.843805140045651	0.11887636242874387	0.7682604997161654	-0.08800689985398497	0.010327592905927135	0.9960663263070693	0.29831270464781423	-0.9537797063628946	0.0362464063876326	0.9504021863525975	0.3003291736662972	0.08085834292837374
396														9.806248720697567	0.1414042318194117	0.7318231715403006	-0.08831525222543862	0.010082342897414276	0.9960415466164333	0.29823306905953806	-0.9538102360331374	0.03609806307462746	0.9503985757268821	0.30024053690351327	0.08122910350486517
397														9.775806816189823	0.18572251104883108	0.7313308363594623	-0.08863680990787293	0.00991576717234921	0.9960146552590177	0.2982116399174442	-0.9538193589980547	0.036033986988522976	0.950375364657094	0.3002171013815239	0.08158650802045397
398														9.81371978906153	0.22143549546126626	0.7062741684187207	-0.08899362800959404	0.00980154359922858	0.9959839677006663	0.2982549881741726	-0.9538057182756219	0.036036284685696	0.9503284149192393	0.3002641862223945	0.08195927201536785
399														9.768623729830944	0.28635271009274066	0.730855732377961	-0.08937978799102336	0.00980633266842143	0.9959493407489541	0.29834418708858246	-0.9537729322779885	0.03616544876398953	0.9502641735481419	0.3003681565902819	0.08232236013030286
400														9.708452258808798	0.24983942135597678	0.7517910284449801	-0.08968360864198377	0.009921378126656527	0.9959208887241089	0.298422434058634	-0.9537405067164642	0.03637439619762925	0.9502109772000487	0.30046732285606326	0.08257412854059376
401														9.69041726254246	0.1052342030044328	0.7115097886462577	-0.08989646304435639	0.010227259867842647	0.9958986038185367	0.29827037818490754	-0.9537748840089006	0.036718552956792105	0.950238605524711	0.3003479212336988	0.08269049994436473
402														9.750699437947675	0.01851093615151528	0.7214076267514139	-0.090151181730456	0.01056359865002865	0.9958720674946979	0.29847199423235754	-0.9536956716776545	0.03713535353632358	0.9501511632848547	0.3005877179907212	0.08282385345761722
403														9.676066037131044	0.003385714936621136	0.7655260109047036	-0.09041599225906993	0.010942398877566983	0.9958439698319274	0.29877033038319395	-0.9535838710291593	0.037604395963257486	0.9500322299935543	0.30092867065111717	0.08294996777351094
404														9.721317574655298	0.18657141761921395	0.8020218270052466	-0.0906886267420135	0.011289472914017468	0.9958153045524921	0.29954185651212184	-0.9533226430800237	0.03808693198710503	0.9497632595425664	0.3017424166275643	0.08307385166728587
405														9.726452716142447	0.348774916837232	0.7591720472697917	-0.09102506286578976	0.011606203508992441	0.9957809668648965	0.3003733862506629	-0.9530417293474178	0.038565411378519876	0.9494684127250312	0.30261651997634276	0.0832644886780593
406														9.681282382506334	0.5389808935896137	0.8087759134799325	-0.09128800380021906	0.011950499227380174	0.995752823711983	0.301233792552946	-0.9527503569993975	0.039050729336201684	0.949170533985511	0.3035192626601102	0.08337478400525622
407														9.644548226944531	0.5599855712212037	0.8238598859493388	-0.0915526795151535	0.012260561064569353	0.9957247538933527	0.30170103877981597	-0.9525852407988499	0.03946950989533046	0.948996622793135	0.30402473197846847	0.08351270725251841
408														9.652014063232407	0.5236175650852751	0.7643435000804429	-0.09175050100421389	0.012557246943117217	0.9957028477988226	0.3020169450450044	-0.9524696295351558	0.03984180867939921	0.9488770260002919	0.30437463817206034	0.0835970643412125
409														9.671669299159372	0.47716469950446805	0.791459333726366	-0.09201963697062698	0.012829922400078742	0.9956745349274542	0.30231658491382757	-0.9523590197799079	0.040211688970913206	0.9487555369523989	0.30470919010601066	0.08375703294114811
410														9.719882970560544	0.5213395512139215	0.7426732859039638	-0.09229492154135538	0.013038389609800083	0.9956463467788443	0.30278183840659256	-0.9521974184613731	0.040536830248817185	0.9485804160896427	0.305204974847856	0.08393519845285685
411														9.68045446690671	0.6172007414328724	0.7471638829596887	-0.09277697663506052	0.01321293535737228	0.9955992421379694	0.30316837672414926	-0.952059468386649	0.040886477101548	0.9484099155749592	0.30562752983750174	0.0843234548896406
412														9.65316319481708	0.5819822114952057	0.8114442042199699	-0.0931324915896739	0.013417378345857545	0.9955633143947319	0.30339101791598533	-0.9519745323627804	0.041211405952336966	0.9483038696842917	0.30588308827228444	0.08458904805474671
413														9.720364183315063	0.5165763673152337	0.859004016051795	-0.09348969688896769	0.013723973507684922	0.9955256546803655	0.3030302379193258	-0.9520733015769993	0.04158248827126165	0.9483840738235574	0.30556191021695295	0.08485026542328011
414														9.767063451051905	0.38717907258131373	0.7991126024345814	-0.09383811228051753	0.014017839647162744	0.995488778869584	0.3029215069979961	-0.9520912893261544	0.04196114139682172	0.9483843995351738	0.3054925153925829	0.08509614419831557
415														9.76020767321976	0.24824238832812034	0.7385326556051246	-0.09420240493848792	0.014345520635633352	0.9954497038733289	0.3029742956369613	-0.9520554260085035	0.04239153206778959	0.9483314204892151	0.30558905714285634	0.08533958675461112
416														9.760709726470978	0.2452836950733302	0.7948972374412765	-0.09453185644037637	0.01466602880932566	0.9954138012489585	0.3033033708832534	-0.9519310458504071	0.042829302551018994	0.9481934366619466	0.30596109482271616	0.08553955299212862
417														9.773962554189234	0.29271496032329386	0.8689938399232301	-0.09494849128237803	0.015015150090216645	0.9953689412830642	0.3035081522079043	-0.951844010301981	0.04331029433732475	0.9480862753708355	0.3062148352382856	0.08581893225533532
418														9.858854605123954	0.5029434151214478	0.7658748253429617	-0.09541748544013295	0.015287576921073603	0.9953199452759723	0.30430408864504477	-0.9515679849882872	0.04378803009088367	0.9477840076231457	0.3070580725810896	0.0861441521903582
419														9.770432578166925	0.5595601291173848	0.8218243868069433	-0.09606374451189897	0.01555753184864625	0.9952535959207242	0.30501071428332993	-0.9513175099001812	0.04431094142187389	0.9474915414729183	0.30781968514066516	0.08664190831910562
420														9.72732136250043	0.5523154328650428	0.8575851148212794	-0.09651844393539982	0.015887103405103686	0.9952043960542404	0.30554523954173723	-0.9511222898811619	0.04481625022911137	0.9472730844765264	0.308405560320516	0.08694661459606717
421														9.812512270402761	0.46025288633907224	0.7695341685330478	-0.09687040033012567	0.01630386221428523	0.9951634587427226	0.30558557980458656	-0.9510850882571595	0.04532778739763968	0.9472241439888321	0.30849852345152085	0.0871497680596775
422														9.810567212240128	0.4129164884404426	0.7872911081847002	-0.09725741690522482	0.016650915468775368	0.9951199635576476	0.30603430849888247	-0.9509171390048685	0.045821357120946066	0.9470395962569532	0.3089973167534731	0.08738799322916013
423														9.79755055328587	0.3676250241992206	0.7722011695334737	-0.09763713315574707	0.017036849556068517	0.9950762463180051	0.30648234396891594	-0.9507472058097615	0.04635001057443833	0.9468556189115879	0.30949878255355917	0.08760673794531249
424														9.800154503150521	0.47711723632271386	0.7435765464432833	-0.09798550773495762	0.01732913763983826	0.9950369547220753	0.3073270765666646	-0.9504516227516577	0.04681645883369964	0.9465457771724034	0.31038913285970493	0.08780477162256273
425														9.747314395439853	0.6387391345794068	0.8100735286448131	-0.09831848254181602	0.017643396576661224	0.994998586203977	0.30813558339039715	-0.9501660584411904	0.04729612706122452	0.9462483491342712	0.3112445532753474	0.08798232673153877
426														9.739926910222891	0.7364126721302467	0.8566295473600407	-0.09866187252276998	0.01792515683052745	0.9949595588077446	0.3089630875259992	-0.9498745854117432	0.047750209792948556	0.9459427284231866	0.31211690236427414	0.08817819345976491
427														9.708643896979407	0.7198307239438894	0.9772917970906796	-0.09905970622697835	0.018229527651917432	0.9949144982981265	0.30947708962791887	-0.9496838015220651	0.04821419004849248	0.9457331048438867	0.3126793268641006	0.0884337772242888
428														9.732262636191647	0.6567516974144074	0.9486089207249522	-0.09933460218256879	0.018392570887960702	0.994884088798973	0.309916272906508	-0.9495261304310831	0.04849774650757979	0.9455604373052896	0.3131482731306464	0.08862064340956005
429														9.672330657338991	0.6205535995549418	0.968410530261278	-0.09965100599526566	0.018507418948726345	0.994850316604457	0.31021766817972085	-0.9494155197893412	0.048735706953648095	0.9454283025979647	0.3134767076307131	0.08886888330422682
430														9.650480574428569	0.6193792589028542	0.9590669039943751	-0.09983013065261487	0.018525881480425888	0.9948320143266675	0.31047517330296737	-0.9493262779523053	0.048834257972395906	0.9453248710239109	0.31374577240912005	0.0890195400967137
431														9.632662946030763	0.5999978858138054	0.8924551043251739	-0.1000103193487778	0.018455060733567813	0.9948152324713753	0.310540916049833	-0.949304996032841	0.048829949477948886	0.945284229997881	0.31381433243306267	0.08920924434667721
432														9.695290866497572	0.5618185572463432	0.8886362133583819	-0.1000739196679975	0.018269864075427633	0.9948122549853059	0.31068388763516974	-0.9492655631857738	0.04868688235545199	0.9452305182156261	0.3139444259996692	0.08932057331632959
433														9.688613863699317	0.5389770756317811	0.8552523237368489	-0.10032745824812472	0.018107070842499656	0.9947896939087059	0.31057869959910667	-0.9493043370843797	0.048601923296465455	0.9452382093825872	0.31383659693906374	0.08961762072778434
434														9.653149372730477	0.6072223896944596	0.8565025659463965	-0.10068250377793792	0.017900129666534648	0.9947575678480298	0.31121591382326846	-0.9490968706523382	0.04857761934355759	0.944990840387437	0.3144753018535174	0.08998664405335749
435														9.657167699469161	0.7637939225201107	0.8131914541233938	-0.10108445569883795	0.01767694419244084	0.9947207942232268	0.3119705182911662	-0.9488497686422319	0.04856451651899932	0.9446990677105651	0.31523267944742084	0.09039927696164851
436														9.609777489266172	0.775239086874214	0.851263383279974	-0.10137244916054855	0.01750249755842717	0.9946945707755765	0.3124650948320572	-0.9486884088047811	0.048537279600790545	0.9445047332135423	0.3157276762950455	0.09070194793137254
437														9.661732837159352	0.7328426984260877	0.870455038248044	-0.10164334485689719	0.01739283057443272	0.9946688493618927	0.31250760617808304	-0.94867512887796	0.04852314838539257	0.9444615537580907	0.31577363615887216	0.09099112143422683
438														9.664599828179671	0.6564039736058784	0.8857956561301233	-0.1018600690809871	0.017261197801328537	0.9946489719379801	0.312578147620039	-0.9486544254100476	0.04847352659295667	0.9444148600891678	0.3158430499479075	0.0912345320718092
439														9.674938788090566	0.6606177829439928	0.8668281108830566	-0.10215256230909986	0.01717149067168719	0.9946205275992431	0.31242545679030975	-0.9487050836146611	0.048466465448434554	0.944433792260236	0.31569574629983566	0.09154784435003405
440														9.706956738947332	0.48646730950275097	0.9031997470808897	-0.10233395650857097	0.016970779333026403	0.9946053257418903	0.3122489030439902	-0.9487708976351101	0.04831569463944965	0.9444725426888423	0.31550875811853063	0.09179237254465006
441														9.764928908822629	0.4714730694707445	0.9039386414554242	-0.10260579945537635	0.016776825749772767	0.9945806091191828	0.31210855694792095	-0.9488227758778381	0.048203616621162626	0.9444894380552963	0.31536308930062723	0.09211852858548669
442														9.755990548254646	0.5111741924356353	0.967721806146504	-0.10296201786760462	0.0164630514853287	0.9945490389178516	0.3123277538623803	-0.948758982647568	0.04803922369097835	0.9443782065697574	0.3155714828392181	0.09254427143127586
443														9.694486218002968	0.5992732583413136	0.9612043979571376	-0.10329144936681911	0.01614312828819986	0.9945201234247462	0.31242990030961104	-0.9487349585354758	0.047849094507789014	0.9443084421311864	0.31566022534009497	0.09295261297033075
444														9.719896589160001	0.5830251914161686	0.9192257229413405	-0.10360373142932139	0.015839280233667707	0.9944925258822214	0.31268172541294764	-0.9486603199698754	0.04768370693890936	0.9441908734078631	0.3158998488703867	0.09333209553505067
445														9.675518456520463	0.697704176018619	0.9262206525552912	-0.10392608280691135	0.015534743890041364	0.9944636951868489	0.3128923138068622	-0.9485992493491827	0.04751698743349764	0.9440856789894649	0.3160983009546839	0.09372350217828512
446														9.676899788911088	0.7481242756588384	0.9138619194572771	-0.10415546505710777	0.015249125222804777	0.9944441177254137	0.3128960682757843	-0.9486079491241635	0.04731817109741315	0.9440591557504716	0.31608610067256604	0.09403131077103571
447														9.678148056010675	0.61772468667126	0.9450532430368592	-0.10428989287237339	0.01502794575533764	0.9944333960055063	0.3124134628604217	-0.9487777584807673	0.047101945137873275	0.944204133897024	0.3155866376426384	0.09425299821854621
448														9.72187607267396	0.5053056422179512	0.8896829203607133	-0.10437399645586082	0.014720470581884276	0.994429171238294	0.3120462053925108	-0.9489136156730589	0.046798671887327004	0.9443162788832815	0.3151924138302358	0.09444843937250874
449														9.652769275533856	0.5183782156067389	0.8610445680848519	-0.10450503273819672	0.014464385407746	0.9944191669950674	0.3117326929346287	-0.9490281686528532	0.046564613808506294	0.9444053294471141	0.3148592013236822	0.09466919801973633
450														9.642065536891952	0.5114542643222997	0.8847585862734637	-0.10464539708940795	0.014178337925148304	0.9944085255073395	0.3116943984529965	-0.9490521101057534	0.0463324322353392	0.9444024263210177	0.3148000429439265	0.09489462640991458
451														9.659231407824379	0.5294492994926592	0.955280149523156	-0.10484127289790762	0.013959298565281913	0.9943909922564221	0.31176064134991743	-0.949037179216718	0.04619236916919678	0.9443588354022187	0.31485484028031163	0.09514630602301305
452														9.675855052816319	0.560829015788981	0.9178424344020277	-0.10508510986716191	0.013666402585293363	0.994369322296592	0.31195657833970236	-0.9489816396582325	0.04601022519134643	0.9442670241593699	0.31503504095885904	0.09546051567668379
453														9.587009469764453	0.6176442788900814	0.9178279882598325	-0.10540780303398267	0.013316129883866934	0.9943399196172635	0.31210072998287564	-0.9489447330699496	0.04579331744871998	0.9441834193649592	0.315161187749569	0.0958702056562708
454														9.510978063898884	0.7176204983318489	0.9888417394622961	-0.10557518943709798	0.012931417506479609	0.9943272387984726	0.31207772911982623	-0.9489675023971746	0.04547714130726832	0.9441723202693107	0.31510864449478687	0.09615181642550885
455														9.628966973447136	0.73870456628911	0.9720275502197087	-0.10570694529091956	0.012527511857338941	0.9943184113572104	0.311790438850444	-0.9490797256245952	0.04510428637935182	0.9442524895168188	0.314786810166829	0.09641836021361622
456														9.636092148546926	0.6411211941376925	0.9299102502996331	-0.1057316356968171	0.012078677492616596	0.9943213397905651	0.31124127261089474	-0.9492824932275237	0.044627550630601615	0.9444308822970721	0.3141923831059015	0.09660980779304018
457														9.667345781535648	0.46945579283341	0.9120090878489826	-0.1058859434443698	0.011565953907621385	0.9943110155736496	0.3105858836344402	-0.9495208544150613	0.044119790546941234	0.9446293325256789	0.3134906310260305	0.09694868947536911
458														9.72812849824532	0.37433008202589957	0.9252392010839936	-0.10589504555977397	0.01109497115287153	0.9943154132070018	0.3099592513335806	-0.949749210327642	0.04360848535258863	0.9448341133969602	0.31281518361028715	0.09713474694589325
459														9.796904832060982	0.36023487075397564	0.9042002217362963	-0.10601160553282235	0.010619705099958687	0.9943081822835124	0.30954582864089863	-0.949905029353107	0.04314875642114946	0.9449565701466772	0.3123582191543264	0.09741367185033695
460														9.85427853078385	0.4631813593257981	0.9315451157505589	-0.10617995283234971	0.01004293833185374	0.9942962119037675	0.30949626846573663	-0.9499438921038981	0.04264576954729926	0.9449539022737055	0.312259093132865	0.09775674571883042
461														9.804233019337056	0.5530280762455522	0.9030836108865945	-0.10637852775997525	0.00944138376026779	0.9942808803875859	0.30955404475698733	-0.9499476495408719	0.042139725988234567	0.9449126426322226	0.31226643015935246	0.0981314138761129
462														9.758714540158582	0.6191686624026502	0.8714755574204974	-0.10652379903733922	0.008886112698260257	0.9942704447180182	0.3095231537149439	-0.9499792316655133	0.04165185132206725	0.9449063961858906	0.31218663713444583	0.09844493913695118
463														9.791022528097901	0.6147436167366507	0.918263676658281	-0.10658124132982738	0.008367376315910752	0.9942687896188743	0.30926785021782444	-0.9500843459247247	0.04114769070596433	0.9449835108710832	0.311880943057405	0.09867340847150896
464														9.8062834295679	0.5835934604683918	0.9501227507290857	-0.10657132429107369	0.007835266572109423	0.9942741882582442	0.3089016218145852	-0.9502271345487772	0.0405977931363114	0.9451044073959054	0.31145946985918366	0.09884663755470119
465														9.722836638392707	0.4919034090571089	0.919365530664855	-0.10660018997466669	0.007298080574964172	0.9942751819880079	0.30843876728949826	-0.9504009291293274	0.040044983993575534	0.9452523082914422	0.3109418143801704	0.09906190862116471
466														9.73833214003802	0.33891562109026424	0.9246380386107866	-0.10656759825072165	0.006787397811939433	0.9942822930305132	0.3080909227260754	-0.9505361311525897	0.03951008361497135	0.9453694147458275	0.31053984382750155	0.09920521689267509
467														9.759817818980174	0.3362398750672573	0.9378174896865741	-0.10661342703795629	0.006264139339420188	0.9942808143243831	0.3077850148221949	-0.9506566170958892	0.0389920635860771	0.9454638871083989	0.31018181270044787	0.09942475166547127
468														9.727386886686574	0.45972278717037723	0.8683168624808987	-0.10671548315419549	0.005741224640152726	0.9942730228638402	0.3080734086419973	-0.9505810461012419	0.038554502730160894	0.9453584402452163	0.3104234416610645	0.09967299696724335
469														9.660623731663417	0.5174566778348022	0.8788922734827939	-0.1068948826876735	0.0051912614331989515	0.9942567751139143	0.30857172759785134	-0.950436216739249	0.03813773508823676	0.9451756307599483	0.31087625949099956	0.09999489138160395
470														9.643227678220924	0.6021337541896435	0.9478509113562903	-0.10701984842736206	0.004715274673213865	0.9942457031475369	0.3088958441290876	-0.950346153995768	0.03775639105144718	0.9450556118675568	0.3111590489929668	0.10024937260367067
471														9.60673594314599	0.6221152439119875	0.9091737641348694	-0.10717447387880324	0.004322721342908703	0.994230831461685	0.30886442652814394	-0.950369414649541	0.037426484260882964	0.9450483575850723	0.3110936993558065	0.10052020715695226
472														9.62386032820787	0.5165599257566639	0.9533857681583215	-0.10720816985722431	0.003971315981239204	0.9942286643248835	0.3086858959987574	-0.9504409138218735	0.03708216478156301	0.9451028652624588	0.31087987709534987	0.10066914169630786
473														9.591498785121177	0.3775317643186927	0.9928378529199757	-0.10723480962823129	0.0036090630245879385	0.9942271723645864	0.30838639053680594	-0.9505524928373187	0.03671229347833194	0.9451976141186968	0.3105429648612944	0.10081932969167806
474														9.627877795616401	0.22844479167837953	1.0090760712316729	-0.10723998796291506	0.003200772871629537	0.9942280120951821	0.3081559639961666	-0.9506430917891723	0.03629895159803162	0.9452721760611102	0.31026999063162264	0.10096061647070936
475														9.67944539844357	0.18871090732193604	0.9731165332170936	-0.10727491409415463	0.002793483028222743	0.9942254720427673	0.30839413725223597	-0.9505792679226662	0.035945952540692494	0.9451905357728364	0.3104694056556615	0.10111181551767084
