// Start Time: 1748342924.2155054
// Update Rate: 100Hz 
// Filter Profile: 46.1 human
// Option Flags: AHS Disabled ICC Disabled 
// Firmware Version: 4.0.2 
PacketCounter	SampleTimeFine	Year	Month	Day	Second	UTC_Nano	UTC_Year	UTC_Month	UTC_Day	UTC_Hour	UTC_Minute	UTC_Second	UTC_Valid	Acc_X	Acc_Y	Acc_Z	Mat[1][1]	Mat[2][1]	Mat[3][1]	Mat[1][2]	Mat[2][2]	Mat[3][2]	Mat[1][3]	Mat[2][3]	Mat[3][3]
0														8.56111510356139	4.607507721492073	-0.6585928428269915	-0.4230976645738452	0.19247353475412643	0.8854051641205907	0.8598177958939235	-0.22297581898152805	0.4593420751614554	0.28583513446788383	0.9556336759285793	-0.0711516221526805
1														8.604632146741706	4.514295819403286	-0.6663476775832994	-0.42315669758879765	0.19245270076414384	0.8853814812013687	0.8596955713188497	-0.2232926997963796	0.4594169074733757	0.28611524590713305	0.955563879699432	-0.0709629330937635
2														8.650738822938226	4.468727112630863	-0.7007866662470877	-0.42305598484600754	0.19261486931790872	0.8853943447998859	0.8596336989819492	-0.22358947958795145	0.4593883413760086	0.2864498861242325	0.9554618028656267	-0.07098736510239162
3														8.693192310562393	4.4991199157073725	-0.6854797466887443	-0.42303728502507154	0.1928427560232392	0.885353673357703	0.8595249722483672	-0.22386598908475114	0.4594571155315259	0.2868035522096271	0.9553510822626767	-0.07104950428730789
4														8.725222658274237	4.4296962690566355	-0.6731697000381179	-0.4230285136007077	0.1929334243298081	0.8853381108125582	0.8594710411997811	-0.22401367917185624	0.45948601815817236	0.2869780584291064	0.9552981551956763	-0.07105651736468321
5														8.764938572303294	4.432818717104399	-0.7107118213947978	-0.4232636917951612	0.19299012443038094	0.8852133409976812	0.8593636980184634	-0.2239351284159905	0.45972501866805715	0.2869527517483712	0.9553051188670875	-0.07106509783555981
6														8.722421908252421	4.402535249268968	-0.7261815975732566	-0.4234829172488957	0.1928056079244191	0.8851486973109436	0.8593741742345238	-0.22361671617747125	0.45986040588936883	0.28659771013930946	0.9554169570396477	-0.07099430078537916
7														8.672950065992442	4.4729172288680745	-0.6924816113408939	-0.42383586430840764	0.19264911261828155	0.8850138301367576	0.8593207660720367	-0.22326428890681288	0.46013137069352605	0.2862358837101195	0.9555309396907689	-0.07091997018021873
8														8.668863347866104	4.570111020325075	-0.7200400566842275	-0.4240118891740287	0.19245534646364332	0.8849716704260255	0.8593166257150284	-0.22307317494782805	0.4602317844178443	0.28598750778453347	0.9556146180528291	-0.07079440059027753
9														8.601408125577388	4.508536301436043	-0.7956868868123372	-0.4244276893492889	0.19228370239276893	0.8848096486294394	0.8591209124807994	-0.22309354943662768	0.46058715346601375	0.2859587282315086	0.9556444139918863	-0.07050787015874288
10														8.593282919434682	4.437063839572299	-0.7446348501052723	-0.42448286514371253	0.19233559150221902	0.884771901362649	0.8589901481177536	-0.22340733948547536	0.4606789403702563	0.28626949302366345	0.955560663121664	-0.07038179067387823
11														8.636075224919889	4.416103167947856	-0.7807309244269849	-0.42446598902565713	0.1927113764975134	0.8846982251191107	0.8588599203564153	-0.22367530800813573	0.46079170325955043	0.28668495141154976	0.9554222532241435	-0.07056951663613775
12														8.679026555110443	4.374171142026987	-0.7406386308897492	-0.42429544179715567	0.1930741055104349	0.8847009482596377	0.8588716819737091	-0.2237431048812126	0.460736862994233	0.28690209475325973	0.9553331423118641	-0.07089270221067517
13														8.77293706466954	4.36239689052393	-0.7093674128892329	-0.4240077779794104	0.19336175224752944	0.8847760377523388	0.8590202419576651	-0.22359737398501803	0.46053060512195954	0.2868826033762893	0.9553090845976338	-0.07129463349561216
14														8.771885660968236	4.485585629542847	-0.6885938223074599	-0.42387490347687723	0.19354530292885302	0.8847995716074046	0.8591121273643751	-0.22342614111195497	0.46044230049299195	0.2868037984719274	0.9553119779328633	-0.07157238294254825
15														8.768451008197934	4.581081440768405	-0.7188539096810564	-0.424011468479477	0.1936449107387646	0.8847123392057179	0.8590356482960555	-0.22339226704628787	0.4606014003240715	0.2868310121908946	0.9552997140002166	-0.07162699823845037
16														8.675775731032543	4.518816816444238	-0.7270515774802713	-0.4240313227037307	0.19354661980776444	0.8847243318272159	0.8590212507354453	-0.22345696434315532	0.46059686915072845	0.2868447805887987	0.9553045017414765	-0.07150790726509504
17														8.625250724250114	4.4877952608872835	-0.7185199294442849	-0.42407270890077026	0.19352735431005902	0.8847087095193034	0.8589634830858428	-0.22358759731364927	0.46064120642051365	0.2869565686486361	0.9552778388831482	-0.0714155322611425
18														8.582271376794635	4.5295498878973115	-0.7596890566487731	-0.4242143724200138	0.1934606731731252	0.8846553759333037	0.8588720696308276	-0.22368104291163704	0.4607662737766524	0.28702079060645136	0.9552694693003454	-0.07126925551936092
19														8.582047926451338	4.5098950583096284	-0.6808732989739693	-0.42429593263128207	0.1935785859262153	0.8845904660481922	0.8587500709580427	-0.2238841264630464	0.4608950135849116	0.28726516875894953	0.9551980051218104	-0.07124250016111683
20														8.61079929361807	4.464956175762367	-0.670433052302905	-0.4242222349657856	0.19381969058853932	0.8845730172805393	0.8586663240314344	-0.2241643775537399	0.46091482489749525	0.28762412856882896	0.9550833782325541	-0.0713309279970093
21														8.654333209735453	4.371212023024153	-0.6813313007271243	-0.4241991113353993	0.1941009814312708	0.8845224264820397	0.8586015363235215	-0.22427282853018943	0.46098275478151785	0.287851551611497	0.9550007892093525	-0.07151906629960975
22														8.71296461420666	4.453558081942572	-0.6629091824577593	-0.4241153837258776	0.19439273396853168	0.884498505520101	0.8586094855989121	-0.2242391505004312	0.46098433229603075	0.28795119816841186	0.9549493538209686	-0.07180417195603195
23														8.723258100464273	4.553297257607813	-0.662335327083649	-0.42418087008812483	0.19454717024065088	0.8844331450158553	0.8585615103456299	-0.22420454229857556	0.4610905075640978	0.28799778194339015	0.9549260294724622	-0.07192743448536199
24														8.74658860642049	4.484352367834889	-0.6274830498184732	-0.4242588071148899	0.19452998096295193	0.8843995426796674	0.8584772638047824	-0.2243580689953566	0.4611726839340437	0.28813408704230953	0.9548934722696709	-0.07181367906650127
25														8.704044886537268	4.454170612070516	-0.6421221603476208	-0.42449942977995675	0.19458937902645912	0.88427100353149	0.8583201730229909	-0.2244316986848435	0.46142918547402084	0.2882476620863981	0.954864066867914	-0.07174886135816361
26														8.695582133452708	4.4034490876647	-0.6697447109752532	-0.42472519728720226	0.1944600492823062	0.8841910404558906	0.8582520198392413	-0.22433457387024747	0.4616031514280608	0.28811799185613146	0.9549132359537058	-0.07161518392919641
27														8.666365827677536	4.4491933565103965	-0.6806124046719423	-0.4247624258306911	0.19423563884972694	0.8842224822990341	0.8583626241854586	-0.2240204181651655	0.46155005974060714	0.28773336095051666	0.9550326532876995	-0.07156915641794914
28														8.665540061669889	4.521572832004414	-0.7083633119890218	-0.42480196816212396	0.19424349959407095	0.8842017590522169	0.8583981027808805	-0.22382998659874928	0.461576466299344	0.2875690960234975	0.9550757037872195	-0.0716548326882187
29														8.673454846226631	4.573302767300427	-0.6810927255198163	-0.4247401676180269	0.19450894382569078	0.8841730943563173	0.8583638874100596	-0.22391211704695013	0.4616002606475044	0.2877624485614853	0.9550024264950157	-0.07185498303201587
30														8.673366789116612	4.573259432176694	-0.6825036083186108	-0.424699873517786	0.194775367747742	0.8841337984449573	0.8582638738573904	-0.22417447584618577	0.46165888620321516	0.2881200101785398	0.9548865694404858	-0.0719617901173838
31														8.726003243136018	4.407454820996927	-0.6888816340669331	-0.42453449206520577	0.19502462741206017	0.8841582775440862	0.8582211354983815	-0.22447184975932993	0.46159383796742093	0.28849081030564316	0.9547658264561065	-0.0720782144672128
32														8.731120209961864	4.431865598711975	-0.7144187985852786	-0.4245348562199773	0.19526316897916923	0.8841054522479184	0.8581098863480177	-0.22471461963941025	0.4616825345105746	0.2888210151738891	0.9546599575558452	-0.07215806700152466
33														8.685767207104076	4.405082539081597	-0.6540186495203926	-0.42450232401511473	0.19515105198924215	0.8841458272328491	0.8581108246218292	-0.22482620529535993	0.461626461632491	0.28886604087814044	0.9546566106825958	-0.07202198350092642
34														8.743439595878359	4.3150462243756325	-0.6330906433979068	-0.4244920784150051	0.19527625559008094	0.8841231019296052	0.8580930534485436	-0.22483723218682136	0.4616541244762412	0.28893387995571684	0.9546284109669517	-0.0721235744292299
35														8.677759421661111	4.352853585676407	-0.6854769282717416	-0.42449385039007864	0.19512534893893463	0.8841555684281273	0.8581963875278864	-0.22457135202888096	0.4615914516994508	0.2886242044858531	0.9547218474767296	-0.07212671166446655
36														8.679555045917681	4.452776622628179	-0.6613611246251504	-0.4245068915171892	0.19517729182119103	0.8841378420878495	0.8582490794937668	-0.22434735129519284	0.46160240848042955	0.28844829103760594	0.954763892658377	-0.0722737343251863
37														8.639029493286017	4.521996199132395	-0.6524004979573337	-0.4245311299099515	0.1949734281674731	0.8841711836776871	0.8583303014153731	-0.2241428865339038	0.4615507123691215	0.28817080596336225	0.954853564021663	-0.07219596848545962
38														8.664656795115503	4.501339920223751	-0.643536505446959	-0.4245749943945854	0.19504953829021437	0.8841333336932906	0.8582814263515959	-0.2241892068040653	0.46161909918506805	0.28825174295172507	0.954827145176203	-0.07222226471078286
39														8.648070924581626	4.449680228962219	-0.650236272657958	-0.42462343806422337	0.19510384433815026	0.8840980860577593	0.8582497823175916	-0.22418187919396482	0.46168148781694573	0.28827460345705924	0.9548177705539089	-0.07225495163750306
40														8.71967726688602	4.383401624646787	-0.6766185742105505	-0.4246365372842499	0.1951883993355164	0.8840731304411877	0.8582657417620854	-0.22406219433970026	0.4617099193056788	0.2882077856700264	0.9548285824337883	-0.07237852199833
41														8.693384417639118	4.456020017227101	-0.6367680681742622	-0.42438631421530065	0.19539501141225513	0.8841476380231735	0.8584166279798733	-0.22388725492166245	0.4615142358490214	0.2881269670031178	0.9548273595780794	-0.07271563990461122
42														8.689101395090413	4.604147282054607	-0.6154948230266228	-0.424361007527146	0.19545166180024326	0.8841472632938863	0.8584600683236274	-0.22375748540941692	0.4614963692349563	0.2880348006480085	0.9548461842740839	-0.07283349499292252
43														8.70161047147517	4.507036522405147	-0.6113473611469642	-0.42427465808954007	0.1957633925968278	0.884119736586614	0.8584340461883078	-0.22383035636808996	0.4615094364288812	0.2882394887030116	0.954765241138948	-0.07308441328431386
44														8.690562611512032	4.479066545714787	-0.6422751919223333	-0.4242992035452745	0.19578371304120562	0.8841034575085912	0.8584506433668178	-0.22372231449956553	0.4615309511810177	0.2881539150765492	0.9547863968986765	-0.07314545456349625
45														8.712403093460955	4.554744474255443	-0.6616229769546105	-0.4245614599358745	0.19570638587399175	0.8839946703828359	0.8583828097291055	-0.2235336086433139	0.46174850055897676	0.2879696489192643	0.9548464464692936	-0.07308724215810586
46														8.68956300573539	4.551678890102888	-0.6699788449848448	-0.42471232852069807	0.19556081152102817	0.8839544145484898	0.8583720413863924	-0.22338394764630637	0.46184093636241197	0.287779214969886	0.9549112947971602	-0.07299001644147601
47														8.661263449746427	4.524867101277298	-0.6533512650247584	-0.4249954445529234	0.1952951776972523	0.8838770647988676	0.8583223683628891	-0.22319647478312604	0.4620238582717416	0.2875092765063138	0.9550094906400586	-0.07276873442785686
48														8.692284788034156	4.528452781998755	-0.667060042820422	-0.4251227911822537	0.195141486236312	0.8838497682111447	0.8583214058491676	-0.22305880623786578	0.4620921263350499	0.28732381850191147	0.9550730701413492	-0.07266673250022426
49														8.653053391024883	4.473565353263705	-0.6806015294661006	-0.4250191952827655	0.19503202413467957	0.8839237485230949	0.8584194497834864	-0.22297008476884322	0.4619528001122956	0.2871841427979723	0.9551161452201002	-0.07265271684726754
50														8.703848749888152	4.504287411970342	-0.687611240908879	-0.42506732361151844	0.19492592709693257	0.883924008805701	0.8584137918023009	-0.2229606901151283	0.46196784813121006	0.28712981809860105	0.9551399968636985	-0.07255380038204207
51														8.661852994906813	4.473043091598813	-0.7018209619091158	-0.4251728349514022	0.19453650841041203	0.8839590529627906	0.8584021095749446	-0.22301960209120986	0.46196111888379066	0.28700849934570416	0.9552056343942725	-0.07216867273798822
52														8.652827306086786	4.545388840240246	-0.7037581741505771	-0.42525335170338247	0.1943281341753832	0.8839661549702875	0.8583221196246581	-0.2232546462041872	0.4619962141741836	0.28712841348092694	0.9551931423624012	-0.07185634944643637
53														8.619269970072871	4.514347463518757	-0.7393759262846006	-0.42533220108392844	0.19406186669746722	0.8839867140489129	0.858259102994628	-0.22346634426318918	0.46201093613517613	0.2871999840667764	0.9551977726500098	-0.07150793156359009
54														8.622894752749744	4.438473195515764	-0.7873192541259623	-0.42545848411459986	0.19396266951588348	0.8839477140245224	0.8581687932519863	-0.22359900242566882	0.4621144970704506	0.28728278852610817	0.9551868764532508	-0.07132061741281776
55														8.648681453190786	4.3979377086342835	-0.6985550699031271	-0.42562522909485606	0.19391705376305535	0.8838774466054713	0.8581343209835005	-0.223447530934683	0.46225175831940385	0.28713873216293534	0.9552315830096125	-0.07130197271332611
56														8.648639918868243	4.397813979527797	-0.6998473528339992	-0.42563383504589725	0.19396203418547142	0.883863432753474	0.8582211557869944	-0.22312000360387405	0.4622487552730042	0.28686632117374183	0.9552990072675887	-0.07149489834808054
57														8.662308593869808	4.472778133666254	-0.6978756557539649	-0.42561410494577967	0.19398537101812385	0.8838678122333476	0.8582983581736763	-0.2228849827295828	0.46221879324623505	0.2866645461642841	0.9553491300590559	-0.07163433302426014
58														8.69645413189384	4.52266846754669	-0.7392006558933769	-0.42552905225507254	0.19394527638708692	0.8839175614581012	0.8583327361971923	-0.22293958812391848	0.46212861198953986	0.28668787846565963	0.9553445293789431	-0.07160230810934182
59														8.690941176306536	4.569878911488819	-0.7410673427252898	-0.4254455964324585	0.1938289783740345	0.8839832417069389	0.8583348201553707	-0.22313878439981502	0.46202859154539433	0.286805475863132	0.9553216264897657	-0.0714367480773831
60														8.67496058332351	4.517515023271757	-0.7446550605235114	-0.425499601804057	0.19365039282508806	0.8839963881279598	0.8582785506448547	-0.2233255179376908	0.46204290119082025	0.2868937405513701	0.9553142092508369	-0.07118105953055104
61														8.601486871412192	4.503535825852996	-0.822695187460775	-0.42558693774785156	0.19363097363559756	0.8839585988423541	0.8582218403125151	-0.2233724843120226	0.4621255306330476	0.28693384469073535	0.9553071648957767	-0.07111391895956287
62														8.66444653114172	4.418023372996531	-0.7464037835265838	-0.4257160070196418	0.1936997896407317	0.8838813680921149	0.8581921450513597	-0.22321064821916653	0.4622588546406933	0.2868311760241526	0.9553310410610115	-0.07120729208364723
63														8.63510198176738	4.463590466041162	-0.7597412765652607	-0.4256141931243384	0.19372595306832452	0.8839246651830055	0.8583493606378213	-0.22285045237253298	0.4621407263702274	0.2865116641670325	0.9554098235757927	-0.07143623248121944
64														8.67715510916693	4.49443789944732	-0.7470640231505365	-0.42559562878607077	0.19381914896204527	0.8839131734813199	0.8584301153293734	-0.22256471133582478	0.4621284305943534	0.28629721943076597	0.9554575274514456	-0.07165762612996884
65														8.671310244294224	4.52205542102866	-0.6737968433580018	-0.42558034969262576	0.19397732618872315	0.8838858313606885	0.8584595642557065	-0.22241038193257753	0.46214802666083843	0.2862316238527889	0.9554613644377663	-0.07186820279732148
66														8.694470928415363	4.524195313374724	-0.6674587075788069	-0.42542541260480266	0.1940738139174888	0.8839392360686078	0.858545453233252	-0.22234360937854325	0.4620205883951842	0.286204337917062	0.955457311511112	-0.07203056877058833
67														8.749489787937293	4.477115205966045	-0.7259756321818945	-0.42540064335213557	0.19404809894597597	0.8839568020729534	0.8585661512891486	-0.22233116871358888	0.4619881116208394	0.2861790636928714	0.9554654293661823	-0.07202330726902956
68														8.715657235322464	4.497357586275995	-0.7125370562127107	-0.42543293751027894	0.19388063916654347	0.8839780050644628	0.8585752867449239	-0.2223318239435866	0.46197081839959264	0.2861036397395993	0.9554992714901934	-0.071873844404366
69														8.64475355941705	4.51128834549912	-0.7374427069801647	-0.42551917537560024	0.19373196421203265	0.8839690930288326	0.8585102273843964	-0.22247627388766594	0.46202218240410553	0.28617061495559154	0.9554958051187918	-0.07165295204198202
70														8.638508180249344	4.560185235027712	-0.7378114397957836	-0.42565251068964405	0.1935866724271189	0.8839367287324345	0.8583787545641088	-0.22275840400721758	0.4621305087928368	0.28636664236005466	0.9554595196567733	-0.07135301283531026
71														8.593810735704496	4.481556573653903	-0.7260062355259463	-0.4255347703739666	0.19352359650261064	0.8840072266669944	0.8583898829231095	-0.22295954678177948	0.46201282384162723	0.2865082339096495	0.9554253807051385	-0.07124165780226682
72														8.623174562236112	4.384367129772406	-0.7665270811325217	-0.4254788211961903	0.19373900758687884	0.8839869736895178	0.8583216996968981	-0.2231716689796665	0.462037082921121	0.2867954541880486	0.9553321951573087	-0.07133557564770515
73														8.700008634135816	4.373614072816097	-0.6878111981139762	-0.4253199319200794	0.19383475413499945	0.8840424444566695	0.858419581498991	-0.22307216522358558	0.4619032703949591	0.2867381690856597	0.9553360127158852	-0.07151451039836593
74														8.654451236562988	4.418046056962231	-0.6559074819583516	-0.4252085475109223	0.19400300456056296	0.884059118693499	0.8584696726761245	-0.22301125400357064	0.4618395843613912	0.2867533996642402	0.9553160811005064	-0.07171940442984354
75														8.659827672799695	4.493031124850237	-0.630787118207797	-0.42503558441628414	0.19415617443437638	0.8841086652153771	0.8585125705344395	-0.22308927388389804	0.461722148171716	0.28688136609800347	0.9552667458919331	-0.07186463649654246
76														8.682354166897639	4.567503744798185	-0.6501082757947589	-0.4249456074645979	0.19417905955330195	0.8841468902436624	0.8584850835964033	-0.22332520441295778	0.46165919715347037	0.2870968337321402	0.9552069649583307	-0.07179876152186748
77														8.678048031814383	4.490226239055751	-0.6765074145076163	-0.42489847312963136	0.19423567877873277	0.884157106300387	0.8583847034465659	-0.22371121265404786	0.461658958779972	0.28746649965006416	0.9551051221840565	-0.07167438284854172
78														8.662236952934991	4.437256508376567	-0.6810517879875456	-0.4247922928584767	0.1942010085295896	0.884215740763604	0.8583487655611861	-0.22403274666507458	0.46156984854005684	0.2877306111410927	0.9550368038498795	-0.07152481181087139
79														8.719866292248247	4.418339679454473	-0.684737583688262	-0.42477617015730884	0.19394615640100782	0.8842794205927025	0.8583643533850465	-0.22414195674728898	0.4614878330610336	0.2877079110910245	0.9550629673706196	-0.07126630517198751
80														8.71542104264198	4.341182396993191	-0.7116029568119947	-0.42475639310817637	0.19387910074640946	0.8843036247847771	0.8584237900610795	-0.22401385997032364	0.46143947295216087	0.28755973843864874	0.9551066353213968	-0.07127911330913195
81														8.686379077192125	4.437822036943815	-0.6721963307146333	-0.42490034013185546	0.19367039420805449	0.8842802040999962	0.8584974185560685	-0.22362831598795604	0.4614895000116016	0.287126946294493	0.9552393180222892	-0.07124578595195435
82														8.665789668681933	4.534314651921531	-0.6560059841754462	-0.42490045000033655	0.19361947470032648	0.884291301894506	0.858574244966798	-0.22339899416197984	0.46145764192080274	0.2868969736145776	0.9553032965630259	-0.0713143611526531
83														8.609662057349988	4.499035210990797	-0.7035494559026964	-0.42480085766723774	0.19365595177957157	0.884331161763243	0.8586312720259341	-0.2233631050026895	0.4613689001468169	0.2868737876214997	0.9553042948003037	-0.07139421763552672
84														8.62342265752213	4.6257581242316	-0.6485175217614219	-0.42458166852656487	0.193733062359342	0.884419531274649	0.8586393786308728	-0.22367640543555337	0.4612019981698028	0.287173857124194	0.9552153506933929	-0.07137793485463001
85														8.625030137607707	4.571404051957542	-0.6994486284695596	-0.42435606650161817	0.19375946323012044	0.8845220173811671	0.8585741417988275	-0.2242702581648383	0.4610350250654318	0.2877018801775212	0.9550707417314448	-0.071186420270069
86														8.730120308532673	4.361419678129542	-0.6839679422008647	-0.4241129881368864	0.1938794457342869	0.8846123070675462	0.8585252767006017	-0.2247898951704937	0.4608729242376831	0.28820569487738434	0.9549242187477517	-0.07111409065185254
87														8.75368606811143	4.362947713701259	-0.6758061711653564	-0.42400989980293446	0.19390139063802125	0.8846569140507221	0.8585424059140249	-0.22489961696121397	0.46078747762722116	0.2883063338126013	0.9548939276167487	-0.07111290237499923
88														8.799234011536539	4.420585345600348	-0.6081671510512817	-0.42399488558497783	0.1938371366266502	0.8846781909045587	0.8585906141186572	-0.2247992828568123	0.4607466112457147	0.2881848267087086	0.9549305979449209	-0.07111299996081843
89														8.802165203083426	4.467715759386639	-0.633902310076773	-0.42386723092507705	0.1935470672024645	0.8848028612777156	0.8587624023864749	-0.22460108248449195	0.4605230613055169	0.2878605683231342	0.9550360655619867	-0.0710099055101685
90														8.71984443293425	4.5574492389490215	-0.5861576161717558	-0.4238853478816073	0.1932392454502539	0.8848614613989612	0.8587701483780834	-0.2247042951519968	0.4604582630325239	0.2878107783005588	0.9550741195101357	-0.07069923716678789
91														8.681264846503936	4.521191612729809	-0.6756963639961275	-0.4237891933487784	0.1928182426461933	0.8849993474029381	0.8587891705603221	-0.22502616592000196	0.4602655594107149	0.287895606303928	0.9550834256514863	-0.07022656133341726
92														8.631397432412204	4.508943006780213	-0.744127080477369	-0.42364661667691167	0.19265735961765595	0.8851026414847942	0.8587940303588499	-0.22533954617945173	0.46010314316209855	0.28809088426781165	0.9550420046850259	-0.06998865400190557
93														8.615425878605144	4.507519582174075	-0.697691830370926	-0.42337715497053297	0.19276662008242557	0.8852077805978975	0.8588773626407302	-0.22547067837696005	0.4598832994744831	0.28823854806802124	0.9549890069389446	-0.07010375192104784
94														8.6705127267004	4.439997855394313	-0.6782087371210466	-0.42325987462739	0.19288721016680105	0.8852375967413917	0.8589591597440349	-0.22533886656421276	0.4597951251452952	0.2881670356273039	0.9549957692940971	-0.07030533555959961
95														8.67896786850005	4.522741348545917	-0.5221273584312368	-0.42326372776350346	0.19282546000762157	0.8852492071346872	0.8590008434950693	-0.22522612947417492	0.45977248882120175	0.28803709419882495	0.9550348331736029	-0.0703071816428869
96														8.7420167596912	4.527433361632923	-0.5520858737081784	-0.42313106162324077	0.19281596749577323	0.885314693975119	0.8590116625904107	-0.22542354896770533	0.4596555091636163	0.28819970198327416	0.9549901707606596	-0.07024745922293896
97														8.689189119178181	4.519287229441792	-0.5442417053013708	-0.42308774467811294	0.19256798952583637	0.8853893661622354	0.8589483194992751	-0.22583656098592253	0.4595711393804257	0.2884519799421716	0.9549426250471956	-0.06985726973917605
98														8.662712722464768	4.386019103475082	-0.6280726865138425	-0.42306773129532055	0.1922496246121047	0.885468111550685	0.8589534975077368	-0.22601902975848076	0.4594717481045625	0.2884659145477295	0.9549636014129235	-0.06951212930562678
99														8.679692346526481	4.508979930225985	-0.6467649677454209	-0.4231937376267235	0.1919313599600752	0.8854769412567447	0.8589546949616667	-0.22596367543400664	0.45949673490424914	0.28827745738582267	0.9550407166441814	-0.06923393037329517
100														8.694409595815735	4.460205268176321	-0.6649227972315879	-0.4233917074702264	0.19161555455501644	0.885450699529918	0.8589790884561481	-0.22570608795100663	0.4595777273290109	0.2879138545476624	0.955165033444183	-0.06903166842168551
101														8.68009859587054	4.457283826712244	-0.6942469400898618	-0.42376182385820255	0.1911187923062534	0.8853810049169621	0.8589388043556578	-0.2254597513281721	0.4597738910628928	0.2874892119931522	0.9553227244017799	-0.06861811152398756
102														8.636819340075341	4.551631332330322	-0.6827241691682658	-0.42391627201379783	0.19084723323654618	0.8853656464353471	0.858858905068869	-0.22559974545499872	0.4598544726699352	0.28750021827092265	0.9553439634061629	-0.06827544271241826
103														8.67208133919194	4.405945905191411	-0.7173839851056913	-0.4238912091306196	0.19079149583015953	0.8853896588173322	0.858754970995028	-0.22601706340896222	0.4598436547777063	0.2878474294016024	0.9552564536117407	-0.06803649917514976
104														8.686772179266658	4.408632767880587	-0.6843959806757663	-0.4237635205084775	0.1908209616477296	0.885444430374994	0.8586944998641171	-0.22642220619405234	0.45975726252592497	0.2882156043474667	0.9551546184456494	-0.06790743900759905
105														8.704956926887219	4.334473157464798	-0.7029588278395301	-0.4237712859578657	0.19068433377464378	0.8854701474643493	0.8586651734283992	-0.22657696113623432	0.4597357943682936	0.2882915488508003	0.9551452065184587	-0.06771718634155593
106														8.77669598830977	4.318407670241286	-0.677556741325173	-0.4236065897629616	0.19074398201843917	0.8855361034046785	0.858787060731454	-0.22642539179314058	0.4595827741240429	0.28817050756387647	0.955169239074977	-0.06789317561659391
107														8.726024040690174	4.358687868298456	-0.6990228885541865	-0.42353783374606807	0.19050604139755345	0.885620207299225	0.8589928433174072	-0.2259844678851617	0.4594151884778488	0.28765778020968774	0.9553211336852623	-0.06793035418088889
108														8.745574612227427	4.489268853758781	-0.5901524074088949	-0.42352081487583143	0.1903342819502204	0.8856652756439118	0.8591119760584823	-0.22570699994978186	0.4593288176966034	0.2873268730206106	0.9554209602516389	-0.06792684853601527
109														8.686856282196375	4.477824702426812	-0.6374865288445871	-0.4233446117497747	0.19025703061606702	0.8857661102139718	0.8591701109344579	-0.22585751726358416	0.4591460577772627	0.287412700100925	0.9554007767406761	-0.06784759114374683
110														8.671268717039423	4.424258458469438	-0.6407354129189907	-0.42318560380859765	0.19002281172951563	0.885892361267193	0.8591735822725003	-0.22624115459871386	0.4589506460294844	0.2876364028668708	0.955356619796111	-0.06752058025192975
111														8.704311657639527	4.352280613819756	-0.6259584052103108	-0.4230303578987268	0.18986356077724625	0.8860006459281282	0.8591685287948698	-0.2266073595258965	0.4587794064004621	0.287879758622475	0.9553014879595271	-0.06726300378201655
112														8.711759069910743	4.321152207838656	-0.7007009889347359	-0.42281125195691754	0.1897323165686713	0.8861333383120791	0.8592836776730148	-0.22666954547429022	0.45853296330712934	0.2878579623761736	0.9553128101328718	-0.06719544845205844
113														8.730183928857326	4.297594904992881	-0.6686980013047957	-0.4226145654493763	0.18950825675783345	0.8862750982006897	0.859558366688687	-0.2262108853271843	0.45824453037103274	0.28732619672684173	0.955465988918548	-0.06729339265031692
114														8.684727915897938	4.537927518711418	-0.6383833181925165	-0.4225884994633151	0.18932455928527764	0.8863267858824867	0.8597460365939924	-0.22572601491244387	0.4581315517978092	0.28680256742620924	0.9556170663205962	-0.06738182154373823
115														8.676594096432972	4.609163828088086	-0.6433616105658307	-0.422447030302413	0.1891382781049173	0.8864339898402926	0.8599363629634513	-0.22543141780262005	0.45791934608694196	0.2864401477479442	0.9557234891028934	-0.067414049983133
116														8.680423646358244	4.511443666138449	-0.6143491301591617	-0.42241705366358384	0.18893329813813325	0.8864919862180507	0.8599831678309953	-0.22543276862927092	0.4578307742774709	0.2863438209941744	0.9557637133113966	-0.06725281031798863
117														8.689870649126007	4.581595898159526	-0.6626482194096944	-0.4222206596564545	0.18881429587864973	0.886610893363666	0.8600101221372504	-0.22574259513610323	0.45762743641819503	0.28655244612590586	0.9557141007712856	-0.06706901822893102
118														8.71439886481429	4.530031739437556	-0.7028243209221525	-0.4220135066891536	0.18856705074644825	0.8867621256823673	0.860010486660904	-0.22622523810052964	0.4573883519282431	0.2868563455899126	0.9556487895765609	-0.06669953504827109
119														8.718997181652815	4.43095127470209	-0.6716376529137024	-0.42195708810258087	0.1882560000959571	0.8868550581847418	0.8600189489663982	-0.2264543754015622	0.457259033022006	0.28691396483740983	0.955655845108143	-0.06634969850661132
120														8.71452631731022	4.49746716545989	-0.7509905428924694	-0.4219293260382209	0.18796563800080435	0.8869298522205028	0.8600955942982789	-0.22639636185417064	0.45714358357947626	0.28672497710806943	0.9557267424688637	-0.06614515274932159
121														8.697952279580274	4.569251398066918	-0.73097745011514	-0.4220761842849218	0.18765805856114448	0.8869251082907414	0.8601204392358623	-0.22621958098808612	0.4571843514232333	0.2864341541579643	0.9558290402758421	-0.06592663420177552
122														8.664168923549381	4.590061175781343	-0.7166861729861366	-0.42216258599783996	0.18742268360698605	0.8869337566318987	0.860128750693705	-0.2261645004449669	0.45719596560836445	0.2862818248050381	0.9558882551888763	-0.06572944833378164
123														8.684325934791062	4.544766910909898	-0.6815068657031274	-0.42220708644130744	0.18728722688574362	0.8869411879060475	0.860124921831242	-0.2261705102169127	0.4572001959240847	0.2862276978273458	0.9559133825581007	-0.0655996192274636
124														8.696358115408055	4.447064531312612	-0.6758245133397702	-0.42213134532014696	0.1872448420258544	0.886986187284174	0.8601829753189845	-0.2261288433694656	0.4571115784660975	0.2861649459133358	0.9559315432242523	-0.06560875245969133
125														8.708514017904534	4.493354876386714	-0.7246446927949355	-0.4220700750137324	0.18721590771095803	0.8870214516446964	0.8602365437809634	-0.2260702670564112	0.457039739078371	0.28609428606961873	0.9559510647794713	-0.06563247081521639
126														8.623842297266847	4.6073161131996985	-0.6797206956478143	-0.4220122100123537	0.18701473897493498	0.8870914169388778	0.860297578151529	-0.22606955043483812	0.4569251967147402	0.28599610421665356	0.9559906096674419	-0.06548421642327162
127														8.61884146068915	4.654565044886848	-0.6808038146082764	-0.42198199023377625	0.18685588690151073	0.8871392660955728	0.860257389120074	-0.22633767293293197	0.45686812350569966	0.2861615354701874	0.9559582288685815	-0.06523373571848923
128														8.57970903088348	4.599329709816416	-0.6923913733172374	-0.42201442140433637	0.18674723141021238	0.8871467182419062	0.8601310995038207	-0.2267594943501155	0.4568967316455971	0.28649314091808903	0.9558794920295658	-0.0649313246760565
129														8.616980996508087	4.501930974907605	-0.7537519065315501	-0.42208407498916134	0.18663131775972086	0.8871379739768863	0.8600783012218817	-0.226875654667554	0.45693845656330073	0.28654903490995526	0.9558745673729578	-0.06475694589566705
130														8.624837245924295	4.410062331287967	-0.6719558957926149	-0.42217547988864423	0.1868123055902849	0.8870563830224295	0.8600420611694104	-0.22674622397557534	0.4570708948645612	0.2865231529916309	0.9558699244106703	-0.0649397444318518
131														8.678193563545546	4.489058092032355	-0.7076672864175881	-0.42237851891217876	0.18679064799306677	0.8869642837137717	0.8600642626957675	-0.22633392567036772	0.45723343942041883	0.2861570386957825	0.9559718656492827	-0.06505337264039263
132														8.665984008709447	4.566231960667683	-0.6375891358993235	-0.4224451115712286	0.18691913074900363	0.8869055001913165	0.8600583878471102	-0.2261725975919013	0.4573243111757365	0.28607638351217013	0.9559849343261477	-0.0652158580257059
133														8.725487358751662	4.524172956468771	-0.641436943734687	-0.42259312111684727	0.18692186734182864	0.8868344092862921	0.8599314494010395	-0.22634023411500764	0.45748005503168343	0.2862393339772685	0.9559447232608215	-0.06509016633902848
134														8.691661235270868	4.493378420191683	-0.6786102782978914	-0.42265986821328294	0.18683474424750413	0.886820959463578	0.8598119575306727	-0.22666910570634838	0.4575418168927926	0.28649962214495817	0.9558838291655817	-0.06483881284032122
135														8.706217110835574	4.392925457162351	-0.7482699192534746	-0.42281304751560483	0.18667882949145365	0.8867807741884509	0.8597198157133215	-0.22679326200409544	0.4576534221213636	0.2865501096150901	0.9558848418764906	-0.06460033862401438
136														8.686031612368902	4.366407568093451	-0.7548916107213884	-0.4229736251923867	0.18667516568829956	0.8867049649724853	0.8596758293329015	-0.22666535667710108	0.4577993933408284	0.28644507475674696	0.9559158951485682	-0.06460666025970696
137														8.665483531719527	4.412435182819318	-0.7904764510462802	-0.4231576125845661	0.1865524990429558	0.8866429946785563	0.8597411966134801	-0.22619302903850144	0.45791024061491503	0.2859767643661841	0.956051713410533	-0.06467156660722218
138														8.664366197184364	4.465830195129089	-0.7415137749968618	-0.4232685005207289	0.1867377630958122	0.886551061304935	0.8597059665267719	-0.22602360232852559	0.4580600204216758	0.2859185681014846	0.9560556150268715	-0.06487089786944411
139														8.663290571108547	4.4266591007439295	-0.5870304133410094	-0.42325434210720075	0.1870372213282887	0.88649469244051	0.8596167555191119	-0.22619144862578786	0.45814458656559964	0.2862076091200184	0.955957376877422	-0.06504381658115094
140														8.765660176849648	4.36259859010236	-0.6283480499521373	-0.4230369642990471	0.18743746995729277	0.8865139151150738	0.8595355460185259	-0.22663036359918864	0.45808004041382844	0.28677233473137176	0.9557750117841065	-0.06523614704908265
141														8.780724959962217	4.240150024583079	-0.6230255830039944	-0.4228671361107805	0.187720873830714	0.8865349732107023	0.8594349062339709	-0.22711114559186407	0.45803075169092905	0.287323906321895	0.9556052537926867	-0.06529603188358868
142														8.764334210941566	4.311231783298986	-0.6049077604381979	-0.42269904138925585	0.18774014556350527	0.8866110523518185	0.8594454025936848	-0.22735496233649438	0.4578900753036159	0.2875397718041524	0.9555434887250114	-0.06524968035209716
143														8.756387790562748	4.382477323909054	-0.6085540514975664	-0.42281613913639177	0.1876532631834441	0.8865736096356586	0.8593386506741595	-0.2275535561170427	0.45799177127542734	0.2876866280231164	0.9555132819145391	-0.06504438593449952
144														8.679984001363046	4.372966262245139	-0.6099133165941529	-0.42292628111800795	0.1875577529168606	0.8865412850287737	0.8592631315952977	-0.22766472059962067	0.4580782091251869	0.28775029351980425	0.955505554308856	-0.0648760685013508
145														8.679446624296437	4.425875477950765	-0.5576394652977709	-0.4231253218582646	0.18751713133861442	0.886454898715596	0.8591328083164569	-0.2277768570520357	0.4582668666462544	0.28784679896885995	0.9554868020260847	-0.06472396370238304
146														8.693409794823486	4.377918140460109	-0.5777783606595159	-0.42314967960901384	0.1876888224719252	0.8864069350844967	0.8590223023567533	-0.2280129191321684	0.4583566218159506	0.2881406474284598	0.9553967838693668	-0.06474529072896795
147														8.67080301821128	4.37451428064877	-0.5867714302606238	-0.42310180421192944	0.18782690601796403	0.8864005396254732	0.8589192597046034	-0.22836496155034242	0.4583744644334018	0.2885178826019409	0.9552855582033211	-0.06470651981881798
148														8.705546104014056	4.351915655985088	-0.6003292423167168	-0.42289530255243746	0.1879766276760681	0.8864673431811328	0.8588925057017465	-0.22872932003584323	0.4582429069885503	0.28890002895198663	0.9551689304010442	-0.06472316175889115
149														8.737547890743388	4.332755665758719	-0.537271249065974	-0.42271212732613145	0.18786940991361695	0.8865774316043271	0.8589925870618018	-0.2287668091979885	0.4580365513605259	0.2888705467580399	0.9551810466231415	-0.06467592587377902
150														8.724176469440664	4.327588324558339	-0.5700038926779263	-0.42259867447178134	0.18790586272095294	0.8866237911819118	0.8590805526447072	-0.22865087905318798	0.4579294482514392	0.28877493728223114	0.9552016343491553	-0.06479871398681197
151														8.727228709088457	4.499140364167944	-0.5721723984752903	-0.42267005948743447	0.18785368246602285	0.8866008204354671	0.8590709695403911	-0.2285875531180429	0.45797903866054657	0.2886989610404255	0.9552270539214541	-0.0647625304533288
152														8.718984123276723	4.498862744880157	-0.5490525367963304	-0.42267804173885204	0.18777863170492298	0.8866129135687317	0.8590300665617059	-0.22874799020307313	0.4579756562537416	0.28880896415243024	0.9552034037068131	-0.06462073794161294
153														8.69956084820826	4.41904329850013	-0.6062455313469639	-0.4227456149791511	0.18760036292945714	0.8866184347534374	0.8589648234822931	-0.22894039740678823	0.4580018847726009	0.28890409660635186	0.9551923357439369	-0.06435856353361141
154														8.711145822592734	4.373972824429703	-0.5481531853087764	-0.4227175373868064	0.1875852601639555	0.8866350172166981	0.8589100781596367	-0.2291770670461996	0.4579861892851225	0.28910787125472787	0.9551385460284401	-0.06424170506171828
155														8.782792644251657	4.306025488399131	-0.5724400588286919	-0.42251295750987594	0.18749112073004498	0.8867524346646304	0.8589873559237802	-0.22931937771780336	0.45776996992615465	0.2891773212050538	0.955122873064252	-0.0641620935612141
156														8.777952240686663	4.280368997078424	-0.5480799292838123	-0.4223901796808673	0.1874047611835707	0.8868291783623798	0.8590557337266034	-0.22934740689351912	0.4576275923747013	0.28915356207491527	0.9551330914783278	-0.06411704221531672
157														8.736419149907414	4.444466373467896	-0.5654165640261039	-0.42225852091952865	0.1872751950245622	0.8869192425691106	0.8591171307230387	-0.2294358116379107	0.45746799236259916	0.2891634437633255	0.955137272682082	-0.06401010173690358
158														8.692523080721744	4.383558637354479	-0.632425220679731	-0.42215249109197145	0.18695330506114166	0.8870376181377875	0.8592460382788139	-0.22935648375241346	0.45726562199983156	0.2889351483759061	0.9552193806071175	-0.06381547575273983
159														8.685076941792106	4.381801883894216	-0.6083701281653104	-0.4221975998928401	0.18677051271849276	0.8870546557138383	0.8592999148071333	-0.22919561066752075	0.4572450420323825	0.2887089244501775	0.9552937493931452	-0.06372604893768435
160														8.660521549528765	4.546054145185516	-0.6709612406697704	-0.4221957334672641	0.18648676407180548	0.8871152402411234	0.8593664719495082	-0.22912472745182447	0.4571554726339635	0.2885134824078318	0.9553661842959245	-0.06352499014365776
161														8.638290939750553	4.449214377423664	-0.5725315535026468	-0.4222122316587527	0.1862506117521554	0.8871569991042645	0.8593527435884414	-0.22926372263104663	0.457111592034564	0.288530229828271	0.9553789065639365	-0.06325702623379276
162														8.712879178111232	4.356670507673486	-0.5949598351470742	-0.4220541199247262	0.18627467900433675	0.887227177117786	0.8593401344013716	-0.22956262554667956	0.45698526711388243	0.2887989841768775	0.9553024363592638	-0.06318545579844587
163														8.787840178020312	4.335773777931523	-0.6448586684823775	-0.421814464539226	0.18630445646805066	0.8873348899967981	0.8593643965312223	-0.2298750692727105	0.45678253743044306	0.2890767916661827	0.9552214937002885	-0.06313878754755786
164														8.81471947878922	4.38455640199337	-0.661508379497033	-0.4216293182616073	0.18618504870965813	0.8874479396670178	0.8594467308030755	-0.22997930238889766	0.45657511691355035	0.2891021184532525	0.9552196857842172	-0.06305011495741608
165														8.832874733541669	4.433993731858076	-0.6551863765001618	-0.4216767000257978	0.1860813513798788	0.8874471766386958	0.8594470035499021	-0.22995119621287574	0.456588759661649	0.2890321932665095	0.9552466582139435	-0.06296199827392313
166														8.759777631956542	4.524029148889205	-0.6312572516406314	-0.4217339304693065	0.18585438329802756	0.8874675431247168	0.8595200634797691	-0.22972899931521257	0.456563081456841	0.2887312805475796	0.9553443018527624	-0.0628610575063287
167														8.677698600253514	4.563227071585319	-0.6357892734301974	-0.4219579913001144	0.18565273323270814	0.8874032433010359	0.8594721578113974	-0.22960971336434866	0.45671324644218714	0.28854646683851964	0.9554121844376732	-0.06267770180088372
168														8.666359332563312	4.463192845916527	-0.637594230309607	-0.4220109760347023	0.18547622144775627	0.8874149578318478	0.8594661852917882	-0.2296300329119057	0.45671426989405295	0.2884867630346644	0.9554415833855774	-0.06250414619400396
169														8.71252214633223	4.488769994019314	-0.6978032744337659	-0.42192205686047823	0.18549238723450823	0.8874538592020811	0.8594375629801358	-0.2298679568405818	0.4566484400024837	0.2887020146680464	0.9553812310779295	-0.06243276407969944
170														8.62532224464241	4.430115264083055	-0.6510295096859093	-0.4217501897136912	0.1853345482859058	0.8875685228128161	0.8595298293165191	-0.22993638902622116	0.4564402803398243	0.28867845432518974	0.9553953957463063	-0.06232485696074885
171														8.68051941440549	4.433600383770283	-0.6567527651215743	-0.42161097760013944	0.1852081689453473	0.8876610376280845	0.8596483470968839	-0.22984595613856068	0.4562625952018723	0.28852885973616477	0.9554416625847252	-0.062308318037690824
172														8.698841243877938	4.555462739981593	-0.678603169553021	-0.42152233157421637	0.18512678092696472	0.887720112967965	0.8597534606368513	-0.2296904979639814	0.4561428088526848	0.288345124646135	0.9554948195195401	-0.062343716316297926
173														8.693689288005476	4.5302650631039	-0.6546537519907049	-0.42160755497672164	0.1849672762802413	0.8877128906870848	0.8597654608311533	-0.2295875221796801	0.45617203116937155	0.288184701100433	0.95555045725742	-0.062232641650426135
174														8.691430710156974	4.553586909768397	-0.6553125894582079	-0.42161394553015347	0.18480408633418743	0.8877438429010274	0.8597655374768544	-0.22966023380131206	0.45613528429344663	0.28817512297496034	0.9555645591400478	-0.06206022731068295
175														8.711614491276558	4.455698238960358	-0.6711651108740629	-0.42159094780737644	0.1846296760135861	0.8877910539434357	0.8597693508393631	-0.22977637254889233	0.4560696021174101	0.2881973908350632	0.9555703539527537	-0.061867298005254534
176														8.73192423658436	4.482440304832505	-0.6624996756434498	-0.4216295358507692	0.18445086093353225	0.8878098976690583	0.8597507804716695	-0.22986407766780226	0.456060414064064	0.28819633928386384	0.9555837931331868	-0.06166428727043516
177														8.658809111568063	4.520936310523784	-0.6892983202791124	-0.4215758241943246	0.1844818663756152	0.887828961812716	0.8596939300955095	-0.23012800314214132	0.456034481949279	0.2884443984753607	0.9555142820221891	-0.0615815381409649
178														8.676567076626556	4.51946953851449	-0.7336070030564257	-0.4215373222533095	0.1844085355992059	0.8878624769330359	0.8596424275438023	-0.23040169332788374	0.4559933732832553	0.28865408833776773	0.9554624805348455	-0.061402488354234785
179														8.660153406573516	4.539635322104973	-0.7653849338626793	-0.42163240544711017	0.18444258392167734	0.8878102544537196	0.8595175252424944	-0.2306358612676194	0.4561104288419213	0.2888870687273863	0.9553994100551026	-0.06128808031305877
180														8.662709328368333	4.442879125298127	-0.7371598019443579	-0.4216612431921859	0.1845225749231617	0.8877799363205644	0.859482526225522	-0.23066150234498917	0.45616341200160515	0.2889491012317117	0.9553777738045184	-0.061332913005231804
181														8.67398086956874	4.543249071880441	-0.7355227838680558	-0.42168386109774114	0.18479472443136263	0.8877125836170385	0.8594303824338172	-0.2306555886788748	0.4562646350100613	0.28907116604629346	0.9553265982026976	-0.061554461471917454
182														8.678973145121747	4.495581778032419	-0.7345152574242524	-0.4217582059394128	0.1849732907661623	0.8876400720032329	0.8593686310902471	-0.2306415542409883	0.45638802499120856	0.2891462806623018	0.9552954282107907	-0.06168527554221814
183														8.646825577526982	4.473360187644902	-0.6436198448306594	-0.4217752576489239	0.18512335612000252	0.8876006844601072	0.8593468213097439	-0.2306074746462897	0.4564463093750458	0.289186225017761	0.9552745865227065	-0.06182064059720932
184														8.688942572128251	4.452311079444753	-0.681515717483485	-0.4218413797703001	0.1853402184342705	0.8875240017848683	0.8592869896222051	-0.23058121964649808	0.4565721964950804	0.28926755742650856	0.9552388730454131	-0.06199173850950884
185														8.656803697126003	4.430143454679017	-0.590937962531345	-0.4219407223658266	0.18552256319057575	0.8874386769555418	0.8592430167245391	-0.23046380873744163	0.45671421159445524	0.2892532886926566	0.9552318103002172	-0.062166900928483426
186														8.724767497755355	4.460016268937699	-0.6461159735127712	-0.4219629955957315	0.18567890573521217	0.8873953878136008	0.8592357269104733	-0.2303695563207121	0.4567754734234633	0.2892424518436175	0.9552241681854436	-0.062334521462188985
187														8.676256934631796	4.530620879796264	-0.614549635005455	-0.42205815990626744	0.1858391821065754	0.887316577130449	0.8591387964799955	-0.23044530306121364	0.4569195669698678	0.28939149614223575	0.9551747278330733	-0.06240033068481193
188														8.709845478027184	4.509985116691377	-0.628099893992434	-0.4221443541936838	0.18599126416011286	0.8872437060236167	0.8589940552933786	-0.23069799250447426	0.45706416313800247	0.28969528334619926	0.9550841250437209	-0.0623775351904568
189														8.717875087138323	4.5107214839794025	-0.6509707052284787	-0.4221840485833529	0.1863477377853901	0.8871500153548084	0.8587733235806776	-0.23117385650474634	0.45723847910572835	0.2902912465576009	0.9548995594778492	-0.062432551453899254
190														8.714271005274169	4.411657869046317	-0.6771424810474812	-0.4222543881770769	0.18662403531844862	0.8870584541655987	0.8585880584566986	-0.2315211464615619	0.45741065205860854	0.29073661197166045	0.954761450930327	-0.06247234809623886
191														8.744434608108577	4.343616561546487	-0.666467643461231	-0.4224037401351085	0.18708544211635414	0.8868901384433139	0.8584091099136859	-0.23161757272433786	0.45769760762153866	0.2910479004168654	0.9546477556425799	-0.06275971884513215
192														8.768865586862246	4.376233606480963	-0.6084918872269707	-0.4225250705875954	0.18739762067118904	0.8867664272466143	0.8583697781530494	-0.2313799857191557	0.4578915004256884	0.29098778097788297	0.9546441399680724	-0.06309260928339472
193														8.773632066158417	4.453790065975607	-0.5843920957539627	-0.42259625590806627	0.1877727717456255	0.8866531400065358	0.8583107333943403	-0.23125930126419408	0.4580631184879075	0.2910585670145343	0.9545996657079668	-0.06343807057031198
194														8.744331204402178	4.480386181670272	-0.5187479759123445	-0.42275662127703556	0.18787312436588888	0.8865554287845882	0.8582056421376754	-0.2312803151134076	0.4582493771344418	0.29113556115577166	0.954574829430382	-0.0634584907516067
195														8.715382128786747	4.454370460570969	-0.5029783481224708	-0.42283520803582914	0.18793290010235114	0.8865052802462131	0.8580821694783911	-0.23152092258836535	0.45835908720902435	0.2913852729095191	0.9545047341228601	-0.06336667316889272
196														8.69248018020849	4.399636770140056	-0.562239951632946	-0.42289850381078226	0.18796598192509534	0.8864680733751984	0.8579674708879177	-0.2317722007501674	0.4584467971941933	0.2916310586559523	0.9544372355468738	-0.06325258120306004
197														8.706428899748623	4.351360300565824	-0.5823472200668822	-0.42304050416074757	0.1879521349843975	0.8864032529239882	0.8578834715806736	-0.231813883808758	0.4585828959546918	0.29167221504303864	0.9544298393430011	-0.06317436777349628
198														8.671906176934108	4.37352933925207	-0.5704742894627048	-0.4231565192465921	0.18811505680756063	0.8863133112062553	0.8578267630321414	-0.23171869618886112	0.45873706026691596	0.29167071303939013	0.9544208564563236	-0.0633168533352001
199														8.696826830720022	4.425874643967405	-0.5895088257168991	-0.42341505020197767	0.1883554594228945	0.88613876800874	0.857691704584312	-0.2315981059682812	0.45905038634028256	0.29169270671327135	0.9544027128091661	-0.06348879139494085
200														8.67631943194872	4.451675485773886	-0.5467325483081512	-0.42352033719833704	0.1884748109235066	0.8860630731650856	0.8576315395878631	-0.231554628675953	0.45918470819801227	0.29171675694680094	0.9543897000628676	-0.06357384784918296
201														8.698590693163078	4.455586656968909	-0.5386812838602204	-0.42357650196791774	0.18863174415323591	0.8860028284821281	0.8574826941906779	-0.2318647534670381	0.45930617812431646	0.2920725528770537	0.9542833966895674	-0.0635359949831818
202														8.715447857058729	4.383057362655985	-0.5566519027844492	-0.4235970709111318	0.18866931975327195	0.8859849938341773	0.8573458484314912	-0.2322572605794097	0.4593633214411387	0.2924442129582944	0.9541805136828073	-0.06337136273757976
203														8.74360937142405	4.286167150027329	-0.5961201721356592	-0.4236665843806447	0.18883940561465423	0.8859155175107518	0.8571908054371538	-0.23255705623355433	0.45950096699570503	0.29279779431075403	0.9540738412109875	-0.06334474850901134
204														8.711907411152621	4.284287390097726	-0.5816649137182532	-0.42381636170601167	0.18886086799599366	0.8858392992468098	0.857142676973092	-0.2324495468947393	0.459645123393942	0.29272192070577985	0.9540957921971096	-0.06336478872440843
205														8.691412608609904	4.330551047117967	-0.6163638614531792	-0.4240305958505457	0.1887727035445726	0.8857555645769912	0.8571561879987495	-0.232088600626373	0.45980229537785583	0.29237189187417484	0.9542011045140146	-0.0633950233547636
206														8.704785066525853	4.387531778138252	-0.5341358895128645	-0.42425384153461837	0.18871840963182934	0.8856602281965427	0.8571152268747766	-0.23187206497099824	0.45998786217191145	0.2921680437736461	0.954264485010376	-0.06338080817852176
207														8.698562602338907	4.364690275020557	-0.5096279415226261	-0.42441477712440123	0.1886788477453037	0.885591547708056	0.8570161029096193	-0.2319433072392107	0.4601366118671136	0.29222507817101273	0.9542549945588141	-0.06326064374873147
208														8.72974825539604	4.315703843789954	-0.5747830690431115	-0.4244442193985338	0.18863948601084535	0.8855858224569397	0.856961384832641	-0.23209245666488676	0.4601633149926022	0.2923427603428765	0.9542265118287286	-0.06314645356855575
209														8.83219414016568	4.251223995034006	-0.6135518008270577	-0.4244516686914916	0.1885357333980443	0.885604346295269	0.8569741912223195	-0.23209192610850155	0.460139732487967	0.29229440043192795	0.9542471456951329	-0.06305845231872004
210														8.758850574218071	4.289407422233982	-0.6413180421633204	-0.42447438469606597	0.18832232344448124	0.885638865017434	0.8570773940899614	-0.2318271100454441	0.460081005463102	0.2919586225424033	0.954353652238231	-0.06300213633435581
211														8.727881347669646	4.4105082362762476	-0.6019971221561433	-0.4246770296011033	0.188153403381507	0.8855776178998312	0.8570800718615798	-0.2315617502676007	0.4602096329182545	0.2916559119012211	0.9544513882901324	-0.06292357621834566
212														8.719469253695722	4.483090553734955	-0.6050773432489969	-0.42479169902266606	0.18792626834899046	0.8855708498510213	0.857077274274973	-0.23149386965094748	0.46024899156371135	0.2914970983780453	0.9545126012675023	-0.06273065963886232
213														8.705590977925306	4.406959670539069	-0.6076418396523762	-0.42485591993278593	0.18783067503794337	0.8855603225149926	0.8569672077647853	-0.23179456301362983	0.460302601962175	0.29172701642784876	0.9544584422970503	-0.06248543681526725
214														8.655113498510474	4.375788824552768	-0.5985152004079135	-0.4247573531220007	0.1877689407236185	0.8856206952574692	0.8569078940559249	-0.23218809706217486	0.4602146767404172	0.2920446063077225	0.9543749328655784	-0.062277086030024076
215														8.743997340971797	4.234288530323158	-0.6410325910087661	-0.42449554554856067	0.1878217035960129	0.8857350277976601	0.8569331850538963	-0.23252229346728975	0.4599988036876801	0.2923508990285735	0.954283181607537	-0.06224597286718042
216														8.71954979647468	4.325703511875767	-0.677843394275698	-0.4243383586542724	0.18776363280302666	0.8858226546951755	0.8570242692785551	-0.2325215322367853	0.45982946720911233	0.29231209219284215	0.954294794726906	-0.06225018485896694
217														8.708945419371462	4.400622998605787	-0.6054941574563448	-0.4242496615884801	0.18782197371551473	0.8858527704035634	0.8570887881410789	-0.23243091060258236	0.45975502285381387	0.29225166190274543	0.9543053903159422	-0.06237137267224824
218														8.715105716459622	4.423591243251633	-0.6305137191679749	-0.4242622988380344	0.1877768281445215	0.8858562889073199	0.8571428177851292	-0.2322564333539053	0.45974247039521104	0.29207480497988014	0.954356752990047	-0.06241391125589857
219														8.6529332583877	4.489824000685964	-0.6291731245462285	-0.4242725852772626	0.18760839378551675	0.8858870492130285	0.8572239641584761	-0.2320611179569612	0.45968980063189735	0.2918216041601035	0.9544373882627316	-0.06236524057229337
220														8.61057739135639	4.511007919898763	-0.5935245568271423	-0.4242475759649289	0.1875997877281167	0.8859008488156266	0.8572309905708643	-0.2320850449243621	0.45966461765873606	0.2918373229948099	0.9544332619763536	-0.0623548341381851
221														8.701886190081524	4.470299761327652	-0.6114737717595894	-0.4240926615837527	0.18755000138132644	0.8859855593477095	0.8572915337085607	-0.232175682964104	0.45950590689541315	0.29188463581085045	0.9544210020855665	-0.0623210249879676
222														8.691395420290368	4.4409823825434485	-0.6416518594691548	-0.42392595798386856	0.18752180581102462	0.8860713032780332	0.8573446323881573	-0.23229930507894309	0.4593443307313765	0.2919708263896847	0.9543964612283582	-0.06229310822323847
223														8.698042385481646	4.442615698120814	-0.5877052496248975	-0.4237949260182907	0.1875242803258909	0.8861334577643531	0.857403274272502	-0.23232833720801394	0.4592201748583707	0.29198884558822563	0.9543889081597798	-0.062324361477990586
224														8.68503956659565	4.509643804817816	-0.6459226290634289	-0.42372840347698243	0.18735818985598224	0.8862003998987686	0.8574769101382567	-0.23228634438053286	0.45910391284988716	0.2918691293484048	0.9544317486904018	-0.06222899987293684
225														8.671844792374829	4.556742084844447	-0.6247324568231818	-0.4236208124182485	0.18730441047017826	0.8862632030635831	0.8574782726109655	-0.23249193668065088	0.458997289075431	0.29202126512673304	0.9543922449375304	-0.06212103924503437
226														8.624394559542912	4.573658917508623	-0.6411125594165814	-0.4236466090148868	0.1871423186537876	0.8862851139667598	0.8574155535949243	-0.232737156848619	0.4589901788443096	0.2921679638901186	0.9543642744732779	-0.0618604274588917
227														8.649971835636824	4.427645793498747	-0.65435132280735	-0.42364688579355625	0.1871234699537233	0.8862889614284386	0.8573582461167221	-0.23293358657682317	0.45899758393712353	0.29233568713566366	0.9543200465446257	-0.06175026145680451
228														8.683911525139012	4.385746365668466	-0.589430270531707	-0.4236257620489862	0.18725588248625646	0.8862710918238895	0.8573426470406671	-0.23295163309269615	0.4590175619785677	0.2924120368482085	0.954289668346954	-0.06185814087525393
229														8.749412814665485	4.418627341865038	-0.5670133048787092	-0.42367676830535506	0.18718850131119685	0.8862609440651205	0.8573780890333496	-0.23278458470799387	0.459036109220014	0.29223416713973094	0.9543436498972449	-0.06186589898282352
230														8.775665417977228	4.468617188131256	-0.5849932936004415	-0.4235847224493332	0.18712888531900357	0.886317529549534	0.8574174676403885	-0.23284252782339981	0.4589331579020554	0.2922520643086462	0.9543412060243845	-0.0618190374501128
231														8.773617990995914	4.439270911153814	-0.6371116858077096	-0.4235938518381373	0.18689641792844675	0.8863622158296498	0.8574298718867295	-0.23290694204409557	0.45887729421270806	0.2922024357893653	0.9543710417406769	-0.06159262298017654
232														8.669442335636113	4.474481648569569	-0.649659700053971	-0.4235875636811033	0.1866963556073642	0.8864073819061058	0.8574771406247368	-0.23286671591226946	0.4588093786380795	0.29207281489507625	0.9544200141568511	-0.061448412315563805
233														8.655925159507904	4.4700295831694286	-0.6800140258893783	-0.42352279881387395	0.1865936404565619	0.886459955229806	0.8575393561910983	-0.23282608315974213	0.4587137098276536	0.29198406029819296	0.9544500135374611	-0.061404235929787665
234														8.653486164228308	4.493761165817008	-0.6804240920425861	-0.42362972131780385	0.18642007182391812	0.8864453824333252	0.8575316105774442	-0.23276031219058552	0.45876156544483393	0.29185166793536305	0.9544999706077028	-0.06125691824798468
235														8.653539795279162	4.493806129462422	-0.6794443442355671	-0.4236325103488656	0.18668090334133292	0.8863891563546921	0.8573592464277021	-0.23318377381368416	0.4588686633394483	0.2923535851335529	0.9543456229048641	-0.06126837113785477
236														8.670737481159552	4.4725341523106374	-0.6457738930651636	-0.42350935348563734	0.18676968296947571	0.8864293051527906	0.8572442279218989	-0.2337208249054232	0.4588103199581675	0.292868846422362	0.9541968672810712	-0.061124277224560375
237														8.733881320485686	4.404042219627132	-0.6467906347880066	-0.4231728548992452	0.1869419011485866	0.8865536985831004	0.85717734344785	-0.23441591523223246	0.4585806151218361	0.29355022867664254	0.9539926122778872	-0.06104391012299282
238														8.735025547635244	4.349547434744062	-0.6981034864810208	-0.4228911810524839	0.18706682136854502	0.8866617468522616	0.8571656256589538	-0.23486234367594877	0.45837404999818065	0.29399003244451916	0.9538583143560208	-0.06102603507652432
239														8.741988045750976	4.423245029331335	-0.6720658094117264	-0.4226588191423908	0.18736259419165846	0.8867100884161251	0.8571940137571931	-0.23500689512906547	0.4582468570766528	0.29424130468034837	0.9537646552161435	-0.06127835735753728
240														8.75140355235826	4.473240662631681	-0.6455744008924856	-0.4225387972590438	0.18745378066878204	0.8867480165886259	0.8572765864560942	-0.23489314420496288	0.45815070131965785	0.29417311081244063	0.9537747590068043	-0.06144827057326274
241														8.752244013395199	4.596774209648497	-0.6223099943216479	-0.4225230030719048	0.18741738536735442	0.8867632353323883	0.8573117133935886	-0.23482450160956447	0.45812015838857156	0.2940934170518773	0.9537988137473673	-0.061456366154096664
242														8.618574547674624	4.534047659437696	-0.593125957535835	-0.4226143001413061	0.1873859515591016	0.8867263718162243	0.8572328121646569	-0.23494363000197	0.4582067180539501	0.2941922144862926	0.9537756528029996	-0.06134284844921828
243														8.65227250579119	4.440142117929928	-0.5791119541318842	-0.4225733856093175	0.1874845882361066	0.8867250210457673	0.8571913809991122	-0.23509545632168682	0.4582063539037108	0.29437165304341706	0.9537188556334802	-0.06136509018693548
244														8.635527990836055	4.460592491177135	-0.612756119564873	-0.4225565728192502	0.18758794309616822	0.8867111741554851	0.8572016535800429	-0.23503691388469214	0.4582171692671505	0.29436587415475046	0.9537129613864482	-0.06148430219658557
245														8.67245537916132	4.466612494066666	-0.5748846334884191	-0.4226018556026815	0.18781148656282348	0.8866422712437262	0.8571779935547612	-0.2349222078499974	0.45832024134257576	0.2943697657820935	0.9536972275171747	-0.0617093122587703
246														8.646924646025958	4.4876535600564695	-0.5870698138806419	-0.42263857620957646	0.18793997490791814	0.8865975410134819	0.8572206713007026	-0.23465595143014156	0.45837681568027366	0.2941927167594646	0.9537374640277196	-0.06193137424326428
247														8.689237021694767	4.5183912003576205	-0.5736666921897096	-0.42274935657763874	0.1882133374308108	0.8864867292443512	0.8571334996945645	-0.23461144055183603	0.45856257551564306	0.29428752133677016	0.9536945064198219	-0.06214212106222328
248														8.705778956104604	4.5505411882591895	-0.4908384183633555	-0.42284571902097723	0.188364108413345	0.8864087435079142	0.8570344811839854	-0.23469270829591815	0.4587060395661091	0.2944374228377409	0.9536447427288495	-0.062195728939347106
249														8.73324634366199	4.401623197731926	-0.5829796092724948	-0.4228970358167055	0.188496372291153	0.8863561444083966	0.8569286874845421	-0.23488077111727101	0.4588074192135252	0.2946715487851913	0.9535723050678593	-0.06219756702721946
250														8.741477505037874	4.38145798444672	-0.5270419771794989	-0.42296481459271695	0.18845718681805168	0.8863321354623075	0.8568594366168479	-0.23501159024955515	0.4588697618377493	0.2947756290760926	0.9535478179855486	-0.06207968522626911
251														8.773099802690353	4.456531606911416	-0.5671478614859111	-0.422994047554664	0.18826598344895257	0.8863588185432136	0.856809895845611	-0.23522185649382624	0.45885453098845097	0.2948776663539576	0.9535337422994515	-0.06181071251852266
252														8.753140624678876	4.377097273288758	-0.6237682479372106	-0.42305928372636914	0.18816229170785764	0.8863497021109549	0.8567046459192669	-0.23550657959276505	0.45890500174748594	0.2950898034722226	0.9534839290453528	-0.061566264617575694
253														8.778445294135995	4.304031257869237	-0.6639821154270423	-0.423190233771107	0.18816469370114552	0.8862866771452169	0.8565948284550587	-0.23564103155347688	0.4590409612577748	0.29522080872595086	0.9534502358764025	-0.06145992029305075
254														8.724165489277382	4.298884178345359	-0.6582070526515735	-0.4233464008680907	0.18818189065044932	0.8862084410020346	0.8566058148230902	-0.23533522404214255	0.45917731905692455	0.29496491805518815	0.953522369090656	-0.06156938167985093
255														8.712528454699765	4.396800913713875	-0.6653798773146254	-0.4236004567820367	0.18828040450712308	0.8860661049225866	0.8565698949877361	-0.23497444602186093	0.4594290203256848	0.29470437393216403	0.9535918933146159	-0.06174004364994856
256														8.695244285950853	4.470530984782523	-0.648096863073134	-0.4236807744521756	0.18830540621250358	0.8860223898698887	0.8565608464553531	-0.23485597470308292	0.45950646074451873	0.29461520272941405	0.9536161413993625	-0.06179107689057839
257														8.658279312469729	4.496087602957049	-0.5585669352231866	-0.42355212586353147	0.18848437314316818	0.886045844049455	0.8564783717551736	-0.23524568501153803	0.4594608431619167	0.29503965054224573	0.9534847186841957	-0.06179397902409561
258														8.632730215365857	4.392130381221225	-0.5929231874345582	-0.42335205980396295	0.18876325187787546	0.886082088860977	0.8563098904739557	-0.23597954918480274	0.4593985457563181	0.29581481527507114	0.9532481770803591	-0.0617374113220544
259														8.678320886056026	4.272494907876112	-0.6009239891820614	-0.423160359971509	0.18887271919121756	0.8861503290605373	0.8562245023419559	-0.23651761285393527	0.45928098196980205	0.29633580839657664	0.9530931301584287	-0.061632571800599
260														8.699366679457409	4.349955964103385	-0.5430119111440546	-0.42287496485242926	0.18908269530562077	0.8862417832832183	0.8561812679747023	-0.23702288107311587	0.4591010675407222	0.29686764806945193	0.9529259615435827	-0.06165801931582526
261														8.722935838366643	4.351196422649876	-0.5352563448201256	-0.4226498747098014	0.1891639937037981	0.8863318040631386	0.8562065403006951	-0.2372737189255659	0.45892433216549455	0.2971152028323404	0.9528473990063993	-0.06167974102277235
262														8.745710145832597	4.280983637696359	-0.5009684408959894	-0.4226832778037172	0.1891371729682585	0.8863215987815487	0.856279171109037	-0.23699907657519959	0.45893073423701236	0.2968582621217173	0.9529210709728679	-0.06177867517190738
263														8.760129246609518	4.3567387905898745	-0.49780051851387624	-0.4227934318276525	0.18892122215888008	0.8863151165479418	0.8564530738602234	-0.23636867116353127	0.4589313495151117	0.2961989977680063	0.9531204662110566	-0.061867039777631694
264														8.79711382622184	4.435896417061155	-0.48560244343706616	-0.4229867091282435	0.18866441437364673	0.886277599090662	0.8565483381047727	-0.23587240083726094	0.45900888337070234	0.29564706727923284	0.9532942616381973	-0.06182929998692638
265														8.73512977224404	4.5026100013830765	-0.4823728442900489	-0.42299568333600646	0.18827461895631603	0.8863562036427335	0.8566154797668717	-0.23584267587664376	0.45889884730637154	0.29543962446306543	0.9533786761262275	-0.06151851920295648
266														8.758492235830822	4.4522125096321545	-0.5224047771259509	-0.4229102832316235	0.18799520347269955	0.8864562571318488	0.8565733386016083	-0.23626582633663168	0.4587598226767066	0.29568396631174093	0.9533290422392087	-0.06111243154572049
267														8.734329990358807	4.439414265590569	-0.6586809913191362	-0.42273310818238874	0.18774734446352448	0.8865932854998122	0.8565346666552842	-0.23681400230516464	0.4585493355462755	0.2960491244104228	0.9532418701248411	-0.06070298984990613
268														8.667556912115145	4.428034122225904	-0.6817053320307803	-0.422521882657095	0.18771736614842577	0.8867003152825661	0.8565006296460564	-0.23729042917682863	0.4583665821555775	0.2964488658973303	0.953129289586347	-0.060519643429322256
269														8.725122687098368	4.407815884783316	-0.686038243279955	-0.422368153800906	0.1877980868271769	0.8867564610640655	0.8565054969607653	-0.23748843030392605	0.45825492812163926	0.2966537987803389	0.953064071327751	-0.060542543829647744
270														8.716923571301324	4.407270582755183	-0.664408773136192	-0.4223330198188105	0.18792250813619382	0.8867468360848696	0.856523950497594	-0.237423177702355	0.4582542492042071	0.296650539515302	0.9530558040458693	-0.06068848144221528
271														8.730985858260286	4.389950196911479	-0.55651568892282	-0.4222341566195152	0.18823071762866683	0.886728545793358	0.8565157290830954	-0.23745439439648044	0.458253441247367	0.29681496393723167	0.9529872021820637	-0.060961214391956176
272														8.737242121991736	4.465483413403586	-0.5298817739166803	-0.42222148096396234	0.1881434517151236	0.8867531012572316	0.856529948263043	-0.23747486655158756	0.4582162540600401	0.2967919620560973	0.9529993333329385	-0.060883511116454514
273														8.721165937598325	4.484951775280523	-0.5613092861035829	-0.42205965806074547	0.1880822100273969	0.8868431244074997	0.8564983915199857	-0.23787606241647719	0.4580671176289658	0.29711302623971764	0.9529113606209351	-0.06069422079765474
274														8.656888192611694	4.449799531379443	-0.5826641883955189	-0.4219472485248858	0.18787976622527186	0.8869395204327155	0.8564350373831826	-0.2383697341367411	0.45792892089280196	0.29745511628604565	0.9528279295291027	-0.06032736116007781
275														8.65218530633231	4.444768075007888	-0.6339363924338054	-0.42185261080402914	0.18769014919879856	0.8870246798435524	0.8563739455649937	-0.23881960127601626	0.45780876291723516	0.2977650753786765	0.9527526467767469	-0.05998628130359279
276														8.672355890438556	4.3985608784273476	-0.598777099553426	-0.42176242334510217	0.18778078141628418	0.8870483844665725	0.8563187854855805	-0.23909807801472663	0.45776658540588555	0.29805133094580716	0.9526649396405608	-0.05995762587927833
277														8.726543037729899	4.382864863248008	-0.5276017586706077	-0.4216231317026538	0.18803393800851786	0.8870609747758357	0.8563068454797231	-0.23923523538410893	0.4577172582886468	0.2982826196710303	0.9525805689324756	-0.060147639142934195
278														8.724323985629379	4.405915349715158	-0.5310286480741716	-0.42144741256640067	0.18825568450433106	0.887097444305242	0.8563145838999486	-0.23938552839130084	0.45762419319467296	0.2985086461751883	0.9524990110486327	-0.06031767659677195
279														8.730388768540447	4.3557992115618465	-0.53051848828915	-0.4211889543294045	0.18838713950649066	0.887192284918814	0.8563936571085968	-0.2394906978547351	0.4574211513531224	0.2986465616997239	0.9524465818667287	-0.06046271475313569
280														8.77988221484916	4.407980941027106	-0.5404115591289442	-0.42101805271951703	0.1884149044751443	0.8872675036627277	0.8564291012256285	-0.23964426070282946	0.4572743409443139	0.29878586622885683	0.9524024632915524	-0.06046944731064691
281														8.781050368071014	4.479083502130529	-0.5670225821729584	-0.42105749964452976	0.18834260093022237	0.8872641357949371	0.8563640245827578	-0.23982412319673935	0.4573019214188122	0.2989167767013406	0.9523714898125389	-0.060310082065328785
282														8.72756326506211	4.45200046304454	-0.48113841155944825	-0.4209942883941485	0.18820920600644558	0.8873224351462822	0.8562997932648289	-0.24020115030132533	0.45722431196135227	0.2991896943313995	0.9523028416256795	-0.060040191851294555
283														8.708296721294605	4.4443040476779485	-0.5640921666571498	-0.42087328466283075	0.18828912763230826	0.8873628810540728	0.8561321219114459	-0.24089123797365364	0.45717524134507337	0.29983907031693735	0.9521127117537005	-0.05981568380023594
284														8.747721891757994	4.300724080541453	-0.5452583401432163	-0.4207756792871871	0.18816529271309274	0.8874354344619118	0.856021773412579	-0.24146467351419754	0.45707935294461155	0.30029077768720946	0.9519919296206654	-0.059471125541163294
285														8.726008595961545	4.295991435601512	-0.5516735025423313	-0.4205455913105035	0.18815194885130138	0.88754732255399	0.8560179521107208	-0.24185901669227228	0.456877972448678	0.300623803604217	0.9518944585341931	-0.05934870275270354
286														8.76154376026869	4.34479621226866	-0.5907566853876838	-0.42039126682741784	0.18808833454311719	0.8876339116910954	0.8560561972220413	-0.24202211677143926	0.4567199165694545	0.30073072668581174	0.95186557527955	-0.059270200141009366
287														8.751248825911349	4.367608177416982	-0.5686709762136667	-0.4203173408917149	0.18806842562812576	0.8876731381693801	0.8560431046906538	-0.24219414280631846	0.4566532602554133	0.3008712945053141	0.9518257532090998	-0.05919628088508411
288														8.757707603134103	4.390513333935943	-0.5921423521018039	-0.4202946554143979	0.1879816513500437	0.8877022594236215	0.8560323790578876	-0.2423096209729072	0.4566121040757223	0.30093349536830344	0.951813503970014	-0.05907694157400689
289														8.713283392897727	4.435526745516214	-0.5561158798511298	-0.4201466956872959	0.18801836542285544	0.8877645230390567	0.8559723373017519	-0.24272102791704925	0.4565061449543325	0.30131065676013163	0.9517014221228252	-0.05896008185348439
290														8.778649750980454	4.342589291259204	-0.5558113662590365	-0.419972055134277	0.1880165731349111	0.8878475325937982	0.8559083553598923	-0.24320725693589804	0.4563673053570333	0.30173557982348603	0.9515776365595819	-0.058784704373365415
291														8.825937236902666	4.397659111446836	-0.4852829918564186	-0.4195968390311419	0.18793429955126617	0.8880423366750312	0.8558986907783145	-0.24388731609076436	0.4560223768347461	0.3022845080367858	0.9514198211632018	-0.05851837402679455
292														8.694062379370695	4.373903523804887	-0.6093667160784061	-0.4193811690278872	0.18769202106671817	0.8881954403692315	0.8557953318342646	-0.2446847460503829	0.45578912345616623	0.3028758575315692	0.9512628870497104	-0.058009780609534656
293														8.715559645219678	4.377536310669854	-0.5206215717359876	-0.4189719552075435	0.18762295057250505	0.8884031343754007	0.8558186632193794	-0.24530555537945167	0.455411462509865	0.3033758665994438	0.9511166137327468	-0.057795074587635664
294														8.730678755438877	4.347391620042745	-0.6183376255771854	-0.4188081086219834	0.18762984938310834	0.8884789292791075	0.8558201134136192	-0.24556063764736802	0.4552712452098403	0.3035979275772109	0.951049427137565	-0.0577346127737296
295														8.714356306137486	4.346268549392235	-0.5733756731384019	-0.41872040764513996	0.18766799122834626	0.8885122088580468	0.855913820672906	-0.24538827088412168	0.45518801400477343	0.3034546948106038	0.9510863901774742	-0.057878550574327836
296														8.687922146751106	4.515462022358943	-0.56091650716991	-0.41874703746294273	0.1877193236543087	0.8884888148664439	0.8560168006770132	-0.24499623817399663	0.4552055362572839	0.30312729269186545	0.951177322483752	-0.05809944593488747
297														8.688356705289252	4.567094073933769	-0.5117757558983841	-0.41876683060086994	0.18789295665818329	0.8884427828660374	0.8560444062725099	-0.24478880322823118	0.4552652153455577	0.3030219729294378	0.951196445878735	-0.058335283230774526
298														8.709760565341362	4.4455446406623365	-0.5307290988940032	-0.4187393798532712	0.18804145970175834	0.8884243024553806	0.8560084749560111	-0.2448696095181151	0.45528932025463725	0.30316138039595614	0.9511462998759326	-0.05842853471327625
299														8.737950085047006	4.399229050146164	-0.521155859241475	-0.4184663879370044	0.18817699629539952	0.8885242260243658	0.8560608478063952	-0.24507453974000365	0.4550805366352441	0.30339035419728305	0.9510667106131236	-0.058535501565977366
300														8.735910348056454	4.422305237285279	-0.5230212975545787	-0.41835541949000965	0.18822991627264724	0.8885652714366741	0.8560409134335198	-0.24528798519784495	0.4550030316882371	0.3035995677059555	0.9510012107971125	-0.058514951518248204
301														8.685959922631678	4.463728222754961	-0.5423003452106884	-0.41826556039032403	0.18823935612522302	0.888605573804784	0.8560050820441653	-0.24553940704208993	0.45493482951295416	0.3038243250727794	0.9509344585169791	-0.058433167799544716
302														8.72375896213846	4.468062588810483	-0.5023548398455795	-0.4181248072221132	0.18827195518603523	0.8886649067426367	0.85596531456492	-0.24587250241953695	0.45482974046969826	0.3041299489482235	0.9508419339955422	-0.05834887066917971
303														8.752386232808725	4.442166489226554	-0.5689856995268899	-0.41809758319472623	0.18838183758205662	0.8886544290082267	0.8558096026316536	-0.24634619371999678	0.4548664385103849	0.30460521165958554	0.9506975523839736	-0.05822223734057008
304														8.720879722693226	4.387309993692307	-0.6051471831926739	-0.4180927684297283	0.1883358761783484	0.8886664361451373	0.8557377733696974	-0.24660150976638107	0.4548632306630353	0.3048135499203371	0.9506404647000226	-0.058063815409313935
305														8.67240625517981	4.353872906194702	-0.6744909223619971	-0.418211573303067	0.18832679493057342	0.8886124567360906	0.8556744854039644	-0.24661385694841065	0.45497558241040686	0.304828238495113	0.9506390607755426	-0.05800966422726406
306														8.62729639287735	4.400249884431383	-0.6405585445055224	-0.4183233516022067	0.18845883462408952	0.8885318458876005	0.8556677014715804	-0.2463888415267751	0.4551102321739604	0.3046938761488963	0.9506712399264132	-0.058187931859941866
307														8.579212557836414	4.471447129102672	-0.6092519278745464	-0.41840911564708805	0.18874571882324337	0.8884305631670488	0.8556356896113324	-0.24620464876049497	0.455270071048012	0.30466601157129797	0.9506620453950074	-0.058483303930431774
308														8.633122202367733	4.529581767113642	-0.5663165953004506	-0.4184557607969293	0.18907516290596277	0.8883385385245581	0.8555400961097299	-0.24625938928765156	0.4554200886393003	0.3048703334278661	0.9505823983010404	-0.05871272294677887
309														8.660599948318199	4.484500037962497	-0.5575844705530436	-0.41848281879458116	0.18945967812921843	0.888243863326347	0.8553208057745729	-0.24670202605666125	0.4555923940856269	0.3054479490565889	0.9503910462029358	-0.05880824529274853
310														8.70825877463631	4.413636127362513	-0.5923717055761334	-0.4182723889006352	0.1897162154129866	0.8882882225340651	0.8551889040921199	-0.24731577189000803	0.4555072417560101	0.30610479741597413	0.9501803337176699	-0.05879784362629831
311														8.753749256699008	4.366324380245869	-0.6271756299515836	-0.4181137007098143	0.18983091693598214	0.8883384243935353	0.8550503991751388	-0.24793872012247176	0.4554285958681854	0.30670791993227065	0.9499950600078273	-0.05864842548223248
312														8.759495976201782	4.337714364751628	-0.7024587602879817	-0.41802502526056035	0.18989789133887808	0.8883658419372932	0.8549712241145055	-0.24829019023298204	0.45538575666155157	0.3070493188268818	0.9498898737743853	-0.05856571957067236
313														8.70383923348306	4.428893498353276	-0.7231996742296961	-0.4181099254041488	0.18985837967394714	0.88833433230182	0.8548638986232296	-0.2485077548516983	0.45546856160360893	0.30723249357649235	0.9498408769084175	-0.05839951579096381
314														8.706731483998972	4.456993713663991	-0.6704211803111394	-0.418190944449416	0.19007852658219548	0.8882491135446449	0.8547386464146326	-0.24865352063557583	0.4556240478736995	0.3074706169795538	0.9497586958843152	-0.058482811888089736
315														8.679132317267065	4.355586489129898	-0.7073419201737833	-0.41823877438232865	0.19065122243841542	0.888103844708436	0.8545186847170685	-0.2489626960415473	0.455867736793399	0.30801646883337114	0.9495628927893414	-0.05878917897843894
316														8.695040762666958	4.335809476109622	-0.6779410339853458	-0.418286539811205	0.19110733262346102	0.8879833095449008	0.8544070946804775	-0.24899679391802101	0.45605823441553184	0.30826106982951135	0.949462260459094	-0.05913145348689419
317														8.685723957734046	4.337105311699474	-0.6591397636891891	-0.4183124735845405	0.19154250939896478	0.8878773234725226	0.8543469019098914	-0.24891756817588273	0.4562142210084809	0.30839268091275024	0.949395339859298	-0.05951842582674982
318														8.664141717597253	4.238233445614438	-0.6448298484513881	-0.41829643736610467	0.1920087589090635	0.8877841668947613	0.8543293421737743	-0.24875737111420537	0.45633446661114146	0.30846307005499046	0.9493431449262959	-0.05998439458475302
319														8.709595706530205	4.317109785371	-0.6598805904654809	-0.4181893479452737	0.19258527648855023	0.8877097389039597	0.8543689344483678	-0.24850857442948115	0.45639589424598037	0.30849861120379113	0.9492915251464412	-0.06061523876449271
320														8.711928625924623	4.366305212058031	-0.6908215452021168	-0.418236367039234	0.19303922112421962	0.887588981676529	0.8543841751870165	-0.24815380795049835	0.45656036708158193	0.30839264335555217	0.9492921292770851	-0.06114270861479232
321														8.666200203250519	4.413412481403241	-0.6609957268685481	-0.4182791424024356	0.1935324196151192	0.8874614141409198	0.854360910840825	-0.2479039118533477	0.4567396244196955	0.3083990808324823	0.9492570005250032	-0.061653498651374705
322														8.665098597621581	4.414772791289899	-0.6663321781852012	-0.4183143510898926	0.19412099715109155	0.8873162582401543	0.8542623731036736	-0.24784830339022174	0.4569540637808888	0.30862420768877163	0.9491513351260981	-0.06215176149413154
323														8.677871960889311	4.346665353910706	-0.6139404242073051	-0.4182785769417435	0.19466908035990999	0.8872130416215813	0.8541732727357005	-0.2478965023245089	0.45709445881486943	0.3089191677697802	0.949026487136741	-0.06259132925034216
324														8.721992357690178	4.280909054190662	-0.5768159870391943	-0.4181564674911234	0.19547688738428204	0.88709298001613	0.8540337128546416	-0.24810164913715455	0.4572439053756103	0.30946984667825217	0.9488068076241745	-0.06319854272815234
325														8.805754692227056	4.217267595497607	-0.5784680402065826	-0.41790122064022284	0.19636540630451976	0.8870170218176611	0.8539528924754378	-0.24829414208777947	0.4572903633772828	0.3100371384531949	0.9485729524985175	-0.06392438163955927
326														8.819193049357766	4.147950824716345	-0.5286463182556582	-0.41769692035147693	0.19717225871671124	0.8869342608792619	0.8539548374104045	-0.2481943032048065	0.4573409270118416	0.3103069744499178	0.948431699306403	-0.0647062080368429
327														8.799852289672648	4.2453419967946076	-0.5179880672164584	-0.41754831239433615	0.19795572140528223	0.8868297126165527	0.8539589183364444	-0.24801194557686934	0.4574322251927897	0.31049568855346915	0.948316195798686	-0.0654890844005076
328														8.837459034247901	4.396689608747792	-0.5382012928536513	-0.4174806512485431	0.19845276825805896	0.8867504748258136	0.8540189567488403	-0.2476787617097235	0.4575006584821062	0.3104215317060256	0.948299388257027	-0.06608133537265887
329														8.769698241437379	4.439960565871491	-0.5156528745936034	-0.4174336788142473	0.19873527437856725	0.8867093179330414	0.8540171887835613	-0.24761242749454707	0.45753986385066014	0.31048955707692777	0.9482575475407159	-0.06636157380773883
330														8.755010921874366	4.436835950088897	-0.549433749023052	-0.4173710554637514	0.19898732213637788	0.8866822698633752	0.8539573110868868	-0.24776380206304732	0.45756967691108763	0.3107383351025877	0.9481651459615336	-0.06651723897919531
331														8.748679758786189	4.433341371256707	-0.6056433139023957	-0.4173796236329686	0.19927929785287107	0.886612661325828	0.8538360607042121	-0.24796937910376948	0.45768457311559374	0.3110598515030729	0.9480500769865255	-0.06665448453576461
332														8.708309465264248	4.37865761802814	-0.622538745235841	-0.4172234699509344	0.1996795693010885	0.8865961006714578	0.8537961941308254	-0.24812972628719554	0.4576720417726644	0.31137860396921907	0.9479238938524407	-0.06696011091543241
333														8.698198200778316	4.381726798610916	-0.5266783138400775	-0.41707461823767406	0.20026556170506465	0.8865339630363038	0.8537479037220064	-0.24820792140469464	0.45771972280233003	0.3117102496104023	0.9477797911682424	-0.06745507942997947
334														8.718304655226271	4.408342980479848	-0.5255310204434993	-0.41687740974889487	0.20084662684999444	0.8864952666111829	0.8538169697987787	-0.24800748897671138	0.45769953844754846	0.3117848734699691	0.9477093003101988	-0.06809753872842922
335														8.707337777159525	4.432318385917714	-0.5099970008807769	-0.41687796994574516	0.20113947391696135	0.8864286041223637	0.8539146446261836	-0.2475583645490404	0.4577604568273046	0.3115165129922531	0.9477646164392359	-0.0685543139338069
336														8.778249056152125	4.41653159747105	-0.4897973116491667	-0.4168861023538294	0.20137748330004168	0.8863707389597056	0.854027468026151	-0.2470792119076508	0.45780885410828	0.31119617851296744	0.9478391067384994	-0.06897801255537672
337														8.770061293658996	4.489508849449675	-0.49682928733648135	-0.4169442808029262	0.20148505441837028	0.88631892654493	0.8541085902608635	-0.24668485476178265	0.4578701764406136	0.31089545308404104	0.9479189602899525	-0.06923627643428193
338														8.791712198246382	4.513453708636553	-0.5686617706699177	-0.4170603961107636	0.20142116083227574	0.8862788172832028	0.8541414547412551	-0.24643462542803335	0.4579436108110237	0.31064932204726664	0.9479976220218722	-0.06926404083252907
339														8.781943058062678	4.462573469790479	-0.5974143194958668	-0.4173137737014959	0.20145076695248543	0.8861528100577647	0.8540025757876892	-0.24644346601139874	0.4581977941984021	0.31069086698358134	0.9479890329294662	-0.06919522106653492
340														8.715678468169116	4.430473688752529	-0.6200345725452013	-0.41740667622624067	0.20143334058908413	0.8861130153320647	0.8539386526719505	-0.2465009294949725	0.4582860124757552	0.31074176435518885	0.9479777956562253	-0.0691205817986772
341														8.684804040576013	4.500605701854489	-0.631688455478249	-0.4174631153505473	0.20150866336033602	0.8860693008521092	0.8538450664466619	-0.24665834910657253	0.4583756770605471	0.3109230609435562	0.9479208392090293	-0.06908641521123154
342														8.752238569595093	4.457083582614096	-0.6599798618628343	-0.4173267104374891	0.2017406890650834	0.8860807588086821	0.8537657515488375	-0.2469949285730086	0.45834217211758216	0.3113237193624557	0.9477838359218624	-0.069161709981515
343														8.778145495441057	4.434687896551259	-0.6518677098873513	-0.4172085095382526	0.20188013662152005	0.8861046608649266	0.8537079151786341	-0.24728479763400352	0.4582936006758773	0.31164058646174503	0.9476785527259688	-0.06917734869878461
344														8.760978296877932	4.3822449472449545	-0.6591027390049617	-0.41708450308564826	0.20206559215755937	0.886120767024345	0.8536998330286392	-0.2474084101098734	0.4582419379473891	0.3118286586776014	0.947606761833684	-0.06931314849585474
345														8.76923173147522	4.381573204485276	-0.6840149498670386	-0.41704761122096196	0.2023264371171588	0.8860786098413425	0.8536765075357801	-0.24740234453008492	0.45828866492913695	0.3119418382589982	0.9475526860098566	-0.06954276942359638
346														8.767389757594907	4.38516395899231	-0.6090547602785856	-0.4171238695919895	0.2023841794151034	0.8860295262230713	0.8537441272262802	-0.2470470925049213	0.45835433816153853	0.31165468493709847	0.9476330397402468	-0.06973506542205132
347														8.756394570972681	4.409758953562146	-0.589333368225614	-0.4172036947438092	0.20241413455677332	0.8859850987594242	0.8538190020065379	-0.2466781595641544	0.4584135659059415	0.3113425587751759	0.9477227462320791	-0.06990999477651316
348														8.77255181841078	4.409406522289154	-0.6369902771485227	-0.41729259351421955	0.20239512050580133	0.8859475755334618	0.853869367278092	-0.24639452845587162	0.45847228920745053	0.31108518933290247	0.9478005863800948	-0.07000038167939793
349														8.71727295043598	4.47999699413203	-0.5803233549264761	-0.4173525894669846	0.20230785935231466	0.8859392451570749	0.8538811560740127	-0.2463091457252695	0.4584962115806373	0.31097232572515376	0.9478414080300424	-0.06994910904877111
350														8.698766396656193	4.449064906722702	-0.6646458832968675	-0.41732216167410396	0.20237434403572052	0.8859383941628028	0.8538385605680271	-0.24645251635006415	0.4584984947323622	0.31113007868538467	0.9477899461699486	-0.06994492173412703
351														8.68531906461188	4.424726412014756	-0.6179634186843721	-0.4172543661091142	0.20268922486522734	0.8858983418465207	0.8536849327463018	-0.24686390169978834	0.45856324497227197	0.311642149852718	0.9476155824811509	-0.07002769647850371
352														8.721796886833095	4.37831704903257	-0.631376038433085	-0.4171802034351651	0.2028706531140173	0.8858917405455853	0.8536105006165707	-0.2471128601028235	0.45856771322121015	0.3119451732258762	0.9475118640296251	-0.0700819265159256
353														8.714907761760136	4.302295332550966	-0.6607549081397566	-0.4170862280818782	0.20315505464840172	0.8858708157035294	0.8535991234829403	-0.24714790425290037	0.45857000535638526	0.31210193003822895	0.9474417856492314	-0.07033098941582122
354														8.791074397921035	4.238287681868535	-0.6359898066737548	-0.41713952866715465	0.20331626331664432	0.8858087325683244	0.8536687027699676	-0.2467693237445171	0.4586443576124256	0.31184027888389426	0.9475058827942077	-0.07062749136125657
355														8.778303379078487	4.33997734785235	-0.5660395092806919	-0.41732228890842554	0.20336036902124227	0.8857125196652564	0.8537118671975972	-0.2463274781332782	0.45880150536205966	0.3114773747581441	0.9476113833360403	-0.07081321335549734
356														8.732861653435148	4.388077883982232	-0.531094739540922	-0.4176468888972019	0.2032174682304344	0.8855923084583	0.8536723526824459	-0.24600979610403892	0.4590454165836614	0.31115043059604813	0.9477245595777614	-0.07073590822935827
357														8.725541651153485	4.386288024089018	-0.5843965441168452	-0.4179620691222415	0.20313218644774167	0.8854631689709156	0.8535092578170768	-0.24605298271771547	0.45932545816257564	0.3111746384196487	0.947731631066874	-0.07053438792337652
358														8.69586010442232	4.3807262539363085	-0.6451598999924049	-0.4180329455828917	0.2030734743750255	0.8854431774047093	0.8533908277804287	-0.24633205160881738	0.45939592445996524	0.31140416096694384	0.9476717176087126	-0.07032612727163984
359														8.679795867200202	4.253028771361945	-0.7005260225728732	-0.4180711416603099	0.2031816027581098	0.8854003370292391	0.8532504232336197	-0.24664269360437063	0.4594900400914353	0.3117374468402752	0.947567737943956	-0.07025059604928918
360														8.767328763856119	4.16370270236005	-0.6958975364475657	-0.4179686461375917	0.20339692530622167	0.8853992893728144	0.8532790469722288	-0.24660561552752452	0.45945678620350866	0.3117965343682873	0.9475311927141328	-0.07048091933040751
361														8.776770867732019	4.214876210691979	-0.6700377704742478	-0.4179177641144474	0.20364265739319665	0.8853668225811371	0.8533202149143426	-0.24643322731635836	0.45947282323657035	0.3117520701713489	0.9475232622813445	-0.0707835728089305
362														8.800839672894123	4.269369214799187	-0.6136401335094701	-0.4178861213216351	0.2038287994699976	0.8853389238666617	0.8534260884822906	-0.2460646334797021	0.45947372900778183	0.31150457637822326	0.947579029240896	-0.0711258197724588
363														8.753311694587836	4.267409893306657	-0.5554182589859045	-0.41801349926571424	0.2040176077620755	0.8852352964916572	0.8533781436197272	-0.2459113217444548	0.45964482574053106	0.3114650195829071	0.9475781960138883	-0.07130991526628122
364														8.808455443880863	4.2695641790432415	-0.6408223075360684	-0.41804784015160734	0.2040431739766379	0.885213187033562	0.8533822401675419	-0.24583132609173688	0.4596800096573768	0.31140769982645594	0.9475934477746868	-0.07135756598482268
365														8.78689445167295	4.245671678400134	-0.5708806338689139	-0.4181109161595888	0.20386668885132408	0.8852240591878346	0.8533965562456827	-0.2457797072922197	0.45968103427415874	0.3112837605404413	0.9476448219982782	-0.07121595160954458
366														8.806280331722435	4.219814857412405	-0.6160925169888278	-0.41800771635169937	0.20388536422418896	0.8852684944837961	0.8534512309424829	-0.24576668709768723	0.4595864792569384	0.3112724617970534	0.9476441809921048	-0.07127384343926357
367														8.798609541513526	4.218952426371078	-0.5943148362559212	-0.41807173797820063	0.20389420748305787	0.8852362250036665	0.8534908355162298	-0.24554025304029048	0.4596339606977686	0.31107782883660223	0.9477009740903328	-0.07136839716947319
368														8.765628783804878	4.312026928529852	-0.6085535218875547	-0.418018017960064	0.20386871773303022	0.8852674638721509	0.853578663496938	-0.24537083048312425	0.4595613351564767	0.31090899292802904	0.9477503371025053	-0.07144855938762407
369														8.75638554917071	4.259670447160155	-0.6385019015446312	-0.41813292742531155	0.20380058436435788	0.8852288838574374	0.853643733817265	-0.24502576837026013	0.4596245734826209	0.31057564411469335	0.9478542581258518	-0.07151974996763777
370														8.70122170943879	4.33020083592585	-0.5829969303204156	-0.41816583331898644	0.20387381989813602	0.8851964761592643	0.8537044758242471	-0.24475012743432364	0.45965861579930045	0.31036430819648747	0.9479097217989821	-0.07170185155692321
371														8.676718149859171	4.331076164567992	-0.5161269976036654	-0.41820971552871194	0.20405463540288826	0.8851340800172528	0.8536716673776152	-0.24468681815201992	0.45975324396828665	0.3103954222505808	0.9478871593144592	-0.07186525622753298
372														8.773785999423472	4.366161141319084	-0.5104322778589309	-0.4180713332400666	0.20430779864418752	0.8851410530169974	0.8536389205818362	-0.24487466124296983	0.45971403453562104	0.31067177791159356	0.9477841123875768	-0.07203001259851721
373														8.810091323461156	4.174084796804589	-0.4709934591155599	-0.4178755475485575	0.20452956194863303	0.8851822891642678	0.8535698248613278	-0.24528004987605184	0.4596262081507142	0.3111247030487862	0.9476314449309403	-0.07208372722676609
374														8.805711066310723	4.220729652992937	-0.4738336847527001	-0.41770211221332043	0.20454809031067772	0.8852598625278261	0.8535614867788539	-0.24556993113345776	0.4594868846996407	0.31138036826428667	0.9475523667182535	-0.07201929315283245
375														8.79102483591551	4.364274422860231	-0.480121178626634	-0.41753155911093676	0.2044302551783551	0.885367532674484	0.8535315902421173	-0.24599117843500265	0.45931706324816796	0.3116909071582826	0.9474685276566561	-0.07177860053648
376														8.85334188952218	4.222865606566964	-0.4549567931593282	-0.41744643901173856	0.2043295562683598	0.8854309137316105	0.853475497376321	-0.2463479964145418	0.4592300513258937	0.3119584041737951	0.9473975391026285	-0.07155317580389436
377														8.895541846548475	4.19997574545241	-0.4907817921570598	-0.4174907123957875	0.2042409599737121	0.8854304802367464	0.8534561147947672	-0.246383074548895	0.45924725442320924	0.31195218412872194	0.9474075209986731	-0.07144805086543526
378														8.918725548971626	4.202216182244492	-0.48252519961025087	-0.4175070177638803	0.20411729019370828	0.8854513097634953	0.853504710275409	-0.24627389831668184	0.4592155012035153	0.3117973695456748	0.9474625580210982	-0.07139398778969969
379														8.916131743504701	4.153352356006192	-0.45689215874119565	-0.41760038217061746	0.20389251839932404	0.8854590683660856	0.8535878216728063	-0.24599052946552813	0.45921290280777516	0.31144462028236786	0.9475845610572446	-0.07131443152070449
380														8.84681492625792	4.22004215765871	-0.4299107989364273	-0.4176175603953765	0.20361073188698325	0.8855158062450725	0.8536901017253302	-0.24579817110220897	0.45912576632008395	0.3111410989657412	0.9476950611579952	-0.07117083385161788
381														8.81186958429092	4.336710890335796	-0.44249932646515727	-0.4174745572652148	0.20346861016920725	0.8856158979557809	0.8536964941185187	-0.2460780919262513	0.45896390773533113	0.3113154187732483	0.9476529414029942	-0.07096909668503915
382														8.795544051789834	4.2827700971647715	-0.446058079995042	-0.41725306549901625	0.20325871932734363	0.8857684643003957	0.8537408179764359	-0.2464011246195893	0.45870807874630604	0.3114907623872646	0.9476140452756119	-0.07071864070944045
383														8.774357946164585	4.2766464119690655	-0.45232762934025095	-0.4170314073806632	0.20321099844865814	0.8858837933767624	0.8537007988502514	-0.2468963540898922	0.4585162334962206	0.3118970203457311	0.947495372256043	-0.0705178576875144
384														8.799433635325324	4.348468964633588	-0.4693733541209559	-0.416782898944126	0.20298728178513392	0.8860520179883422	0.8537911148347057	-0.24712829013547474	0.45822302478599586	0.3119819664292172	0.9474828608730607	-0.07030989243882785
385														8.809177076360383	4.345130619070223	-0.49039331102351735	-0.41668077203756243	0.2026247681236294	0.886183015836473	0.8538725747668966	-0.2472286523837038	0.4580170515401022	0.3118954316355593	0.9475342720890804	-0.07000030672422097
386														8.813538795947485	4.390946949995198	-0.5132719409296957	-0.41667297186076685	0.2021527172090375	0.8862944846075258	0.8540037996653626	-0.24708590881796288	0.457849389887903	0.31154637644793803	0.9476723234265125	-0.0696851686770964
387														8.77479406468562	4.480336389667366	-0.5771502101024953	-0.4169409727587056	0.20155113785233086	0.8863054575401504	0.8540691112670769	-0.24677627173658262	0.45789455651629885	0.31100832531379285	0.9478811162472978	-0.06924746238879093
388														8.676146274841946	4.541449866240549	-0.6093885110357136	-0.41721342104033143	0.20090844597343083	0.886323167721777	0.8541555566385745	-0.2464150921790539	0.4579278189953483	0.31040497155695046	0.9481114906396454	-0.06879938189983509
389														8.62302169379425	4.608606258084869	-0.625752330467981	-0.41749527441217993	0.20044668370084795	0.8862949976372606	0.854161787581725	-0.24618947774169692	0.4580375330521109	0.31000860710420863	0.9482678250592518	-0.06843095409758387
390														8.574670145664443	4.627741343397339	-0.6406096870298967	-0.4177420977531856	0.2001553188481479	0.8862445419304787	0.8541288907466167	-0.2460503299399956	0.45817362770937964	0.30976665049149815	0.9483654799038267	-0.06817285948280677
391														8.650390225836007	4.6570442224683255	-0.7154702241957127	-0.417910157524793	0.20005995279070482	0.8861868400777477	0.8539796742702881	-0.24629036275335717	0.45832278270672144	0.30995131258121095	0.9483232953503783	-0.06791988902364132
392														8.723154569848703	4.638082650298067	-0.7641205631562217	-0.418041935678535	0.19990249024076934	0.8861602193789129	0.8537960321519098	-0.2467249283072178	0.458431178295558	0.31027935074026275	0.9482435363066483	-0.06753458637515763
393														8.721693055736887	4.587061910919485	-0.811570112391515	-0.41827272358473727	0.19966967026832733	0.8861038040094081	0.853512983559064	-0.247345056783714	0.4586240396891186	0.3107467065008266	0.9481310276853083	-0.06696296543082902
394														8.725059277285627	4.488227216604281	-0.8563491644636044	-0.41849193771449755	0.19959524512591503	0.8860170631489499	0.8532061046571591	-0.24797306865282048	0.45885585993714817	0.3112938178694227	0.9479826450658413	-0.06652115160044386
395														8.698225108068147	4.439419848646594	-0.8364342826759951	-0.41874147477280205	0.19994797250111762	0.8858196123352606	0.8527959310283183	-0.24864444004639644	0.459254877443406	0.3120812030972751	0.9477324257018467	-0.06639707784722965
396														8.783871793119637	4.353274808431885	-0.830269138566698	-0.41896266175435054	0.20028122692209582	0.8856397225724972	0.8525561723155352	-0.24885103563751398	0.4595880058365539	0.3124392118515109	0.9476078261626572	-0.06649170394034154
397														8.811614268493125	4.362239485585829	-0.769907488115754	-0.4192233190845282	0.20065615239425033	0.8854314864754287	0.8523209263282772	-0.24895923547016482	0.459965583078798	0.3127312700685038	0.9475000831559047	-0.06665392067158621
398														8.78294844070959	4.389902980633031	-0.7044042221983614	-0.4194076747578519	0.2010286066620366	0.885259680352456	0.8521223522436094	-0.2490768544311091	0.4602697224384008	0.31302507752739284	0.947390215217692	-0.06683622482415857
399														8.83461654942153	4.252714655788325	-0.6603112573294767	-0.41962692751491776	0.20146705608780574	0.8850560812828205	0.8518715434302357	-0.2492623879753154	0.4606334067722736	0.3134136487107375	0.9472482711792912	-0.06702684200875197
400														8.833754636516801	4.327575051101751	-0.6885516161384553	-0.41986837423208073	0.20167485782445316	0.8848942309910246	0.8516977833079757	-0.24929936140844178	0.4609346095810385	0.3135624885537023	0.9471943201491606	-0.06709311178637944
401														8.786458265928053	4.251695850497539	-0.6791131715502966	-0.42016626027580134	0.201913569629887	0.8846983803111454	0.8514885007287305	-0.24933813918468198	0.46130014684005743	0.31373180720575017	0.9471332550107385	-0.06716360919558362
402														8.720787554305547	4.345832918418847	-0.6782536557413805	-0.42053545524306163	0.20202742730480894	0.8844969471400743	0.851391827759805	-0.2489890134304314	0.4616670085838485	0.3134994202663375	0.9472008180990665	-0.06729579247716516
403														8.682640310808551	4.395145172245107	-0.6679229838266391	-0.42108732663079224	0.202278500578556	0.8841769458398152	0.8511892321837372	-0.24859886983328383	0.4622504655834041	0.3133087205383731	0.9472497084303089	-0.06749544809320496
404														8.68839129826299	4.326150613629249	-0.6674397165410663	-0.4214621657121255	0.2025890099348132	0.8839272232072487	0.851078586281964	-0.24817802936909528	0.4626801332570552	0.3131052264743256	0.9472937024978605	-0.06782151843151718
405														8.698448008926313	4.356982572866539	-0.6412448174419563	-0.42181637360219537	0.2030018437691138	0.8836635097068527	0.8509161378892717	-0.2478919817495149	0.46313204560244337	0.3130697577868208	0.9472802208484236	-0.06817264809777357
406														8.688583266579911	4.360118409770756	-0.6218491240347747	-0.4220723842947864	0.20328427577958558	0.8834763186619572	0.8508477967399095	-0.2475444560968717	0.463443382775659	0.3129104172100317	0.947310532759176	-0.06848229935516581
407														8.687347501509375	4.434986880645512	-0.6514727623463661	-0.422416432656712	0.2034434382523984	0.8832752259933593	0.8507572472552334	-0.24718829988001012	0.46379958025544593	0.3126922827066173	0.9473693639940404	-0.06866457966995909
408														8.626828491033354	4.480232735731165	-0.6488250727541859	-0.42273784061642306	0.20346935442474867	0.8831154737184372	0.8506905024536308	-0.2468652370074392	0.46409398163782556	0.31243941356069843	0.9474480337027658	-0.06873017013371896
409														8.614767989503418	4.579712791891416	-0.6546625786633133	-0.42325016037843766	0.20336917644906277	0.882893130458073	0.8505738986298241	-0.24645428176582324	0.4645259195878667	0.3120630460488517	0.9475765220127194	-0.0686686989900786
410														8.563000071887288	4.5324585449760795	-0.5685793786502483	-0.42366348518480273	0.20339303532875547	0.882689370334107	0.8504143170895675	-0.24626555878921497	0.464918018411118	0.3119370779662966	0.9476204660801663	-0.06863462432225609
411														8.656995306789966	4.519476892405424	-0.6122866626517185	-0.4243217553041861	0.20338222449219778	0.882375610914184	0.8501483026088353	-0.24602514351823976	0.4655314085302357	0.31176739975002216	0.9476852322989076	-0.06851123218622729
412														8.67478242575596	4.569633972315579	-0.6835549727176425	-0.4246072207387727	0.20330477496767535	0.8822561286677679	0.8500413024875211	-0.2459332873876318	0.4657752700820754	0.31167048651069434	0.9477256916587491	-0.06839240607064295
413														8.69287053888242	4.546779915744063	-0.7272795337920663	-0.42502440199412356	0.20338746509115535	0.8820361652184858	0.84976108100333	-0.2460715209642273	0.46621337580812083	0.3118659374179711	0.9476720664946003	-0.0682443511527821
414														8.657009512506592	4.59100592650783	-0.790821711505789	-0.4254197701278961	0.20323272957838395	0.8818812146839545	0.8496600291454453	-0.24582496191166037	0.466527515773391	0.31160207646434074	0.9477692470898442	-0.06809992814872079
415														8.667198016568241	4.621858915554296	-0.7608549063131912	-0.4261213068826405	0.2031971311320971	0.8815506552208534	0.8494710839809574	-0.24528829080863374	0.4671536491052987	0.3111583347764413	0.9479159141463258	-0.06808752020221903
416														8.713678413288005	4.552313745672324	-0.8735574717268503	-0.4268256909027582	0.2031419171313299	0.8812225548007673	0.849440253463751	-0.24427180361512146	0.46774196065144125	0.3102758214570094	0.9481901958271999	-0.06829544023106204
417														8.683287697273178	4.510547406197755	-0.7821473763435925	-0.4277279050473978	0.20332699592134984	0.8807422846516244	0.8492924643400958	-0.2431584079308349	0.4685896911666628	0.30943682595788585	0.9484366723098282	-0.06867844901399528
418														8.713048767747049	4.622980784931079	-0.6977741959773005	-0.42840297701860247	0.20330075287358473	0.8804201798928921	0.8492847084175551	-0.24209267950456845	0.4691552180018963	0.30852288947452067	0.94871488784109	-0.0689469960111444
419														8.696886497312915	4.603998343905831	-0.6522707964217944	-0.4290706764035478	0.2033199542697034	0.8800905355964056	0.8490542841974408	-0.24169576812713878	0.46977651937427023	0.3082290984585553	0.9488119686561707	-0.06892511152133296
420														8.787810973901024	4.418401954501842	-0.6943916212766993	-0.4293316672897941	0.20336280780488641	0.8799533441404034	0.848915986831424	-0.24166960788404873	0.4700398365321822	0.3082466005720029	0.9488094482175459	-0.06888152298636491
421														8.776964975211149	4.316168012575441	-0.7742514471140011	-0.429530432118246	0.20382216590008378	0.8797500398250128	0.8486031871687694	-0.24205929369894216	0.47040400621271916	0.3088304366660116	0.948611523766061	-0.06899230657770872
422														8.850034247544441	4.278984408902345	-0.7477410269948348	-0.42987528541822895	0.20375315483616263	0.8795975732577404	0.848572927780356	-0.24162221191703986	0.4706832193169743	0.3084335021116708	0.9487377712532725	-0.06903199383258546
423														8.8120119370331	4.327493377181426	-0.7357856274200482	-0.4305244243439732	0.20361966815294058	0.8793109522714799	0.8484326151071546	-0.24105542700238092	0.4712264622611242	0.3079136529381661	0.9489105921286716	-0.06897731859305967
424														8.784982687334736	4.279696406683392	-0.7178220590095531	-0.43108703021718386	0.20332135765023868	0.879104315711049	0.8484483179678741	-0.24023587497947463	0.471616556230091	0.30708211298610855	0.9491823586098244	-0.06894509400876125
425														8.721143822979661	4.349597393541805	-0.7149006318951295	-0.431749079866624	0.2031765894050207	0.8788128387501335	0.8483114210401287	-0.23963741838128083	0.4721669626778576	0.30652971302502147	0.9493646197480184	-0.06889378639252863
426														8.666100645665217	4.417824147206479	-0.7350815423528628	-0.43203808467192506	0.20288231624538494	0.8787387889173456	0.8483990293158463	-0.23904233273063058	0.47231117943431034	0.30587935603591376	0.9495775528715952	-0.06884976857948444
427														8.59249362781733	4.5095551790608654	-0.7109197146401784	-0.4323955666260913	0.20259225001866965	0.8786298732654578	0.848392071755607	-0.23862270913973233	0.4725358137380105	0.3053931344092897	0.9497450094184163	-0.06869825718664152
428														8.576128959683682	4.58200871963547	-0.6914660121881591	-0.43239958415023794	0.20238429992433493	0.8786758189291651	0.8484184293353624	-0.23864583502204412	0.47247680809829057	0.30531421255948576	0.9497835335331777	-0.06851621004122294
429														8.559170751645375	4.673913208448171	-0.749121638153128	-0.4326011187535508	0.20225017407019558	0.8786075000486571	0.8481886150736135	-0.23909545877977348	0.47266207257447057	0.3056670497660497	0.9496990200476487	-0.06811333208597292
430														8.531332305715885	4.718613958495098	-0.7565713409515136	-0.43261919312842617	0.20207097673486574	0.8786398318414246	0.8480210708242003	-0.23968182491184048	0.47266572357756864	0.30610602276839666	0.9495893550205516	-0.06766948837228376
431														8.540029325587414	4.718077309376167	-0.7754044194055932	-0.4327177541558175	0.20215171544424732	0.8785727227619199	0.8476400011684064	-0.24065434133813224	0.47285506914310793	0.30702080329770676	0.9493261673092435	-0.06721647420367305
432														8.483481293372469	4.7368311385210395	-0.7659555351212188	-0.43280915284081517	0.20207730152172432	0.8785448203859118	0.847369064752366	-0.2413792735318227	0.47297115600208656	0.30763924541240917	0.9491579481408494	-0.06676289510750583
433														8.512101904506805	4.619933740797812	-0.7243510050863655	-0.4328696055886201	0.2025180888929516	0.8784135291698892	0.8468938146623721	-0.24250474509056924	0.473246569237617	0.30886043975259925	0.9487770403417789	-0.0665383834799615
434														8.552187881188562	4.530921068838418	-0.6547439248218501	-0.4329832073175499	0.20262023918037386	0.8783339802464076	0.8467023919664035	-0.24284941509687208	0.4734123160897685	0.3092258100795911	0.9486670650241824	-0.06640932253099263
435														8.62647906532302	4.544929305227862	-0.5760756136286174	-0.43317441606863144	0.20272553415389194	0.8782153967368252	0.8465675579873871	-0.24289001320620257	0.47363256987665314	0.309327165032223	0.948634175689823	-0.06640712075085003
436														8.6849439022069	4.450932652575957	-0.6316524438284579	-0.4334406119949605	0.20254118354453493	0.8781265881647211	0.8466085588281798	-0.2424228532012246	0.4737985947263359	0.3088416811123577	0.9487930381353762	-0.06639718965088925
437														8.645286707127202	4.57452574879209	-0.5688838003161629	-0.4339923095848653	0.20218238364468388	0.8779367625090932	0.8465430064779063	-0.2419022143646745	0.4741816707432017	0.30824602739458223	0.9490024248805798	-0.06617238220162186
438														8.612812788976656	4.7183778581873455	-0.605171761438945	-0.4345784637834701	0.20147098536303687	0.8778103444779208	0.8465119060337744	-0.24140609222191767	0.4744899277974289	0.3075047182705745	0.9492800117431053	-0.06563769912439532
439														8.608442119256637	4.692916498798883	-0.6517884858137144	-0.4353560141037517	0.20074207407000388	0.8775920240531858	0.8462503828883359	-0.24130900617470064	0.47500552944184093	0.3071244543259936	0.9494591003498001	-0.06482272994798421
440														8.527080943288485	4.606227389968494	-0.7498086362765671	-0.4359636061934466	0.20002153621066665	0.8774549100248581	0.8460219687085394	-0.24138803488353464	0.4753721122211462	0.306891776587992	0.9495910707599307	-0.06398621566927926
441														8.528326088769507	4.480058321632873	-0.8443019440239315	-0.4365020564933222	0.19970746325030259	0.8772587325294798	0.8456973460968371	-0.24165957806041377	0.47581156683757614	0.3070210961511716	0.949588109368368	-0.06340716887183334
442														8.582102803290296	4.53993429456355	-0.7956529340712257	-0.4366877751844747	0.19948919902921813	0.8772159634178549	0.8455977609806876	-0.2417743884872231	0.4759302172546706	0.307031290960518	0.9496047622786603	-0.06310770023386525
443														8.579389298356784	4.564288085577233	-0.794580739030044	-0.43675367068746795	0.19953459168644117	0.8771728323777175	0.8453729087068439	-0.24233405743828612	0.4760450081977827	0.3075562978798391	0.9494525534885996	-0.0628408490428401
444														8.616940185356963	4.5177471545282915	-0.8041928344560554	-0.43665479557127945	0.19941450628341273	0.8772493626035566	0.8453319624988886	-0.24269111870825139	0.47593580877878316	0.30780913352657546	0.9493865785779151	-0.06259921512078764
445														8.615575111594433	4.520530461036886	-0.7251787211501364	-0.43668202925649985	0.19929093118867675	0.8772638885024135	0.8452362314096549	-0.2430077593099242	0.47594426357250486	0.30803330734975626	0.9493315298993918	-0.062330794171505166
446														8.624462577054276	4.591421786427133	-0.773000307182703	-0.4367374725462708	0.19905426824341577	0.877290019530585	0.8451843298356245	-0.24320340168110754	0.4759365020788433	0.30809710916235855	0.9493310822388661	-0.06202150934136963
447														8.66757472123334	4.6216631255843	-0.7545932564198318	-0.43692969760166966	0.1988560142850489	0.8772392632209174	0.844985955446909	-0.2436006989302993	0.476085532838527	0.3083685691687595	0.9492707648839367	-0.061594159507845136
448														8.622856291269915	4.595537382724641	-0.6877391042713106	-0.43716002730348336	0.19836800992755443	0.8772349988260838	0.8448444008738363	-0.2439164820786105	0.4761750603323566	0.30842997396515515	0.949291779384914	-0.060959566534524945
449														8.406930296961663	4.717051510686105	-0.7110662871537372	-0.43748040464082855	0.1982318248577854	0.8771060592475969	0.8444757403437995	-0.24458905933544733	0.4764839095123702	0.3089848208667999	0.9491471622814626	-0.060399046407689616
450														8.543082492626093	4.631870162040332	-0.7597931132180484	-0.4374209563824632	0.1981707638727036	0.8771495056508671	0.8442874712185161	-0.2452990412394313	0.4764525645963711	0.3095829014349703	0.948976674483164	-0.06001415188087328
451														8.55822886050793	4.509694293395868	-0.7496222386549084	-0.43741967089143075	0.1980147069114911	0.8771853893926809	0.8441190656189785	-0.24590174744485246	0.47644027292212754	0.3100436010882594	0.9488532586497898	-0.059585727937988664
452														8.542693378794588	4.5610902546709795	-0.6493098639568697	-0.4373331000235869	0.19792443262464549	0.8772489262427011	0.8439845104091246	-0.24650597270907215	0.47636640478546044	0.3105316502600505	0.9487153020737923	-0.05923993414752693
453														8.531826165263293	4.532603925110507	-0.6766900272444828	-0.43740200889088315	0.19792976845364413	0.8772133659367636	0.8437946355687613	-0.2469684898547035	0.47646319690430283	0.3109503105057156	0.9485938919151725	-0.05898756324535698
454														8.520913101685892	4.556813487013051	-0.6529475087349745	-0.437500099544914	0.197737296337549	0.87720785708708	0.8437190606783196	-0.24714103983485652	0.47650755825846064	0.31101737820624226	0.9485890933731331	-0.05871049639760412
455														8.504377733326217	4.557209885035215	-0.6047254134881526	-0.437682819104373	0.1975038590686552	0.8771692969511855	0.8436179607437403	-0.24727344783478747	0.4766178535330685	0.31103454176573625	0.9486032192908083	-0.05839046308853002
456														8.54161233261692	4.636046887352372	-0.5888401859318887	-0.43783031628960256	0.19721140648208718	0.8771614875786001	0.8434759315159495	-0.2476210308207615	0.4766887643405959	0.31121209342030276	0.9485733952882189	-0.057927080543837606
457														8.575971988613622	4.686865494349652	-0.623920547535706	-0.4379700830238893	0.19688606523794594	0.8771647984792639	0.8432122358792965	-0.24836954882661633	0.47676586756929396	0.31172958095035835	0.9484452775625926	-0.0572383073625663
458														8.633479439925223	4.5432581893862185	-0.6475696386291938	-0.4379036379374027	0.19663490499383762	0.8772543063554903	0.8429870407336852	-0.2493000955540526	0.4766784151939376	0.31243119728390095	0.9482532238251575	-0.0565912578844428
459														8.636998614622852	4.465961382386517	-0.6930814461309398	-0.43786792432398963	0.19660087522341074	0.8772797596602746	0.8427317775570016	-0.2501511495602988	0.4766839135834948	0.31316901498043626	0.9480361270727236	-0.05614864042105938
460														8.709035193478197	4.501954073488735	-0.6122933735741325	-0.4377534242740877	0.19659925036425424	0.8773372637090728	0.8425916758912362	-0.2507638964758363	0.476609626364233	0.313705606030731	0.9478745713333958	-0.05588013747676751
461														8.763839843898912	4.506406805228232	-0.6167193087321468	-0.43756280864817376	0.196775030895036	0.8773929425885412	0.8424137074949234	-0.2515178896351368	0.476526910696704	0.3144486188752927	0.9476382951367808	-0.055711109104703616
462														8.833222751250874	4.513702808607082	-0.5891377997157079	-0.43743933751662595	0.1965560834194523	0.8775035795162437	0.842331902989767	-0.2520850512315479	0.4763718003316584	0.31483931012288313	0.947533024762933	-0.05529354198234959
463														8.77763485352051	4.478004211769252	-0.6311177646295889	-0.4373706197331703	0.19616413117882797	0.8776255321223727	0.8422121885128753	-0.25276998198442335	0.4762205011630085	0.31525477080382974	0.9474317758268664	-0.05465765855737792
464														8.714117023505496	4.5667638114717475	-0.6235752691627747	-0.43731593889672055	0.19563642988540114	0.8777705605046084	0.8421251973411146	-0.25340664298217785	0.47603594958331885	0.3155628647196447	0.9473708147257851	-0.053931603125937366
465														8.658888292910506	4.603526811437539	-0.6903286869921571	-0.4372904778407331	0.19518564972619507	0.8778835914463754	0.8419834417810856	-0.2541177527191355	0.47590760817563516	0.3159761411187573	0.9472733131963235	-0.05321981162837508
466														8.620660872520979	4.546770456934117	-0.6987073458968468	-0.43717508331809185	0.1947904994666385	0.8780288194833687	0.8418972321574756	-0.25477754137076936	0.47570732062755633	0.3163652904656296	0.9471774204079215	-0.0526111894751905
467														8.60516472452749	4.4721253747797665	-0.6226097162127212	-0.4370160561164017	0.19471647686295412	0.8781243991226667	0.8418274420470144	-0.2552841576160121	0.47555920418688497	0.31677046029111733	0.9470562245761132	-0.0523543978915999
468														8.69449384855448	4.453976376937839	-0.6410527965864188	-0.4368343717748353	0.1945583449256172	0.878249840339234	0.8419810254598583	-0.25520462862587806	0.47532993835176596	0.3166128304438261	0.9471101561844497	-0.05233228115242833
469														8.634049974685636	4.549129885071702	-0.508284369251533	-0.43669721210632145	0.19426913560565245	0.8783820625955426	0.8421783131253322	-0.2549927150532942	0.4750941003328918	0.31627714719836597	0.9472265928597986	-0.052254645145489664
470														8.658735516613431	4.67385904221641	-0.4729318492077945	-0.43667394566285483	0.19371649920292344	0.8785156703871583	0.8423573158838873	-0.25479271577395857	0.47488401148640913	0.31583226174051193	0.9473935770972352	-0.05191716978782901
471														8.57235096139105	4.707832564775613	-0.5274790406041657	-0.4367990945418775	0.19299950493792845	0.8786112576680946	0.8423964570451918	-0.25485975860629384	0.47477859324199745	0.3155546864888944	0.9475218702155936	-0.05125958737679637
472														8.531137362247968	4.696446631617823	-0.6152463287778411	-0.4369107220458431	0.1922615311273302	0.8787175454091918	0.8424208795109653	-0.25500393640818175	0.47465782852524846	0.315334873944117	0.947633102031006	-0.05055117416777938
473														8.497889191793249	4.613034924961777	-0.6994303048161699	-0.4371453512389152	0.19156816705132157	0.8787522854950665	0.8424150016450398	-0.25501505669411184	0.47466228611791633	0.3150252480256039	0.9477705198157917	-0.049901251231916965
474														8.50133650765592	4.588175258161669	-0.6936283555068309	-0.4373339986566499	0.19105855541990846	0.878769367934411	0.8424619004227323	-0.2548423494863144	0.4746718058242078	0.31463775990034104	0.9479198306339802	-0.049508329963172615
475														8.493361074022593	4.587657968619783	-0.6684044938013486	-0.4374026909521479	0.1907476296377737	0.878802724014549	0.8425452800335116	-0.25464710138038527	0.4746285967488899	0.3143188461436449	0.9480349126198568	-0.049330187641941636
476														8.54819862431853	4.644036694098453	-0.6217111153924212	-0.4373592272576464	0.19057426028194674	0.8788619673478786	0.8426239752521705	-0.25457411249672096	0.47452803666036103	0.31416833491430113	0.9480893800504762	-0.049242103658148684
477														8.620101226956148	4.626871413485228	-0.5942277460152807	-0.4371844489317999	0.19054747835766572	0.8789547292686548	0.8425990413529525	-0.25494834119388077	0.4743713722744817	0.3144783190035279	0.947994199251253	-0.049095672545468316
478														8.671684181493264	4.457761413385307	-0.598239091084734	-0.43706374893860656	0.19030145578475943	0.8790680492942122	0.8426246506515275	-0.2552001859233646	0.47419042927822896	0.3145774586300194	0.9479758546666054	-0.04881394770961489
