// Start Time: 1748432634.6645443
// Update Rate: 100Hz 
// Filter Profile: 46.1 human
// Option Flags: AHS Disabled ICC Disabled 
// Firmware Version: 4.0.2 
PacketCounter	SampleTimeFine	Year	Month	Day	Second	UTC_Nano	UTC_Year	UTC_Month	UTC_Day	UTC_Hour	UTC_Minute	UTC_Second	UTC_Valid	Acc_X	Acc_Y	Acc_Z	Mat[1][1]	Mat[2][1]	Mat[3][1]	Mat[1][2]	Mat[2][2]	Mat[3][2]	Mat[1][3]	Mat[2][3]	Mat[3][3]
0														9.30788895711411	-3.053596615755965	1.020945978602564	0.19101167586198675	-0.27418490489821934	0.9425164070775374	0.7620722909984042	-0.5637703378766825	-0.31844753009382093	0.6186762990262671	0.7790928340424945	0.10126200159386195
1														9.294304236637496	-3.052143802737386	0.9706218091759824	0.19110096580812402	-0.2743231952584404	0.9424580655978292	0.7623868925042114	-0.5632892036670257	-0.31854591375489383	0.6182609861579287	0.7793921077194508	0.10149529752485065
2														9.291366284735378	-3.0796790840394492	0.9949841228344197	0.19123840844021167	-0.27436806896668275	0.9424171230770105	0.7628662775488475	-0.562610602811942	-0.3185974767356905	0.6176268401842818	0.7798663169640536	0.10171339119753481
3														9.287404728584317	-3.0052438428469457	0.9790951469049382	0.1914789721142201	-0.2743437557270185	0.9423753535251631	0.7634151709100054	-0.5618222622731759	-0.31867384963108947	0.6168736337877712	0.7804429827398316	0.10186103587548118
4														9.307757981167532	-2.979060135989812	0.9881583878645762	0.19168881262221976	-0.27427627755956974	0.9423523346835565	0.7639394920471341	-0.5610912501191617	-0.31870528946109977	0.6161589499522431	0.7809924024008059	0.10197556465137741
5														9.32286535921889	-2.9552149646944734	1.0202670082084984	0.19193394922745016	-0.274167823399892	0.9423339979784877	0.7643666556277359	-0.5604808862133873	-0.31875506576982676	0.6155525768757899	0.7814686051285886	0.10198943229547458
6														9.301933965061554	-2.9824570058738664	1.0134291532560091	0.19220118631285937	-0.2740910442171304	0.9423018642982154	0.7647854713103684	-0.559859866931409	-0.3188418295520872	0.6149486863572494	0.7819405532900232	0.1020151178403727
7														9.296263749054951	-2.985807233428716	1.037371964665798	0.19254776464745688	-0.2739663212664498	0.9422673787948916	0.7652269294044844	-0.5591909770580197	-0.318956419736429	0.6142907331577219	0.7824627185934327	0.10197543413941884
8														9.287703554865393	-2.9651181455135376	1.0621997950488924	0.19298015055626389	-0.27374687432841194	0.9422427024321846	0.7656781403873678	-0.5585033591099817	-0.3190783339492183	0.6135924109897578	0.7830304251166051	0.10182193534540956
9														9.36074769071488	-2.9326974165128696	1.0550140016275107	0.19350302896783522	-0.2734967148303243	0.9422081111714616	0.7660213260931794	-0.5579235795875852	-0.31926886367233276	0.6129991074632329	0.7835309989510281	0.10154441359367827
10														9.331981609305885	-2.9903978346732245	1.090505030281434	0.19408105663458003	-0.27324343620178676	0.9421627078314257	0.7662697357068786	-0.5574410813737057	-0.3195154658801722	0.6125057025002419	0.7839626683519778	0.10118942155745075
11														9.274175896745984	-3.0198543976966574	1.0209003176021032	0.1947504329754498	-0.27291835184994095	0.9421188046522514	0.766447513471098	-0.557032831955437	-0.31980092748095235	0.6120706478420986	0.7843659843129469	0.10069520695115519
12														9.224974166257418	-3.122385812826128	0.9449376058188116	0.19558581197648217	-0.2725054697014842	0.9420652626735976	0.7666751894920505	-0.5565171893399099	-0.3201527319679408	0.6115188827590113	0.7848753958125972	0.10007631626508962
13														9.209458829973604	-3.200981128937691	0.9277673941672278	0.19670825721533775	-0.27186670235853205	0.9420161132868177	0.7671293303436825	-0.5556602358736752	-0.32055310448545876	0.6105886111530072	0.7857036326869753	0.09925396472047171
14														9.306652436183288	-3.2365533780564	0.8385087567252457	0.1978502257088517	-0.2711692526955596	0.9419779851883425	0.7677532291727047	-0.5545924852137045	-0.32090832715804085	0.6094343830814288	0.7866984248980162	0.09846482103340054
15														9.339567183044686	-3.164947845980118	0.8710590481588082	0.1990495573960473	-0.2704363646282727	0.9419360097093017	0.7685798006420507	-0.5532444900693696	-0.32125632173220975	0.6080002991327089	0.7878989192114223	0.09772885633224876
16														9.37851102600256	-3.141162384859992	0.9002227499584482	0.20017343844582275	-0.2696355272737201	0.9419274265953823	0.7693997197640452	-0.5519553117062002	-0.3215111274999982	0.6065926687389036	0.7890766859508234	0.09697070651016487
17														9.42282180192208	-3.1146641346637245	0.9059641508209041	0.20119714618198503	-0.26896785859235395	0.9419002067164379	0.770112714560453	-0.5507987484049244	-0.3217874230418263	0.6053479290792654	0.7901120362327185	0.09631643141038981
18														9.483332821853237	-3.1311971613347627	0.8622730999569346	0.20186631678512817	-0.2683389747788454	0.9419364016547217	0.7707811143903613	-0.5498411031401067	-0.321824851428264	0.6042735008642691	0.7909923867600179	0.09583621570644041
19														9.465562995580106	-3.1128934654897837	0.9322449003267425	0.20217029987499352	-0.2678884900029992	0.9419994303460959	0.7714251473539988	-0.5490148242698154	-0.32169234489158394	0.6033493282322582	0.791718687196341	0.09566142621655838
20														9.4022260310341	-2.9522553719904767	1.0328029016355555	0.2021763928769013	-0.267622607477871	0.9420736946386048	0.7720992999222418	-0.548217230075055	-0.321435125193902	0.6024843377407167	0.7923610342612644	0.09579464578748809
21														9.323795657504833	-2.8658570077200993	1.1243717494071845	0.2020890294513194	-0.26737294564620356	0.9421633256033135	0.7725074301383816	-0.5478044825093579	-0.3211580908581435	0.6019902777922719	0.7927306963144081	0.0958423109302795
22														9.31454444736481	-2.936007174700697	1.0914054701184286	0.20192139901058204	-0.26716082179481376	0.9422594355693814	0.7727240507818203	-0.5476666446447781	-0.32087191788448133	0.6017684687360616	0.792897434503007	0.09585597734938373
23														9.292816351054379	-3.0369010572109714	1.127999963969189	0.2018676622969825	-0.2669633181404957	0.9423269250563571	0.7728539872931303	-0.5475867488984092	-0.32069528645738143	0.6016196150757243	0.7930191291502925	0.0957836079809598
24														9.251112940391458	-3.0379738549741995	1.0935291672201988	0.2018226770625915	-0.266788994593043	0.9423859291114882	0.7729915349985457	-0.547484891260508	-0.3205376431280148	0.6014579734643823	0.7931481111403492	0.09573076804567748
25														9.260165125732179	-3.1093007938391186	1.0886792549379385	0.20191565834646275	-0.2665747993472793	0.9424266248719168	0.7731489887992686	-0.5473083215911041	-0.3204594236963504	0.6012243408522172	0.7933419675462067	0.09559191648215154
26														9.273588421504922	-3.1285597951195	1.0388262565725612	0.20205374568621426	-0.2663353311197575	0.9424647342216577	0.7734096158382234	-0.5469836724452757	-0.32038481269756114	0.6008426166502694	0.793646239501964	0.09546620627870839
27														9.302711014350603	-3.1233784284309034	1.0193409914376574	0.20223893698150525	-0.26607795475922896	0.9424977105328882	0.7736700275210633	-0.5466438069578688	-0.32033613100954583	0.600444919109278	0.7939666682586577	0.09530387615463837
28														9.341897180440506	-3.1144169200425864	0.9522329765374596	0.20244617802499415	-0.26583671895411626	0.9425212909312883	0.7739901794729545	-0.5462089927804434	-0.32030444624637494	0.5999622880502538	0.7943466340719796	0.09517708682251541
29														9.350072335918973	-3.136137331338831	0.9261662591896094	0.20263156422585676	-0.26557751926683487	0.9425545238549636	0.7743150664555356	-0.545783187308113	-0.3202450472868512	0.5994802974571748	0.7947259236440396	0.09504777350777871
30														9.347454708794846	-3.1113873641629173	0.92698076264193	0.20281191561607448	-0.2653591880931041	0.9425772266391268	0.7746724262752	-0.5453020028633879	-0.32020049600535205	0.5989573931867225	0.7951290630883437	0.09497270228449622
31														9.339079496976542	-3.038365523722326	0.9305034370357588	0.20304112858567158	-0.2651192057888717	0.9425954099318201	0.7749510739954301	-0.5449099711257672	-0.32019362311115174	0.5985191166671182	0.7954777998722495	0.09481527774793991
32														9.360845981984687	-3.061606238572022	0.957112352912102	0.20320993463187353	-0.26487932014124976	0.942626473333112	0.775185573324128	-0.5446033906222184	-0.32014758133230903	0.598158047155644	0.7957676122363199	0.09466180823676229
33														9.325125030955633	-3.1630111573712076	0.939785379430629	0.20343166373135702	-0.26460840360860083	0.9426547358026691	0.7753820809150002	-0.544333629339488	-0.3201304867800395	0.5978278906068337	0.796042268167846	0.0944379187761733
34														9.341924857345228	-3.188138634800202	0.9898612756904049	0.20363152157773795	-0.2643402005848776	0.942686831230119	0.7756704942723336	-0.5439500166451369	-0.32008383855963407	0.5973855436276055	0.7963935194026273	0.09427552449203463
35														9.326384624661364	-3.212413056442623	0.9583664162059143	0.20386799047782994	-0.26405172317524006	0.9427165692543642	0.7760013619569627	-0.5434994655180518	-0.3200472109275935	0.5968749690676187	0.7967967234306245	0.09410235295012931
36														9.310845493715835	-3.1674218556916185	1.0079124770154557	0.20411337836550864	-0.26381069499836224	0.9427309510017691	0.7764211028705392	-0.5429091926750421	-0.32003106025232886	0.5962449159443747	0.7972788255769843	0.09401316129707815
37														9.302396808658736	-3.094613752365256	1.0113815631382297	0.20433439746465965	-0.2636099370370808	0.9427392296430975	0.7767131240210898	-0.5424862388562701	-0.3200396907025391	0.5957887016268048	0.7976330495578052	0.09390069896950842
38														9.296691161837941	-3.0463150464292665	1.0136332577408846	0.20455768614539327	-0.26347006026832537	0.9427299085003343	0.7770159111906472	-0.5420265562068918	-0.3200835611571866	0.5953170808866582	0.7979916915035539	0.09384473078380984
39														9.285892126366083	-3.0002437964489728	1.0394834037930707	0.20479953009161067	-0.26335897124209634	0.942708441004195	0.7770896358435688	-0.5418553170764557	-0.32019449280161455	0.5951376734325975	0.7981446407903008	0.09368181274375875
40														9.325137024652749	-3.043200472645945	0.9937713109440454	0.2049042653417772	-0.26335583415403563	0.9426865580147938	0.7770238211866987	-0.5418969295593398	-0.32028377892516147	0.5951875530899218	0.7981174239115397	0.093596764343858
41														9.327696216815903	-3.068478425548189	0.9918861179267737	0.20503880297252486	-0.263362951184555	0.9426553162312068	0.7768672823066214	-0.5420430841863405	-0.32041616776823933	0.5953455424853022	0.7980158211646697	0.09345819500589381
42														9.356066236501462	-3.065408523182593	0.9725588300162568	0.2050912748995396	-0.2634478563071924	0.9426201758753239	0.7765843316976717	-0.5423694185796858	-0.32054982382028274	0.5956965206560823	0.7977660313630047	0.09335424190447544
43														9.33488254786722	-3.0930866012934604	0.9658881307934136	0.20506792453434158	-0.2635517529826471	0.942596212504035	0.7763166938061111	-0.5427029717592781	-0.3206335530813914	0.5960533006746349	0.7975048325517674	0.09330865346499895
44														9.310299067524378	-3.0458212856131763	0.9395522846528831	0.204999440071843	-0.2636446241475816	0.9425851376551149	0.7760111025138254	-0.5431111828410268	-0.32068210403497505	0.596474641829398	0.7971961836531218	0.09325366707744104
45														9.30514611895635	-3.0482323957519513	0.9631358576587404	0.2049567065695887	-0.26373741097050724	0.9425684731024702	0.7756059050163417	-0.5436402042804267	-0.3207659713774482	0.5970161040842445	0.7968048106936292	0.0931335874943125
46														9.310684055308153	-3.0971902130543945	0.9601197516495575	0.20486328526606956	-0.2638414289634679	0.9425596716985667	0.7752200130831932	-0.5441618813794015	-0.3208142424658318	0.5975491324278601	0.7964141806975482	0.09305636527699845
47														9.355822225628252	-3.1188086963265382	0.9927611087609972	0.20471069326315666	-0.2639820528435038	0.9425534509194945	0.7747272370418332	-0.5448393616790019	-0.3208547617704085	0.5982401192240835	0.7959042315139102	0.09297964298171468
48														9.369881865915428	-3.240277714016289	0.9859440251931232	0.2046225529280204	-0.2640824102693422	0.942544477157208	0.7744413080370927	-0.5452253002454387	-0.3208894394929017	0.5986403521639823	0.7956065940894447	0.09295093438140933
49														9.446074579952368	-3.161712020521957	1.0592714408330326	0.20450416392427412	-0.2642254719425767	0.9425300774587286	0.7742726365794323	-0.5454542345874226	-0.32090740442530136	0.5988989323600173	0.7954021485684915	0.09303489060916792
50														9.424315597823883	-3.13807226466663	1.0335619574712236	0.20432658830030753	-0.26444920769435654	0.9425058418192344	0.7741463130758557	-0.545626050607059	-0.3209200817181782	0.5991228014894908	0.7952099279113473	0.09323646972410599
51														9.35279407023584	-3.1457249780908016	1.0206346823724395	0.20412371051588346	-0.26472472174634626	0.9424724571580577	0.7740534355351802	-0.5457471449829043	-0.3209382069483052	0.5993119302511941	0.7950351410090802	0.09351114810149364
52														9.330897104561375	-3.1223090708933916	0.9956924298568611	0.20395812632969768	-0.26495614230255826	0.9424432743461144	0.7739229916935159	-0.5459161077781335	-0.32096542835098507	0.5995367258410755	0.7948420257664537	0.09371162384273946
53														9.340718033084146	-3.1186219031268996	0.9500355254198027	0.2038384965583252	-0.26511706237121246	0.942423901734512	0.7737387655418659	-0.5461594468000288	-0.32099560957875517	0.5998151298680217	0.7946211688035663	0.09380302804634333
54														9.345603549262394	-3.116653328994569	0.9279551613686022	0.20372737361944304	-0.2652346403003742	0.9424148464571506	0.7737485596870459	-0.546156563774501	-0.3209769060668556	0.5998402484164808	0.7945839121394042	0.0939578785887274
55														9.373620475354755	-2.992382503548191	0.9712017243192141	0.2036206841590142	-0.26534685344994297	0.9424063159523233	0.7737983085978044	-0.5461005786013762	-0.32095223268022244	0.5998122994685859	0.7945849264965056	0.09412757295686958
56														9.344666105666748	-2.996749164805982	0.9916709456625443	0.20350961421136943	-0.26549262485291164	0.9423892524176254	0.7737286939540389	-0.546193238551617	-0.3209623876915698	0.5999397845415129	0.7944725371648836	0.09426368661937495
57														9.28693946558799	-3.0749982905057203	0.9494045650877071	0.20345472324577046	-0.26561573100178126	0.9423664144234853	0.7735815000997341	-0.546370927172623	-0.3210147545580626	0.6001481802791973	0.7943091925597472	0.09431366986100437
58														9.339874674274668	-3.1185660652441647	0.958472831892222	0.20339440001535253	-0.265711656532033	0.9423523935478689	0.77358502734106	-0.5463607782230409	-0.32102352794342726	0.6001640804947644	0.7942840899845067	0.09442383640457463
59														9.339751560365837	-3.1184688777025475	0.9599875526811271	0.2033096931515171	-0.2657677427651495	0.9423548565037236	0.7736250398961886	-0.5463269057224904	-0.3209847499949335	0.6001412053144299	0.7942886244868466	0.09453102503695132
60														9.297286049570653	-3.1213172217146337	0.927455339772078	0.20327843562442466	-0.2658461475424764	0.9423394841812107	0.7737920910591914	-0.5460931451850923	-0.3209798694561661	0.5999363944822236	0.7944231256822005	0.09470068614847577
61														9.346810243796686	-3.090025219531225	0.9174378408937686	0.20327702433508604	-0.26587628446079103	0.942331286087222	0.7739651985783368	-0.5458542266480632	-0.3209688998018987	0.5997135339202119	0.7945772238189124	0.09481936838621852
62														9.412690442235055	-3.0844797376381425	0.9587329236073346	0.20328693574705697	-0.2659439612489329	0.942310050476911	0.774116507286972	-0.5456261766111861	-0.3209917577485107	0.5995148496079074	0.7947111958893529	0.09495293690941531
63														9.404616873183018	-3.131710297670517	0.904778822137038	0.20328462315146384	-0.2660291878687285	0.9422864920989117	0.7741811313674931	-0.5455125134656842	-0.32102908511052486	0.5994321795038337	0.7947606991127938	0.09506047191670808
64														9.364794707303343	-3.0901036584902855	0.9508102726496962	0.20337915780783888	-0.266050743020561	0.9422600067431399	0.7742318099461027	-0.5453952545443337	-0.321106089615416	0.5993346499552286	0.7948339565335197	0.09506292076469586
65														9.38036001235534	-3.1354700614164788	0.9007995246756236	0.20346612021787536	-0.2660904966119439	0.9422300067055258	0.7741666064770927	-0.5454288651763	-0.3212061930415365	0.5993893587137065	0.7947975847002201	0.09502208172561244
66														9.38508509188137	-3.1345648888539728	0.8772538336941633	0.20359621169082248	-0.2661339057860274	0.9421896448041767	0.7741963181879346	-0.5453158366560071	-0.3213264682474915	0.5993068024721504	0.7948606056933718	0.09501565148634267
67														9.329851341479603	-3.1689555461398675	0.913061683645178	0.2037941581182912	-0.26614860016469827	0.9421426981870786	0.7742559381787446	-0.5451421582808618	-0.32147747893100703	0.5991624849002224	0.7949748108558254	0.0949703469138416
68														9.289258010872635	-3.1474406321990616	0.8561382402765835	0.20403071340588985	-0.2661437287168012	0.9420928742177179	0.7743651694288984	-0.5448916914964295	-0.32163897293940147	0.5989407753379601	0.7951481372693249	0.09491779303526604
69														9.31812632274313	-3.1949638574086237	0.8582604871994435	0.20432862341369207	-0.2660225337635946	0.9420625378306167	0.774571927981448	-0.5445233282320481	-0.32176493499788783	0.5985717517866738	0.7954409824374714	0.09479188478948097
70														9.304062264715787	-3.125991967173294	0.8852120146931399	0.20474398379492564	-0.2659020157182321	0.9420063795626676	0.774878044691601	-0.5439686902389372	-0.321965960770167	0.598033374448872	0.7958606549369787	0.09466731732007105
71														9.321512131214046	-3.0774124546429578	0.8916905997295838	0.20528840039573693	-0.26572144549034804	0.941938844123906	0.7751760054295498	-0.5433856759384876	-0.32223309543118006	0.5974603194097887	0.7963191072625304	0.0944301124608054
72														9.21281171458225	-3.070179682740984	0.9172880769609362	0.20602349279950322	-0.2655554290627225	0.9418251613277313	0.7754505754497458	-0.5427405626055486	-0.3226593974104453	0.5968506726555245	0.7968142793637216	0.09410780388852963
73														9.201372003685455	-3.1479208607719715	0.8806234530333148	0.20685484156858142	-0.2653030315971877	0.9417140627308154	0.775527386778332	-0.5423437527064826	-0.3231416504522752	0.596463198258206	0.797168461070551	0.09356333575712689
74														9.272702670552716	-3.139073204311884	0.7668298123851334	0.2078139117673367	-0.2650311186711745	0.9415794625053495	0.7756455887038289	-0.5418385114466253	-0.323705032765318	0.5959759213258937	0.7976023656241316	0.09296863745662354
75														9.321426854196847	-3.1642391363113638	0.770272382706311	0.20886094569941138	-0.2647509153796088	0.9414266079558229	0.7757444218531893	-0.5413200016478138	-0.3243350856439554	0.595481063783903	0.7980473724169951	0.09231843831608799
76														9.335884646434936	-3.1454155818245444	0.7945396094954317	0.20986924215155045	-0.26446875192669	0.941281669030622	0.7758062954312837	-0.5408680400680902	-0.32494054102572545	0.5950457908160702	0.798447269697406	0.09166495701649602
77														9.359705344865189	-3.1927638424366513	0.6907439372118912	0.21084263599505682	-0.2642109920276555	0.9411365121694186	0.7758649347502783	-0.540426776435978	-0.32553417998109463	0.5946250800896329	0.7988313032191336	0.0910470379837704
78														9.30322746590981	-3.0610644602684793	0.7590731462764195	0.21175408067581175	-0.2640231019941956	0.9409845965426344	0.7758720242809773	-0.5400581483144249	-0.3261284997931536	0.5942918569653131	0.7991426643926335	0.09048862189337731
79														9.317491435519457	-2.9917518887368817	0.7623068618343577	0.2125533717103893	-0.26385565537684225	0.9408513470789112	0.7755976313050648	-0.540112356475972	-0.3266909192125561	0.5943646847588754	0.7991613325903782	0.08984311884531276
80														9.374099582962646	-2.869204346529845	0.7777209878009465	0.21325061038491788	-0.2637908546259482	0.9407117317149671	0.7749946698395433	-0.5406194432110988	-0.32728256803933087	0.5949012009491641	0.7988397853373564	0.08914908003680644
81														9.362661357511975	-2.828304492534135	0.7972185675338532	0.2137876425499491	-0.26377599078789715	0.9405939987990565	0.7738767638361781	-0.5418726476736212	-0.32785482777843145	0.5961623925470144	0.7979951506037137	0.08828443422017662
82														9.322127152701578	-2.9110796508698913	0.7747007097675863	0.2142228337271277	-0.2637360482228071	0.9405061798721673	0.7723596560400332	-0.5437099073887585	-0.3283901617421421	0.5979708514899719	0.7967577006061037	0.08722400640439087
83														9.279142732489262	-2.969162010888367	0.7514416709846127	0.2146164869180649	-0.2636678929616717	0.9404355404620248	0.7704314370738033	-0.5461125653364776	-0.32893231332601824	0.6003125555169926	0.7951354024332988	0.08593327345035545
84														9.223158099385413	-3.1257603937673535	0.7155036656309469	0.2149023448652303	-0.26353117552164956	0.9404085823191979	0.7683821215504358	-0.5487340281880673	-0.32936284184793685	0.602831566403981	0.7933739886312605	0.08456841437704637
85														9.172347790225416	-3.279193018700205	0.6543208537333132	0.215178170646245	-0.263328681317601	0.9404022333410683	0.7663781761819304	-0.5513073303945878	-0.3297343150556995	0.6052791471291522	0.79165537517832	0.08318005170640336
86														9.167051985871472	-3.4532335333357373	0.6250297231778843	0.2154035250965885	-0.26302308860166257	0.9404361627661952	0.7646869752907987	-0.553517595809613	-0.32995772600403794	0.6073344640283254	0.7902133420738909	0.08190068871406975
87														9.220173893325528	-3.498472451164134	0.6200662045779297	0.21566092215607607	-0.2626031299835403	0.9404945309663633	0.7635477164271793	-0.5550274528312276	-0.33005970875361296	0.6086749965241149	0.7892934325879875	0.08081228792604134
88														9.223114173838617	-3.523554110438346	0.6086794855303006	0.21600906119745905	-0.26218804068658325	0.9405304443778115	0.7628750304220602	-0.5558863583435978	-0.3301697208497996	0.6093945958401124	0.7888268428041889	0.0799402191168026
89														9.20523610459398	-3.405685542523332	0.6341004796405364	0.216457546340395	-0.26173380002982133	0.9405538520224381	0.7628231650249304	-0.5559091315626877	-0.3302512018851214	0.6093003770995424	0.7889616311121657	0.07932587912647127
90														9.237937585305051	-3.3580701524447574	0.6901202745539197	0.21700926910786072	-0.2611721147943054	0.9405828531156321	0.7631850352247846	-0.5553862951737627	-0.33029481549383577	0.6086506215639781	0.7895157943873149	0.07879867564084259
91														9.34219021223048	-3.303236635220045	0.7623512746871204	0.21757341324602508	-0.2605575501368954	0.9406229706503741	0.7638932741629009	-0.5544247281508576	-0.33027304840621174	0.6075597711642524	0.7903941952478573	0.07841007959015561
92														9.327272352090846	-3.2082354355361553	0.790032025384755	0.2181253610744987	-0.25993856724185704	0.9406663957622653	0.7647964732666197	-0.5532124258797946	-0.3302156361093973	0.6062241180743807	0.7914467468582103	0.07813043934662073
93														9.264965773102645	-3.117051728325787	0.807992354953651	0.2186728309155369	-0.2592278956138745	0.9407353991186832	0.7658385374553411	-0.5518473230787708	-0.3300846354483341	0.6047094571508288	0.7926319638687288	0.07785269607375978
94														9.317046071284837	-3.0165031072131905	0.8739290942979502	0.21925843073740608	-0.258486995087599	0.9408029623258816	0.7667725151123506	-0.5506109712308367	-0.32998101222421183	0.6033122331089025	0.7937329725611876	0.07747462584827969
95														9.343845103283243	-2.9866543036507056	0.8520379209991612	0.2198423271133188	-0.2576412027994193	0.940898699026345	0.767563360602074	-0.549595593369152	-0.32983506667796847	0.6020928820959859	0.7947110760328421	0.07693157323278305
96														9.41359607778101	-2.9544996240896477	0.8622810195038965	0.22047327178499437	-0.2567858560776076	0.9409848885858427	0.7681547786150841	-0.5488214504159216	-0.32974725420263307	0.6011071223328099	0.7955224947679701	0.07625082162779523
97														9.372661168112257	-3.056914170651692	0.8630729751750463	0.22103432671862733	-0.2559015404602957	0.9410941653214582	0.768606052650962	-0.548272981893526	-0.3296080599043191	0.6003237145410392	0.7961853671825615	0.07550032346963864
98														9.352422620745429	-3.0825839163596336	0.8489368270755204	0.22163639168486177	-0.25506611789162276	0.941179358775261	0.7688565140893386	-0.5479532724709277	-0.32955556728841967	0.5997807688008221	0.7966733877142491	0.07466286014208506
99														9.332089293225865	-3.1086126351493664	0.8344317468160426	0.22226375452216657	-0.254224548219231	0.9412591048741246	0.7690783934417716	-0.5476610219202193	-0.32952364074573615	0.5992639219632148	0.7971432017849925	0.0737934121804718
100														9.383047338975144	-3.1284419553101928	0.8342476649546207	0.22294716309722917	-0.2534534604671995	0.9413054264393144	0.7692325208237313	-0.5474073556897632	-0.32958536958413237	0.5988120668240291	0.7975628691921051	0.07292172729709323
101														9.364876804890637	-3.1799316984860884	0.8182253051990148	0.22361677614709785	-0.25275293788810066	0.9413349509151951	0.7692787841957585	-0.5472785626506556	-0.3296912601955476	0.5985028735201483	0.7978735032898175	0.072056804926107
102														9.269841796461808	-3.1900285936725004	0.7912860991652717	0.22431313332844238	-0.2520636321231868	0.9413541010572177	0.7694218112798903	-0.5470038398290078	-0.329813395026784	0.5980582701904127	0.798279853543347	0.07124311113127624
103														9.1764762349642	-3.351803530804858	0.826983543306306	0.22514147895084313	-0.2512955234862834	0.9413617128030977	0.769645518888654	-0.5465863709274085	-0.3299835062105677	0.5974588602660783	0.7988077985298841	0.07034920964302571
104														9.172094768970336	-3.4489251937692176	0.7600359713335629	0.2261060679278497	-0.2504435624491616	0.9413575665356813	0.7700358507568044	-0.5459098598659509	-0.33019269139455876	0.5965910111587762	0.799537645723396	0.0694169898197714
105														9.183671299166743	-3.471011577659783	0.7030290539195287	0.2271247088379062	-0.24953310172815235	0.9413541298455239	0.7708326102682759	-0.5446796007862231	-0.3303652818235544	0.5951734651194491	0.8006605795399745	0.06863805641493304
106														9.261739943613394	-3.3442052025224918	0.7466023108441324	0.22808530335940896	-0.24869474405368408	0.9413437303512039	0.771755698699102	-0.5432749612855099	-0.33052300671162	0.5936078132209078	0.8018748285862958	0.06801855160756859
107														9.260643938354036	-3.151289445599809	0.7810860004343221	0.22897387252655843	-0.24792665651604834	0.9413306213488257	0.7726281422923698	-0.5419414860491291	-0.3306738263556779	0.5921289719630636	0.803014195819499	0.06746467130528588
108														9.309869894236245	-2.9785042878936796	0.8228004510634046	0.22991245685966227	-0.24723357832592568	0.941284133473476	0.7733109693186464	-0.5408094263048884	-0.33093097339359656	0.590872580944665	0.803990498804517	0.06684961420871766
109														9.357381924631493	-2.9765457973203158	0.8255360551184635	0.2307380569752535	-0.2466641735399447	0.9412314989178497	0.7735453744610274	-0.540295008793969	-0.33122327382337635	0.5902435960798177	0.8045110869119098	0.06613930996452833
110														9.320094638506701	-3.1310456463457452	0.8256390137591283	0.23148964130065192	-0.2461508687647383	0.9411813299130306	0.7736059998851341	-0.5400321964839643	-0.33151015625833846	0.5898697338499564	0.8048446909603557	0.0654119294984637
111														9.31034963314027	-3.2311371344752167	0.7850142327532478	0.23215167982618928	-0.24565412995561725	0.9411480467969039	0.7735885439465449	-0.5399126516998405	-0.33174552477631297	0.5896323958438369	0.8050766280113932	0.06469359165529104
112														9.32697186002479	-3.3529778580537823	0.7478247862957729	0.23278665028229772	-0.24518370312890297	0.9411138757718667	0.7735758540209887	-0.53979004865749	-0.3319745493950429	0.5893986541603606	0.805302213513872	0.0640122752572741
113														9.338406018145387	-3.4263632146167513	0.7140904698707226	0.23345725001097756	-0.2447754750441017	0.9410540256724085	0.7736777895429298	-0.5394712355614083	-0.3322551188015218	0.5889994825000084	0.8056399647601785	0.06343387735225053
114														9.371471577433631	-3.3288326925575853	0.7476963839167182	0.2340202166153148	-0.2443757744409843	0.9410180758527915	0.773937656231922	-0.5389845212547191	-0.3324397541120203	0.5884343994716492	0.8060869473662196	0.06299833969438512
115														9.35919901950533	-3.2601258358624	0.7716966762603601	0.23469369654130878	-0.24402122255685543	0.9409423530406283	0.7742518427749991	-0.5383526642796491	-0.3327318632510601	0.5877524587471284	0.8066164217302185	0.06258590441820044
116														9.344944807646	-3.2358353067617145	0.6931785673482233	0.23529201965474156	-0.24377054357776978	0.940857899775833	0.7744719586512894	-0.5378483454861231	-0.33303504698556197	0.5872229991660989	0.8070285492729724	0.062242026868773725
117														9.311621997947286	-3.244524787646935	0.7339203757138759	0.23590609984353506	-0.2435589823536498	0.9407589139473866	0.774749085013377	-0.5372429698145593	-0.33336743490594184	0.5866107460041512	0.8074955191824205	0.06195820504796873
118														9.261003088231897	-3.278268718746528	0.7452019946313844	0.2365890800672643	-0.24333527686283013	0.9406452839551237	0.7750416693873317	-0.536585529323424	-0.33374598189940696	0.5859488185039917	0.8079999460116262	0.061644702440561416
119														9.282123912513388	-3.3053923968581436	0.7697257411282691	0.2372581973672544	-0.2430417628741548	0.9405526297241767	0.775487859540404	-0.5357458315925078	-0.33405835364004144	0.5850872819396126	0.808645228410009	0.06136584621954572
120														9.341662694436849	-3.299516376556546	0.7041270232482334	0.23799702254050314	-0.2427796511566137	0.9404336543563971	0.775952467805716	-0.5348327342409229	-0.3344423927832667	0.5841705101835197	0.8093281085991333	0.061096871141449516
121														9.34459088208916	-3.232786471152645	0.7821359522743876	0.2386332970119397	-0.2425499536834702	0.9403316805922033	0.7764078661292594	-0.533968810318042	-0.3347657912931735	0.5833052159631535	0.809967178085434	0.06089495426139635
122														9.351314541774189	-3.1139345365061253	0.8148465371775855	0.2392412901241454	-0.24236113341055676	0.9402258697311433	0.7768317664587149	-0.5331457748917079	-0.3350940007456909	0.582491211710844	0.810565644304686	0.06072334437892962
123														9.37365575878691	-2.9962894579153274	0.8990610125011923	0.23987897350137316	-0.24217858761431033	0.940110424244442	0.7769937690051987	-0.5326686386465254	-0.33547698032734347	0.5820126811324844	0.8109338154890291	0.060395247307896305
124														9.287787586910191	-3.029945863804905	0.829095795478213	0.2404807457956541	-0.24205730444069257	0.9399879107033622	0.7768324572082401	-0.5326372904988237	-0.33590005983607607	0.581979676904077	0.810990615319917	0.059948957736132624
125														9.263482547544388	-3.0863496870877416	0.8418248301690363	0.24107286869517447	-0.24189071078269936	0.9398791177678756	0.7764858269179071	-0.5328847929278508	-0.33630872433205755	0.5821972454200497	0.8108777229048054	0.05936064287071363
126														9.288836598856271	-3.1128659635656977	0.8393632227377927	0.24168768175680955	-0.2417485204055243	0.9397577971843377	0.7760124300376483	-0.533288258518306	-0.33676155028978055	0.5825734056014599	0.8106548502342117	0.0587106538684814
127														9.301419140386983	-3.212969580213841	0.8046155476913001	0.2422978995104928	-0.24160824970037026	0.939636728512422	0.7755175460310286	-0.5337224983451192	-0.337213330932002	0.5829787849405971	0.8104108516283379	0.05805159663796827
128														9.31332561964425	-3.262911459711469	0.7484087003987832	0.242888031252681	-0.24150692698296755	0.9395104089329933	0.7750586438179472	-0.5341020394820836	-0.3376671586994558	0.5833433833663337	0.8101909747956482	0.05745503844221378
129														9.320949193674029	-3.314361811381794	0.7170561907856806	0.2434218835143459	-0.2414625014985849	0.9393836527193641	0.7746984274535489	-0.5343515675439159	-0.33809872635719734	0.5835992915754159	0.8100396673209322	0.056987755169570664
130														9.269479938197227	-3.298563820527483	0.7059881286162158	0.24396148832852305	-0.24142738371224792	0.9392526873032581	0.7745148115634565	-0.534349320442636	-0.33852268817808556	0.5836176821184877	0.810051616958051	0.05662842909962962
131														9.292240017052087	-3.300463816145093	0.7073304713900729	0.24445627471607256	-0.24136991817149972	0.9391388035609133	0.7744401760545203	-0.534225948331321	-0.3388879606037143	0.583509677267296	0.8101501087646563	0.05633167673726558
132														9.295665515828688	-3.352796302766848	0.7026899644176527	0.24495605789140285	-0.2413627214986665	0.9390104186711992	0.7744478189627151	-0.5339673023736928	-0.33927790334717495	0.5832898982548878	0.8103227484567606	0.05612430781118105
133														9.265442860586365	-3.2597497229012733	0.6782618896444506	0.24532984897669985	-0.24139156533923278	0.938905414503583	0.7745505385804147	-0.5336263296155983	-0.3395797454586694	0.5829963365115253	0.810538742148739	0.05605550008768673
134														9.31181159708352	-3.208662641831321	0.6650438740668834	0.24569516933063584	-0.241437969902209	0.9387979497512178	0.7747219634113839	-0.533187208164142	-0.33987833184558547	0.5826145923126198	0.8108138551724603	0.056045776689880145
135														9.275839832485042	-3.142469394131253	0.6888583841492962	0.2460635180423849	-0.2415614930687086	0.9386696917206934	0.7748390804028542	-0.5327936354286383	-0.3402283667291644	0.5823033097699726	0.8110357495900855	0.05607020882593605
136														9.2747765397507	-3.145417990632349	0.6897173295559664	0.2463141019229605	-0.24172381700076379	0.9385621766768931	0.7749066791139798	-0.5325140012299434	-0.3405120807821951	0.5821073800068418	0.8111710268424643	0.056147692320461406
137														9.25213731705423	-3.1743704820161143	0.6848241817611181	0.2465918689645834	-0.2418141289730234	0.9384659701819623	0.774897732130156	-0.5323531778800435	-0.3407838005841237	0.5820016794650121	0.8112496662742221	0.05610725505554959
138														9.249475672036837	-3.2024853578840906	0.7078621254695221	0.2467734985357683	-0.2419219298517133	0.9383904412755062	0.7748769580745212	-0.5322510058674356	-0.34099056672916805	0.5819523522296248	0.8112845657412232	0.056114286277924474
139														9.285449098332865	-3.2478673438714494	0.6622870405711759	0.246957326890883	-0.24202895831056637	0.9383144792840036	0.7749165812286642	-0.5320636839524291	-0.3411928023212798	0.5818215970826347	0.8113755108197875	0.05615522780775156
140														9.317381722475579	-3.2944815134537753	0.641124457687714	0.24706672561748394	-0.24213317420346908	0.9382587910820805	0.7749853618607547	-0.5318743478299159	-0.3413317550742334	0.5816835239150322	0.8114685478012404	0.05624121207029664
141														9.3363344224312	-3.2451148843169766	0.6492052193621841	0.24712719099684916	-0.24224419294435928	0.9382142092586012	0.7751181019661109	-0.5316180291952359	-0.3414296399538659	0.5814809364669318	0.8116033649630272	0.05639058880904452
142														9.357546995097712	-3.219907462919367	0.6565635487806911	0.24719265016988	-0.2423817541854016	0.9381614354363531	0.7752708423462886	-0.5313214433013793	-0.341544499144423	0.5812494427607368	0.8117564962019992	0.056572751074933814
143														9.354843278507738	-3.1965631534307715	0.6598162090965416	0.24724249586615826	-0.24250460336051366	0.93811655224009	0.7754184780469477	-0.5310451167800453	-0.3416390900459494	0.5810312660616717	0.8119006104770639	0.056745630366954236
144														9.393075376560233	-3.2148748894421186	0.592961246730527	0.2472058956991543	-0.24264071905588203	0.9380910012294243	0.7754981961009241	-0.5309027657681906	-0.34167938355115735	0.5809404384063757	0.8119530372846269	0.056925146187583764
145														9.366947769338646	-3.2430411200582063	0.6137918355622883	0.24711801749703055	-0.24279166988808326	0.938075098518927	0.775563223645027	-0.5308016321721485	-0.3416889132130546	0.580891015215137	0.8119740342623897	0.057129643145991615
146														9.34505586227725	-3.2693969823621756	0.610529230610427	0.24702049843019552	-0.24290232468299022	0.9380721368950773	0.7756095180504108	-0.5307462667860523	-0.3416698344927131	0.5808706817054095	0.8119771308086623	0.057292147619242284
147														9.325227846601802	-3.2695300960064646	0.5844032323535857	0.24687414052011208	-0.2430318705870746	0.9380771123001582	0.775641144448926	-0.5307293868206204	-0.3416242570470793	0.5808906728295925	0.8119493998051579	0.057482157019614954
148														9.323403244044542	-3.294677360193657	0.609437501973189	0.24672833204035394	-0.24311177479500812	0.9380947687332054	0.7757054546969252	-0.5306846122778306	-0.3415477855951715	0.5808667469583894	0.811954744580971	0.05764820058274717
149														9.316861384800518	-3.22102479858555	0.6146573902952236	0.2465835375419555	-0.24315154900523822	0.9381225310318737	0.7757753034153196	-0.5306461744747325	-0.34144884847690027	0.5808349486938302	0.8119679560990605	0.0577823558203584
150														9.288930966885456	-3.2237243369172335	0.6359467770660976	0.24644160013323096	-0.24321027995703742	0.9381446036976353	0.7757806280783586	-0.5306895619201468	-0.3413693102306519	0.5808880742639853	0.8119220089344932	0.057893838926579566
151														9.241239452232707	-3.2268522430539583	0.6287856494890255	0.24625654711702505	-0.24324933231070395	0.9381830713311755	0.7757731204404512	-0.5307799346705562	-0.3412458447413034	0.5809765731973072	0.811851232235018	0.05799825958075977
152														9.24557838486818	-3.224654210423422	0.6057142059785928	0.2461712322978168	-0.24328347282715246	0.9381966085198422	0.7756984291627576	-0.5309152245720508	-0.34120517480255047	0.5811124429776086	0.8117525338222042	0.058018552634708676
153														9.261311102009863	-3.2252353559961127	0.6586181896152309	0.24604562770573868	-0.2433265885844137	0.9382183756326457	0.7756076069066268	-0.5310901747513699	-0.3411393650564746	0.5812868390007331	0.8116251582907165	0.058053537653659115
154														9.289467931652693	-3.2214907993577144	0.6394120478310157	0.24595324902868954	-0.24341822158521786	0.9382188277222544	0.7754068349487324	-0.5313839541504676	-0.3411382909997102	0.5815937066432378	0.8114053627328965	0.05805254276322336
155														9.23733126275668	-3.227223945895164	0.6548519801664958	0.245936546423486	-0.24345792593181165	0.9382129041077346	0.7751924536107326	-0.5316769663349772	-0.3411689659594017	0.581886479477106	0.8112014803794529	0.057967950040720806
156														9.252285719123972	-3.2974676077155634	0.6028025589586783	0.24595135954693642	-0.24348965074339424	0.9382007880607829	0.7749599031832358	-0.5319819915569085	-0.34122178874945214	0.5821898978814765	0.8109919547319848	0.05785302208831217
157														9.289267698861366	-3.391496482812312	0.577743815862852	0.24596685973384397	-0.2434845652601958	0.9381980443343103	0.7748163168222262	-0.5321759588341783	-0.3412454014707922	0.5823744320441195	0.8108662129593118	0.05775816463767569
158														9.289245493829943	-3.391606828060866	0.5774529667900494	0.24594078041579703	-0.24348484124610947	0.9382048095228595	0.7747429080773574	-0.5322912596441437	-0.34123223952359727	0.5824830975335744	0.8107904457933671	0.057726026174376166
159														9.31712813448059	-3.337668310066423	0.5365565235443001	0.24587163933209455	-0.24351517280073254	0.9382150593483235	0.7747335673967557	-0.532328229216012	-0.34119577360870385	0.5825247089358917	0.8107570641046395	0.05777496415905714
160														9.29576700545923	-3.244623560904513	0.6140368750938437	0.2457834380590685	-0.24351596721621804	0.9382379630384897	0.7747197265332281	-0.5323918372622389	-0.341127948044159	0.5825803351436992	0.8107150580366002	0.05780352737132577
161														9.304263358807033	-3.2410286733078433	0.566570493121816	0.2457131625902399	-0.24356417767019206	0.9382438558742318	0.7746020741086583	-0.532573540955966	-0.3411114924188121	0.5827663927479584	0.8105812203779876	0.05780498814172741
162														9.23476303397865	-3.271010374395795	0.5527947778051653	0.2455937868543293	-0.24363530761933272	0.9382566433230215	0.7743756418461447	-0.5329228236961308	-0.341080092205796	0.5831175328987475	0.8103302418551193	0.05778271334146884
163														9.21543863281902	-3.321231926843444	0.5461373161064488	0.245460305208403	-0.2436845085260944	0.938278795919099	0.7741260611522292	-0.53331898716349	-0.34102741733744124	0.5835049957043503	0.8100547624915897	0.057733887386535565
164														9.174094446317206	-3.3476710441997626	0.5122089727130742	0.2453708538669624	-0.2437393051361677	0.9382879596394362	0.7739043431898996	-0.5336518549009056	-0.3410099197276132	0.5838366309717198	0.8098190223084175	0.05768829554624494
165														9.220120384242605	-3.3693164014602965	0.5436500145089223	0.24528397755180414	-0.2437672037412315	0.9383034267956964	0.773781342402845	-0.5338560631026799	-0.34096940924041647	0.58403613287674	0.8096760180891418	0.057676175546705566
166														9.250630835232094	-3.389626356765604	0.5230941742040979	0.24519647655315585	-0.24378325079307095	0.9383221272668996	0.7737282235100097	-0.5339679345076832	-0.3409147709643019	0.5841432393086148	0.8095974132557247	0.05769492542396781
167														9.305186160878195	-3.4075995182097043	0.5072715875900558	0.2450359486373344	-0.24379105320496802	0.9383620336802927	0.7737225961318472	-0.5340537085620656	-0.34079316396620907	0.5842180484291775	0.8095384850322543	0.057764289498672905
168														9.329121218845364	-3.3543611427643025	0.49156984040789714	0.2448530596966229	-0.24383214394139352	0.9383990967270515	0.7738395897913419	-0.5339686852552841	-0.34066072922823304	0.5841397678884483	0.8095821939418426	0.05794309987861207
169														9.32304395120615	-3.3302682494352576	0.5189258120541562	0.2446359879837952	-0.24383028860187372	0.938456191701839	0.7740417464101665	-0.5337983247245428	-0.3404683881589752	0.583962848302434	0.8096950900688469	0.05814854186400603
170														9.28850816270999	-3.2595482225188834	0.544294281343174	0.2444189440011879	-0.24388019068498812	0.9384997775198447	0.7741024055263668	-0.5338052717823982	-0.3403195521500522	0.5839733260788855	0.8096754809235449	0.05831612143815751
171														9.321641258364938	-3.3029795193063465	0.5238221783962091	0.2442199783078896	-0.24386252161846228	0.9385561638736274	0.7741431237285799	-0.5338552259288379	-0.34014852892850567	0.5840025909009746	0.8096478668522228	0.058406382550150404
172														9.265864380261155	-3.3085162670434194	0.5643386492849535	0.24399992596962955	-0.2438505042617634	0.9386165179124534	0.7741544622393304	-0.5339543820566025	-0.33996703733962924	0.5840795362977104	0.809586097616452	0.058493126300584786
173														9.290371104657007	-3.304722866412111	0.5696683911504277	0.24378630861255685	-0.24382303013853168	0.9386791601538451	0.7741083361646636	-0.534135444205269	-0.3397875970720775	0.5842298516966073	0.8094749268616693	0.05853053193723451
174														9.275863136888404	-3.3518045613690193	0.5396376452273435	0.24355597431378617	-0.24376409806248478	0.9387542553149067	0.7740868193947835	-0.5343020400258593	-0.33957462517607573	0.5843544159286637	0.8093827243770327	0.05856212141548517
175														9.317923564992823	-3.3230324119243706	0.5739585299539195	0.2433706598218382	-0.24369506347960818	0.9388202373050727	0.7740072526420623	-0.5345299834704558	-0.33939721511609533	0.5845369918109289	0.8092529967857667	0.05853283179452334
176														9.290403748633814	-3.324811001788252	0.5940245939406243	0.2431644574804382	-0.24365148381931473	0.9388849775403222	0.7739766222385549	-0.5346912862609892	-0.33921293699499033	0.5846633517216916	0.8091595533819125	0.05856263590671401
177														9.262806744732508	-3.3268216237115817	0.6140449419213121	0.2430049308230186	-0.24355806866603225	0.9389505156201647	0.7739800309283188	-0.5348000457356116	-0.3390336602837354	0.5847251622086223	0.8091158002837795	0.058550033400847745
178														9.267459561489439	-3.324002028917268	0.5901938736768463	0.24289703673322582	-0.24352303703854272	0.9389875185420431	0.7739240484033959	-0.5349440380375938	-0.3389342760343551	0.5848440790921261	0.8090311530463824	0.05853201304692163
179														9.241920329637786	-3.351011514330587	0.6088894914242088	0.24279964103451346	-0.243485631495043	0.9390224073838563	0.7739172860383975	-0.5350155124143856	-0.3388368867861571	0.5848934678080054	0.8089951475326869	0.05853616475387985
180														9.289999886206472	-3.346262969757695	0.617875365224734	0.24277140414478793	-0.2434537825521274	0.9390379657344161	0.7739133693928488	-0.5350465128707158	-0.33879687976705963	0.5849103709155588	0.8089842302702502	0.058518143933954825
181														9.314029190585776	-3.3438648981861054	0.6226343727804077	0.24269936768843187	-0.24344678072691978	0.9390584017393879	0.7739281448500281	-0.5350645458097181	-0.3387346430857541	0.5849207155953946	0.8089744104550765	0.05855048843718008
182														9.278934826713163	-3.274534179418954	0.6468446838154522	0.24268744573188328	-0.24347313065543147	0.9390546514090529	0.7740339427921465	-0.5349146407647941	-0.33872965990759596	0.5847856522605345	0.8090656102840577	0.05863939943337526
183														9.272269289916137	-3.251978949432041	0.6732268486207015	0.24267743266899083	-0.24353126304960682	0.9390421649695239	0.7740780610104371	-0.5348376256933833	-0.3387504532911891	0.5847314076869047	0.8090990285868147	0.05871918599881348
184														9.278572553406118	-3.2751226203593693	0.6490584195321727	0.24271240692810103	-0.2436000413804713	0.9390152860111494	0.7741011044645529	-0.5347634639496268	-0.3388148722995429	0.5846863839614596	0.809127343169188	0.058777333607810955
185														9.280222833741776	-3.24985778422063	0.6271981726731796	0.24273682724524615	-0.2436540372251727	0.9389949642265317	0.7741551737760086	-0.5346569514425257	-0.33885942688675874	0.5846046524060079	0.809181471870222	0.0588451014715054
186														9.306581132548036	-3.322751023804298	0.6529290523691523	0.24274039794737418	-0.24373646058723702	0.9389726497533125	0.7741560350223278	-0.5346242285800125	-0.3389090846432642	0.5846020292839044	0.8091782696017195	0.058915153920771124
187														9.271561000470266	-3.372640206909825	0.5952105627202813	0.24268133048773882	-0.24383295599117938	0.9389628647637269	0.7742367768395435	-0.5345071421938086	-0.3389093216967085	0.5845196191932451	0.8092265470907463	0.05906953751107641
188														9.286521578856512	-3.323565681976783	0.628108696460518	0.24258680678701317	-0.24392164886972717	0.9389642540510021	0.7744211913339578	-0.5342669991134269	-0.33886662873648077	0.5843145211149341	0.8093583896340408	0.059291968623231106
189														9.32092114622149	-3.2233901122656166	0.6683087495062923	0.24245376941166213	-0.24402961755265917	0.9389705615487521	0.7746084463847257	-0.5340351142071125	-0.33880414930050284	0.5841214980528603	0.809478870972491	0.05954857648662232
190														9.288429068221058	-3.2281853162947596	0.7146583499890323	0.24234333381404716	-0.24417406509411377	0.9389615191749385	0.7747134515715879	-0.5338926885320082	-0.3387885256116281	0.5840280614062394	0.8095292601675861	0.05977959871553484
191														9.292628629097104	-3.2261988621700692	0.6933198551760574	0.24214502078151395	-0.24434467150392136	0.9389683010721719	0.7747085359336757	-0.533937110166218	-0.33872975472911837	0.5841168318600491	0.8094484813099527	0.06000569008677753
192														9.259805453783844	-3.1808405320887942	0.7174921619827563	0.24203426970564118	-0.24446017024155986	0.9389667925190563	0.7747030050763188	-0.5339584692285047	-0.33870873485175024	0.5841700661740366	0.8093995171141503	0.060147780354741665
193														9.28364466829928	-3.1787416121049117	0.7231762040631801	0.2419396381553367	-0.24455134052545524	0.9389674399767376	0.7745903914137128	-0.5341288608262642	-0.3386976314679351	0.5843585688760085	0.8092595392577344	0.060200175261731936
194														9.266527697511522	-3.2537934363463323	0.7160343221196421	0.24187336129852877	-0.24464842288523536	0.9389592250326522	0.7744614152575017	-0.5343055097851048	-0.33871394788320597	0.5845569205573562	0.8091135713810804	0.06023649421616778
195														9.275411739244891	-3.3007042883464015	0.6900801615309528	0.24181390298107314	-0.24466486089149514	0.9389702562754614	0.7743344566737858	-0.5345049454177595	-0.3386895518489921	0.5847496776679515	0.8089768656574201	0.060201705111429415
196														9.205674459182873	-3.2806936833453757	0.6547265045578723	0.24171560991383728	-0.24473232360524516	0.938977983611309	0.7743177948465061	-0.5345527046996317	-0.3386522677944929	0.5848123771843634	0.8089249011379773	0.06029086009411205
197														9.259725648208619	-3.1800366861328273	0.722070722762403	0.24157416813594268	-0.24479097294195457	0.9389990952368166	0.7743569543962217	-0.5345479406211401	-0.338570238437916	0.5848189706803606	0.8089103032746158	0.060422618186686594
198														9.259862829916605	-3.179361374396384	0.7232841727118274	0.24146695288897035	-0.24481402127448743	0.9390206630580245	0.7743245645453425	-0.534637885902018	-0.33850228906151864	0.5849061287114223	0.8088438823071094	0.06046812921020028
199														9.3187585262965	-3.1956578497196766	0.6838639354176057	0.2413461474474854	-0.2448417075011226	0.9390445012778634	0.7743122854786695	-0.5347050938671355	-0.33842421182494764	0.5849722400841393	0.8087910736775428	0.06053492769031499
200														9.233966723898	-3.155780111445503	0.7216866519770779	0.24125484897029081	-0.24483705355162988	0.9390691747983626	0.7742637784732019	-0.534819309690211	-0.338354706376143	0.5850740971814783	0.8087169611122558	0.0605407104074237
201														9.227975499269604	-3.1824436087836356	0.7684998778605826	0.24115383567268206	-0.2447650833973014	0.939113881001588	0.7741876818050246	-0.5350006909123342	-0.3382420643040819	0.5852164222590772	0.8086187696763146	0.060476643801125884
202														9.252278082550943	-3.1793742997436483	0.7724704325649995	0.24103466131018197	-0.24469554909348656	0.9391625952415924	0.7740423225901074	-0.5352857955925318	-0.3381236458400724	0.5854577481649706	0.8084511149665808	0.06038228070298679
203														9.228432083806274	-3.1301603521569303	0.7459014623748439	0.2408546100328523	-0.24463915850577894	0.9392234765759999	0.7738319682438288	-0.5356858862320957	-0.33797147248786696	0.5858098170479951	0.8082031387079115	0.060287186307506624
204														9.222652621865336	-3.1564359070774923	0.7919372868022664	0.24067762425563188	-0.24459169375149742	0.9392812063117408	0.7735516580444532	-0.5361772606946636	-0.33783394952349677	0.5862526021429182	0.8078916068766533	0.06015844096148776
205														9.25370940156335	-3.175731598765016	0.7703067059879802	0.24050516454928322	-0.24455988095422504	0.9393336630041413	0.7732236826485135	-0.5367257842615192	-0.3377137383944102	0.5867558286174865	0.8075369323668811	0.060014168717848204
206														9.28243522788577	-3.1707233128573526	0.7499171995270593	0.2403181568252627	-0.2445222161352557	0.9393913291682071	0.7729250713261334	-0.5372424990908911	-0.33757566749702905	0.5872256956363534	0.8072046723024319	0.059888224197445994
207														9.313452345456314	-3.190096227469388	0.7283717142276039	0.24013004900131857	-0.24450737413364143	0.9394432944892928	0.7726162935437242	-0.5377648573914517	-0.3374507684174236	0.5877087905735139	0.8068612657384312	0.059776879590646315
208														9.329662625400822	-3.2580363637341017	0.6761689632717004	0.23984800810494872	-0.24448090257827876	0.9395222303291177	0.7723371400139021	-0.5382963233951885	-0.3372423614766833	0.5881906792556608	0.8065148210006645	0.05971238014877195
209														9.30265199388963	-3.3096408988817925	0.7175382673749896	0.23946708707127856	-0.24447999588066582	0.9396196282665593	0.7721843332005198	-0.5386933843645569	-0.33695814755178305	0.5885464040916962	0.8062499421742926	0.059784287021628635
210														9.2534063876372	-3.286606444831891	0.7112911779339254	0.23905764022891135	-0.24446301588113378	0.9397283003690404	0.7721403052875226	-0.5389607426079377	-0.3366313515969539	0.5887705780681267	0.8060763932741122	0.059917064410091814
211														9.249787996539368	-3.2345073237801314	0.7156036056915606	0.23860744993462557	-0.24439120965990685	0.9398613841820838	0.7721702109813202	-0.5391661134781813	-0.33623364993690946	0.588913958154125	0.8059608171107329	0.06006256049687858
212														9.289323679003607	-3.129229258266242	0.7313854722652925	0.2381342776382644	-0.24431480645813736	0.940001245296529	0.7721528392966119	-0.5394486335619826	-0.3358201371482817	0.5891282191339022	0.8057949162742546	0.060187160812621376
213														9.3101892984731	-3.1246480107174524	0.7613175841277934	0.23761021992371056	-0.24420052513720814	0.9401635426405971	0.7721467419407062	-0.5397535656724776	-0.3353438492863692	0.5893477685527947	0.805625342120367	0.06030767642086038
214														9.261293987379693	-3.100413617597181	0.7548590219111982	0.23708495933901574	-0.24412762335727756	0.940315067181817	0.7719592039862013	-0.5402915252567199	-0.3349090251348241	0.5898048062166061	0.8052867633642657	0.0603615715012229
215														9.222153285139884	-3.1731642360423877	0.7425324250172518	0.23659848126781652	-0.24396522233179457	0.9404797334096898	0.7718055685293921	-0.5407952446133296	-0.334449798610541	0.5902010869600166	0.8049978097462176	0.06034238357081906
216														9.180747502542658	-3.2215311336492047	0.7310026328146765	0.23610063614597726	-0.24379958215550157	0.9406477838980261	0.7716206085161154	-0.5413473778688571	-0.3339830130227174	0.5906421303333218	0.8046768172473441	0.06030832164800887
217														9.194004741702212	-3.28802513912756	0.7032051735474812	0.23561830705086284	-0.24361853019210922	0.940815616967279	0.771532350833682	-0.5417648350066007	-0.3335096627795411	0.5909499513491288	0.8044506667890252	0.060309864061819096
218														9.212790029283136	-3.2585674815599175	0.733258242235226	0.2351886355940805	-0.24332278152193865	0.9409996438255553	0.7716295316506329	-0.5419444503582971	-0.3329926104442389	0.5909942229599373	0.8044191921618171	0.06029586809815107
219														9.264252607822073	-3.22294651345367	0.7201528552144665	0.23465633035320654	-0.2430527996399977	0.9412022860216211	0.7717474403000989	-0.5421355383005213	-0.33240780150569393	0.5910518547601484	0.8043720499238911	0.06035984000828054
220														9.291836586117311	-3.189206615307069	0.703076272544738	0.2341487879889123	-0.24278640957331543	0.9413974210766787	0.7719284562726314	-0.5422268928325717	-0.33183799524118185	0.5910167539756173	0.8043909223851502	0.060451968574163684
221														9.264755984597228	-3.137277552384233	0.7027685347959319	0.23357610910689353	-0.24256459477192577	0.9415968450550465	0.7721048567206608	-0.5423393878011724	-0.3312432318822811	0.5910129368151376	0.8043820024109081	0.06060777767387032
222														9.237644951491722	-3.085304439423688	0.7024140265084409	0.23299242192132608	-0.24234280140945702	0.941798544239824	0.772139211682833	-0.5426497063691456	-0.3306544026008027	0.591198417715278	0.8042395555942874	0.060689110295463755
223														9.250816155066008	-3.1000258695630913	0.6539346536132029	0.23233385855397287	-0.24210342498727505	0.9420227756157773	0.7719972390649632	-0.5432406880668428	-0.33001487497495763	0.5916428323283365	0.8039126111948325	0.060689970476263067
224														9.274257627588877	-3.0671550728124637	0.66008096606543	0.2316238202789248	-0.24186024391211042	0.942260064045044	0.771763653871711	-0.5439802802037489	-0.3293422495095891	0.592225690460978	0.8034855799354615	0.0606601549107213
225														9.274650192631997	-3.086662156611284	0.6824502762075179	0.2308991257864363	-0.24161195563654997	0.9425015950143225	0.7713841174331606	-0.5449242846347756	-0.3286701498267567	0.5930026450893151	0.8029204113165641	0.06055308421803118
226														9.270338252026283	-3.2017625974764496	0.6460290035738179	0.23016294237315715	-0.24135817779031782	0.9427466520608115	0.7708737042222014	-0.5460497007573464	-0.3279991714037634	0.5939518095745425	0.802231858203444	0.06037626674925006
227														9.2585538674701	-3.2437201672238527	0.6131868983498279	0.22939549280167093	-0.2410115621677596	0.9430223405538888	0.7704442733925849	-0.5471092925568617	-0.32724156764461054	0.5948052870300081	0.8016139026360423	0.06018157211109654
228														9.255182791862028	-3.2642662777032916	0.657910407842988	0.2286517348309195	-0.24060106997526187	0.9433077489799231	0.7701010995491155	-0.5480606376037114	-0.3264564809934953	0.5955356249898522	0.8010871754285998	0.0599721329600143
229														9.24293084034389	-3.254930297716962	0.6037448606272433	0.2279391672251626	-0.24013856354312318	0.943598010989926	0.7698549737134899	-0.5488823135764767	-0.32565553164584216	0.5961267109376169	0.8006632726323718	0.05976009006284366
230														9.224643013072026	-3.1802609328887756	0.6784854823746344	0.22725006556439148	-0.23967261435059678	0.9438826439930601	0.7697005978069744	-0.5495689184237802	-0.3248614991624933	0.596588968584373	0.8003318323251091	0.05958658179965903
231														9.245906847657222	-3.1216986212913955	0.6842776592914099	0.22659683567866495	-0.23911850750376673	0.944180180595625	0.7695715495922981	-0.5502334053925912	-0.32404140113291285	0.597003772281654	0.80004096080091	0.05933765180921402
232														9.32466694954904	-3.1047296967382514	0.6717023710720278	0.22596729143962574	-0.23855977459391975	0.9444723485338984	0.7693935483340969	-0.5509522561091479	-0.3232416731643798	0.5974716319469127	0.7997129769073016	0.05904916243906316
233														9.366468011998245	-3.095978832578885	0.7263656404339971	0.22527028217732048	-0.2380181573081227	0.9447754530889315	0.7692040693183168	-0.5517094255625019	-0.32240007675190785	0.5979785946937334	0.7993522793719549	0.05880079719670306
234														9.321559035839243	-3.092954443005744	0.7145550035578078	0.22462329730856972	-0.2374644023513579	0.9450687974545229	0.7688522993514637	-0.5526624010581378	-0.3216059891211932	0.5986739647656252	0.7988585156788192	0.05843420093781254
235														9.360984589734318	-3.15323334717476	0.6871521687146437	0.22398584915269198	-0.2368993275608583	0.9453618608662832	0.7684738961428693	-0.5536476841509882	-0.3208147639701874	0.5993982068094189	0.7983438798133683	0.05804170257833807
236														9.411670978170022	-3.1401950853480973	0.6928896913530308	0.22326047683809214	-0.2363531924516879	0.9456700946418488	0.7680242636907522	-0.5547579870481008	-0.3199723522253405	0.600244525059834	0.7977347580645052	0.0576694538855671
237														9.429159424252703	-3.175753295386363	0.6384529085968136	0.22246596191408513	-0.23579084435277642	0.94599766041415	0.767530635565968	-0.5559595054115435	-0.3190701361930526	0.6011702082250434	0.7970644303078369	0.05729463047006461
238														9.478661353630978	-3.1879182795565977	0.6666850216411422	0.22159769785669875	-0.23524762873061705	0.9463366279930373	0.7670147709829633	-0.5572126626600498	-0.31812323031374057	0.6021484878321649	0.7963495474651309	0.05696136281303116
239														9.534085673006054	-3.1712653184091	0.6488973804086979	0.22070644474823103	-0.23470558836337513	0.9466794346755388	0.7664751390996725	-0.5585023504433347	-0.31716081991855205	0.60316210622745	0.7956056883533904	0.05663093033840938
240														9.559822410472384	-3.185581562962328	0.6731792587888371	0.21975439754723397	-0.2342470490518075	0.9470144269065663	0.7659271007797553	-0.5597970780306993	-0.316200739593394	0.6042049991929648	0.794830517430484	0.056398293515125764
241														9.558323634240473	-3.2199021833703556	0.5917766008156561	0.21871380572201687	-0.23380932477267197	0.9473634312321433	0.7654477791803893	-0.5610283647837732	-0.3151775233988876	0.6051892006095305	0.7940909101339679	0.056264179619049115
242														9.551538402040078	-3.241058332178074	0.6613241923354707	0.2176307293990155	-0.23352429882238535	0.9476831049885639	0.7649516400837969	-0.5622445360989541	-0.3142134146722273	0.6062061150750309	0.7933142400627793	0.05627310689177584
243														9.53368027448187	-3.2994741657235624	0.5521882407285242	0.21643897934511447	-0.23327307485595705	0.9480178483379371	0.7646185313098024	-0.5632786902352989	-0.3131702711057467	0.6070524440257907	0.7926542686909932	0.05644945108910249
244														9.540335827969555	-3.27173616178201	0.6570861774653508	0.21519546948128027	-0.23313072497423765	0.9483358977639295	0.7644013476683924	-0.564143843775894	-0.31214147948086823	0.6077676279611123	0.7920806705145292	0.056804241036889136
245														9.55996728452452	-3.2369318693969413	0.6915437680947607	0.21388358898289506	-0.23302580725747346	0.9486584124519213	0.7641590146495061	-0.5650549419733082	-0.31108505730979386	0.6085349708058629	0.7914618662345929	0.05721279230000398
246														9.661028565857498	-3.162721843452571	0.671343789986454	0.21256680623724727	-0.2329977475141246	0.9489612228850243	0.7640879859030761	-0.5657166019251142	-0.31005527911145514	0.6090853000070492	0.7909973299320586	0.05777820831141128
247														9.729122350197494	-3.096081842501702	0.6955784117745334	0.21118442580879693	-0.23306274237744784	0.9492538629952009	0.763951262129985	-0.5664577993632912	-0.3090372641454423	0.6097373265479252	0.7904475438990245	0.05842151109127547
248														9.679721964213213	-3.093930751109845	0.7174907548961182	0.20974654509986346	-0.2332538204886832	0.9495256931995596	0.7637715392078734	-0.5672336679175951	-0.30805681598819956	0.61045837099241	0.7898345530604398	0.05917732739071968
249														9.662848367785974	-3.084649426054249	0.6971744669122402	0.20831814768644136	-0.2335124916086012	0.949776534563385	0.7636052454949582	-0.5679628698676824	-0.30712409137716723	0.6111551181141123	0.7892338656661971	0.05999439047541438
250														9.55575465762146	-3.017281630545338	0.7160422041302911	0.2069784468728882	-0.2338814771389519	0.9499786193285559	0.7632524625640927	-0.5688567404839463	-0.3063456988368349	0.6120503254798052	0.7884804775371945	0.0607695287358917
251														9.508720898093141	-3.0417781063354448	0.7362959652661872	0.20568823452383372	-0.23420767651408853	0.95017846452145	0.7629198404827175	-0.5697143608208892	-0.30557955440812856	0.6128993940087503	0.7877641216356059	0.06149814214583321
252														9.439049135291917	-3.0431788415492527	0.7295867172554672	0.20444495085454434	-0.23465374008847106	0.9503367215532476	0.7624995720651407	-0.5706232429201035	-0.30493198789208975	0.6138376533502649	0.786973148780717	0.06226233554568267
253														9.369046761015706	-3.0457604878421773	0.722828551285324	0.20329185168923197	-0.23512644647268316	0.9504672415217118	0.7621128197388609	-0.5714403002709356	-0.30436825264134537	0.6147003115555142	0.7862388551804036	0.06302372234454567
254														9.325826113631988	-3.0705119769216576	0.7189513856532598	0.2022160036402259	-0.23564494605088449	0.9505683285658382	0.7617831608690799	-0.5721354467437493	-0.3038872264436978	0.6154633244053531	0.7855778064456795	0.06381540826403037
255														9.248719158248981	-3.0266375926241063	0.7167442525962697	0.2012442192691586	-0.2362241462293379	0.9506307994952443	0.7617055177615144	-0.5724454897519948	-0.30349771905940615	0.6158778031577452	0.7851778868516479	0.06473188995209816
256														9.209500505126925	-3.0506775532302957	0.6902248905325643	0.2003630622375383	-0.236873681626036	0.9506553014861506	0.7616224550452979	-0.5727023341218048	-0.3032214907657602	0.6162677009722072	0.784794811045769	0.06565992152040911
257														9.19704910291527	-3.0969054069239723	0.6672716042862523	0.1995776491780895	-0.23756320352969323	0.9506484556749973	0.7618160195539385	-0.5725548900360016	-0.30301361396289744	0.6162833068480283	0.7846939672410973	0.06671029512666826
258														9.232864614691879	-3.044184434649019	0.7158658658376114	0.1989796461993985	-0.23824780438596777	0.9506024847977353	0.7623534352550836	-0.5718948511196636	-0.30290843338803175	0.6158119357020747	0.7849676827539361	0.06783359697657532
259														9.291470546093711	-2.911939708879436	0.7286951168253903	0.19854927232263553	-0.2389594012851991	0.950513856289098	0.7632650193165321	-0.5706797077700296	-0.3029045747875866	0.6148208655762155	0.785635459788402	0.06908131133078066
260														9.31795587302524	-2.7620079473614543	0.7624068206099409	0.19824128670218655	-0.23970783810494511	0.9503896803931088	0.7641677420340169	-0.5694117537495543	-0.30301471371286515	0.6137980565962181	0.7863271628545658	0.0702960786658513
261														9.32561819734447	-2.690765744335087	0.8083487012862721	0.19815162047451956	-0.24038207848494614	0.9502380710361901	0.7652843295672411	-0.5678004898695167	-0.3032202147330473	0.6124343476831949	0.7872858820321843	0.07145005059946113
262														9.358306805295586	-2.5909190744389057	0.8359295963394273	0.19816869612146115	-0.24103766373744273	0.9500684251871103	0.7661681083731005	-0.5664464610043846	-0.30352073492200426	0.6113228260007189	0.7880604364359399	0.07242341427253296
263														9.410424817572052	-2.559309225382963	0.8087481371462801	0.19825499132900298	-0.24162874225681463	0.9499002628321179	0.7669538811461429	-0.5652076613282478	-0.30384542743098925	0.6103086945210635	0.7887685658615222	0.07326286167460722
264														9.48480407320292	-2.5517311979626918	0.8076742826318098	0.1983161023615449	-0.24223484821513375	0.9497331213842739	0.7675076982607614	-0.5642719589211094	-0.3041859455757311	0.6095922052114782	0.7892524530753925	0.07401289522699411
265														9.510111953658779	-2.4994440690288573	0.7751333022793028	0.19842963507682315	-0.24280115701955368	0.9495647835051826	0.767845936861957	-0.5636051323028496	-0.3045683373012869	0.6091291301258395	0.7895548448283076	0.07459792115256725
266														9.46776819678819	-2.5572931028575536	0.7664050980704564	0.19859361084737004	-0.24329095627149633	0.9494051233941727	0.7679521957401324	-0.5632419113226282	-0.30497208788271424	0.6089417072171299	0.789663257297776	0.07497957912227726
267														9.46329116486485	-2.6143599669135917	0.8128460175080243	0.19890695037608613	-0.24355663889886803	0.9492713988846242	0.7678618041177617	-0.563143101719521	-0.30538188676267836	0.6089534258620286	0.7896518287409988	0.07500476316138305
268														9.459770998152175	-2.731426046025481	0.6502239411940911	0.19938912654550728	-0.24375023985355193	0.9491205385970509	0.7674118341680621	-0.563462714449552	-0.30592294161104305	0.6093628254121108	0.7893640414893998	0.07470848016986253
269														9.387010973023106	-2.8231177807000356	0.6745986460481963	0.20012043704304538	-0.243921968190921	0.9489224858288312	0.7671378950388392	-0.5634564192445831	-0.3066207977412033	0.6094680144790863	0.789315486384209	0.07436264035777834
270														9.356834181579861	-2.903929152439601	0.6074190857002465	0.2010382553209198	-0.24403132436613117	0.9487003386874242	0.7667119434774246	-0.5635879865698306	-0.30744329090620204	0.6097019071862837	0.7891877432666304	0.07379898543429747
271														9.283606460185457	-3.0656479085159063	0.5472431222649576	0.20215619799994466	-0.24397333648749314	0.9484776658906457	0.7666175615736275	-0.563259211293332	-0.30828002721570974	0.6094508888311776	0.7894403536533801	0.07316790366351666
272														9.333617862015112	-2.9205616338945175	0.5665340357046248	0.20332722650990231	-0.2437718275410688	0.9482791440588989	0.7666329982430611	-0.5628108073181564	-0.3090596077955507	0.6090417760422067	0.7898223162605449	0.0724487665332002
273														9.40783693250783	-2.772242952118344	0.5906980096155828	0.2044400211077465	-0.24357923352729938	0.9480893601152365	0.76672726627816	-0.5622800701217703	-0.3097909325488365	0.6085503897912521	0.7902596280578374	0.0718062904403558
274														9.425478066962526	-2.633421973834956	0.65281161230855	0.20540629155781365	-0.24341468550159323	0.9479227533246724	0.7666896025016119	-0.5619721895274619	-0.31044212280815164	0.6082723968785593	0.7905292841380841	0.07119088506081056
275														9.468184144955305	-2.7552510677755064	0.6190076111805094	0.2063097511206597	-0.2431626144959722	0.9477912373007121	0.766554054351716	-0.5618460294554599	-0.3110046960129078	0.6081374584331064	0.7906965170636695	0.07048297350356403
276														9.560282311037156	-2.8439785797207304	0.5726457768265427	0.20707760580946144	-0.2428015070482729	0.9477163570115846	0.766501145137906	-0.5617055028037184	-0.31138870021614645	0.6079431385207835	0.7909072994321837	0.06979100250311682
277														9.634091667363993	-2.8631302454620617	0.579758228435656	0.20774994382814566	-0.24231912585485615	0.9476926728029191	0.7668435683755607	-0.5611304294746682	-0.3115823851866649	0.607281567710102	0.7914632539559324	0.06924604795255884
278														9.60042694986538	-2.6078947584605143	0.7176447817252541	0.20834075640432137	-0.241828819733936	0.9476882141120921	0.7672158089558452	-0.5605526462356707	-0.31170600457228126	0.6066086314165857	0.7920224445962869	0.06874893123982528
279														9.43332906424639	-2.5086882744130694	0.7383611994933814	0.2089365868530687	-0.24122271922784788	0.9477115080036296	0.7673925929238584	-0.5602650057037087	-0.31178795953246996	0.6061799328580484	0.792410703557282	0.06805266995545411
280														9.329307992061803	-2.5246582782182165	0.7588904109701121	0.20947541306059764	-0.24058996981663683	0.9477534055579657	0.7671881518003526	-0.5605086909730116	-0.3118530857324976	0.6062527451981157	0.7924307375205427	0.06716498471970167
281														9.191784169274312	-2.616007760647302	0.7387776898036088	0.21001273487186933	-0.2398543426295937	0.9478209459140284	0.7665946441442383	-0.5612950507421935	-0.31189824876341843	0.6068173553557997	0.792097064969972	0.06599194575817086
282														9.055029007468491	-2.826434497294235	0.6554627926390225	0.2106260399931994	-0.23911016080280545	0.9478728829741048	0.7657999613530806	-0.5623130707176035	-0.31201671380193896	0.6076076780854607	0.7915998619889959	0.06467277658025256
283														9.053097033354025	-2.9994932246129347	0.6252939761296126	0.21138124841090106	-0.2382471948838456	0.9479220653356624	0.765047557269396	-0.5632529585522057	-0.31216716643221354	0.6082928595145425	0.7911917459201442	0.06320932092227305
284														9.098764197063538	-3.0898665197480724	0.5615037686546964	0.21215639591416618	-0.2372899961081335	0.9479889880266081	0.764495450115927	-0.5639540822652251	-0.31225390285540533	0.6087169871333944	0.7909799307462791	0.06176065682822279
285														9.169214977801273	-3.031821661089393	0.5425701527529705	0.2129285883111579	-0.23627475764833844	0.9480694358421414	0.7642675534106897	-0.5642541128882159	-0.3122697598109223	0.6087335402977693	0.7910698673233303	0.060431299254546766
286														9.314044973118897	-2.9123855058879853	0.49485817237586904	0.21365477677244826	-0.2353111135000968	0.9481457252056034	0.7641102827409834	-0.5644650439863166	-0.31227342174290146	0.6086765250704265	0.7912066063809566	0.059202988499907905
287														9.424717074315545	-2.9038743300467877	0.5554076867322774	0.21429016274640755	-0.23442128698698128	0.9482227514447676	0.7640600934051386	-0.5645512742688047	-0.31224034394549305	0.6085161458957757	0.7914091981578406	0.058134165989671804
288														9.485010280415162	-2.917554887939458	0.5051451896212857	0.21488485048240225	-0.23356314322450183	0.9482999310135196	0.7639925113836017	-0.5646670273991479	-0.31219639766977936	0.6083912750713414	0.7915803220743304	0.05710210260372656
289														9.575136945411156	-2.9352829092339183	0.5604549864872894	0.21538849254029285	-0.2327102937488199	0.9483953376438324	0.7641092781162689	-0.5645799538646119	-0.3120680803780924	0.608066450626784	0.7918935502184439	0.05621206938526885
290														9.541570357149586	-2.8911654032963674	0.5750570746415598	0.2158874098095223	-0.23195550755520689	0.9484667989974883	0.7642178356601957	-0.5644729771873895	-0.3119957654905769	0.6077530139329476	0.7921912020087141	0.055401927000847284
291														9.460374562827077	-2.852221488509268	0.5811272720093092	0.2163420294208765	-0.23117548070821542	0.9485536481535364	0.7644408810314591	-0.5642435887289812	-0.31186425249792205	0.6073106830230339	0.7925825317893189	0.054650385072113006
292														9.419668618303435	-2.904546080917597	0.5602478322885426	0.21681471265750873	-0.23034197825148278	0.9486484878132866	0.7645146753777401	-0.564218368797982	-0.31172895830033637	0.6070491672898584	0.7928431152290707	0.05376897922177615
293														9.373384116137082	-2.9856896622223466	0.58443698140488	0.21734758371753748	-0.22944359840461104	0.9487442558473236	0.7645769803721569	-0.5642033713189598	-0.31160326839960206	0.6067800828448002	0.7931142357463165	0.05279905415245484
294														9.367100652175578	-2.96235456615658	0.6007450307499108	0.21783126489469407	-0.228510715565104	0.9488584683219631	0.7645381916746341	-0.564352756714358	-0.31142787200214594	0.6066554982073912	0.7932772648077271	0.05177149441452511
295														9.378685224711452	-3.00654313285649	0.5629199993362062	0.21831712535089132	-0.22753815142118605	0.9489805174113706	0.7644465919541623	-0.564583169589353	-0.3112350440842201	0.6065962749870706	0.7933928624989447	0.0506825897872335
296														9.403724690849682	-3.0021773812514754	0.5565191466027557	0.2188168084967137	-0.22655418770139507	0.9491008399291796	0.7642006859508093	-0.5650131125984024	-0.3110586667884023	0.606726063319869	0.7933683776322489	0.049498499588857714
297														9.407863142491097	-3.025064726653796	0.5429399545364038	0.21940892109819043	-0.22555438166044905	0.9492022683581731	0.7639862949605951	-0.5653673571537632	-0.31094162245886714	0.6067822232522238	0.7934008900793738	0.04827381449965196
298														9.40984186320612	-2.9980650734345855	0.5091539513672638	0.2200426287390147	-0.22467283100601493	0.9492646419968287	0.76365441278246	-0.5658186212402198	-0.310936047597723	0.6069704930023376	0.7933293180423624	0.047068182022888316
299														9.393619746321711	-3.008027443286531	0.5931672060936323	0.22069346116610383	-0.22379711422548887	0.9493204136975406	0.7633027686421281	-0.5662863984938217	-0.31094790281357276	0.6071764814135903	0.7932430690180915	0.04584925160754516
300														9.36808160185263	-3.0790260593701655	0.4950084916901211	0.22135244625281436	-0.22302911273554948	0.9493477283958124	0.7628302776663701	-0.5668730998337353	-0.3110383515908308	0.6075302971978799	0.7930402912571883	0.04465461263263015
301														9.347759325565264	-2.9887204091228785	0.5396146212378056	0.22206670920027777	-0.2223036559746695	0.9493510737368213	0.762467423706287	-0.567278909538687	-0.31118815301887054	0.6077251059909053	0.7929537964679243	0.04352553521151664
302														9.37053260581462	-3.014744281712397	0.5547090405879309	0.2228247814049089	-0.22162959584836023	0.9493310481786362	0.7618797843651279	-0.5679420941830244	-0.3114176806649679	0.6081844382813505	0.792667710897255	0.04230353570690054
303														9.352545902401081	-3.0682985321915397	0.5347084487725362	0.22362029884754414	-0.2209983588745501	0.9492911499208716	0.7612994531426719	-0.5685651283167847	-0.31169991579528356	0.6086190143168417	0.7923972616288333	0.04110322584813125
304														9.368322437967194	-3.1655056880012857	0.4910312580357195	0.2244571509686787	-0.22041282232358494	0.9492297799449703	0.7606667521693375	-0.5692230149613623	-0.3120436690311941	0.6091018630107583	0.7920879667017102	0.0398945294893297
305														9.377684513769541	-3.215126663798933	0.4514205832829366	0.22540567763536673	-0.2198233643572628	0.9491417012082002	0.7602263404194803	-0.5695838345764876	-0.3124582639674455	0.6093013965371707	0.7919923887713818	0.03872808162115604
306														9.394732718314312	-3.168216506489852	0.44906903511792623	0.22626643161305465	-0.21926591067741102	0.9490658366730415	0.7598439336046874	-0.5698959558040815	-0.3128191108649018	0.609459349332874	0.7919223825432374	0.037659547764037404
307														9.417768861828103	-3.1696006573915847	0.44319891637438014	0.22724531712955975	-0.21868610149407985	0.9489657290208147	0.75967162660807	-0.5698915028358381	-0.31324542250790915	0.6093099257104995	0.7920858943377482	0.03662445114721369
308														9.49641515548622	-3.1611730918535246	0.3984765746301716	0.22817877728158842	-0.2182146365910818	0.9488502610927089	0.7594236525253917	-0.5699687308632904	-0.3137058523889592	0.6092701876698653	0.7921603488028875	0.03566258825737606
309														9.489279653850684	-3.117653087544289	0.3937584524291702	0.22910596452068044	-0.2177861053499705	0.9487252865490314	0.7592451630321682	-0.5699436733318262	-0.3141830543509347	0.609144678572592	0.7922962965617835	0.03477555206143168
310														9.514851027465932	-3.1441857272530354	0.3876162777640472	0.22997512551609073	-0.2174553691047595	0.9485908517856216	0.7589806594625618	-0.5700226272964815	-0.31467850726065116	0.6091467805099469	0.7923303394528886	0.033953394187285046
311														9.51744839332802	-3.146564151129998	0.35633735351063134	0.23076197605845622	-0.21720879634787993	0.9484562452716004	0.7587505594050251	-0.5700639840840985	-0.3151581232535926	0.609135862520143	0.7923682179638899	0.0332582042896431
312														9.459472628402922	-3.084076893365071	0.3478967129881728	0.2314625638368985	-0.21706433190139496	0.9483185948605304	0.7583609545097707	-0.5703156985907178	-0.3156400903180885	0.6093551872406431	0.7922266593325313	0.032606380138528124
313														9.40634800497905	-3.096499635277624	0.3577480100465654	0.23212250484543856	-0.2169863237875691	0.9481751304655888	0.7579795465881968	-0.5705516786157949	-0.31612938645853716	0.6095786657177495	0.7920781005165184	0.032033310536273285
314														9.386823421831284	-3.15210033559661	0.3439182739284902	0.2327008988319602	-0.2169962387798034	0.9480310775698316	0.7573865510301141	-0.5710677691209028	-0.3166184065874622	0.6100949958830232	0.7917033759096228	0.03146204970754585
315														9.413225381314884	-3.1517902411726078	0.3192255919879037	0.23324022038653758	-0.21700990054972213	0.9478954070241297	0.7569511040590239	-0.5713942095021856	-0.3170704707335555	0.6104293781084471	0.79146406135135	0.03099377246096996
316														9.426029859732981	-3.1085407967264627	0.3474262908320893	0.23375826855644088	-0.21711190084503124	0.9477444246171817	0.7563788874361472	-0.5718767686246236	-0.31756564699021783	0.6109403002932051	0.7910874692591944	0.030537934748967377
317														9.342349117506927	-3.1662033990261773	0.27451169320836705	0.2342191769758119	-0.2172532865485312	0.9475982200387648	0.7558434988384877	-0.5723221620763268	-0.3180376519531486	0.6114261872052641	0.7907264712150092	0.03016065847246785
318														9.367613121638175	-3.1926613536395396	0.27309162041848667	0.23467191373717006	-0.21741031379488374	0.9474501825207196	0.7553291343802089	-0.5727376684296922	-0.31851132149134787	0.6118880548428602	0.7903823875930754	0.029810899404258462
319														9.36325982110997	-3.1732136974151035	0.2725531609976744	0.23513624393188232	-0.21755847511797932	0.9473010380517619	0.754991812684279	-0.572921673444056	-0.31897980951428384	0.612126056927258	0.790208242175695	0.02954021713334709
320														9.358897554989019	-3.153788538265566	0.27279120714817523	0.2355706211004724	-0.21776244498843117	0.9471462400426868	0.7546775715381602	-0.5730695601392308	-0.31945741853820553	0.6123465076993609	0.7900448068271124	0.02934208094030827
321														9.377392085703079	-3.1587717816490453	0.2997158243294093	0.2359638675859797	-0.21798104503412635	0.9469980555416659	0.7544967071211279	-0.5730578575121033	-0.319905315502904	0.6124179717621299	0.7899930100636764	0.0292450322839794
322														9.39699963055012	-3.136837128574858	0.3056990864811072	0.2363165843256157	-0.21826706466231854	0.9468442112915775	0.7542577848884977	-0.5731155047619044	-0.3203651231588798	0.6125762531373306	0.7898722090852437	0.029192934196930476
323														9.335365506456018	-3.07633127968884	0.3280176459058554	0.2366602288587546	-0.21852086312647656	0.9466998301758492	0.7540939023526171	-0.5730908403167156	-0.3207947555364372	0.6126453480694386	0.7898199295558075	0.0291574409942969
324														9.344541032830666	-3.099346402508961	0.2778228827743585	0.23696016077965504	-0.21882288489754875	0.9465550312836517	0.7538252099583905	-0.573203635487656	-0.321224446602253	0.6128600452260444	0.789654441707795	0.029127781526957663
325														9.25910798188992	-3.040916908420206	0.295935065597289	0.23722397558863895	-0.2191088053445681	0.9464228002464845	0.753502858171489	-0.5734063315524373	-0.3216187520387662	0.6131543265225468	0.789427964006883	0.029073381479106097
326														9.29502386353485	-3.0856281534977685	0.2469884144317449	0.23750598536610457	-0.21941461351384045	0.9462812131136538	0.7530296704640578	-0.5737877813003991	-0.3220464212363776	0.6136262888078288	0.7890657826866767	0.028947681720543683
327														9.348248697186651	-3.1064410500821915	0.22817938100275423	0.2377415781983111	-0.21969310992314373	0.9461574284695301	0.752577718437151	-0.574170650400589	-0.3224202877154245	0.6140893417962151	0.7887097068445794	0.028831902840934953
328														9.405470557987476	-3.060698053054348	0.29219657142075683	0.237965957021459	-0.22001704471039601	0.9460257413705853	0.7519427987148362	-0.5747767346826643	-0.3228215183788625	0.6147798229933716	0.7881777751906218	0.028662936622072976
329														9.437285565085876	-3.0296763239843623	0.2256886801136359	0.23813958903620686	-0.2203177586202929	0.9459120579473534	0.751289492913492	-0.5754348953914483	-0.32316989185817047	0.6155108723421994	0.7876133355920047	0.028488587648064834
330														9.452190812124082	-3.0367827871596296	0.2759563319529658	0.23832413094315114	-0.2206753494878359	0.9457822152792965	0.7503329424778546	-0.5764542878205915	-0.32357523002507427	0.6166052903135983	0.7867673380241942	0.028197017140241254
331														9.501582357931397	-3.0603284260483083	0.279748965028135	0.23842987974351798	-0.22104148566112425	0.94567005560196	0.749370661420819	-0.5775088574016956	-0.3239245767525396	0.6177336029772184	0.7858906929333815	0.027946636890214427
332														9.512396660806097	-3.1339118052197885	0.24611792982014727	0.23859423919318762	-0.22144830575469648	0.9455334139533083	0.7482810206210029	-0.5786818357884358	-0.3243498837781751	0.618989744020217	0.7849127217766954	0.027635411900057305
333														9.460618435804761	-3.196807036865497	0.27812744106802906	0.23875859494360013	-0.2218446869021442	0.9453989994884955	0.7473538350698887	-0.5796484255291241	-0.32476137083701584	0.6200456261815643	0.7840871365319659	0.027400433905592436
334														9.449899969775487	-3.297105795660435	0.23806810756638247	0.23892683606778992	-0.22231139390605825	0.9452468519631159	0.74643710830085	-0.5805726217847057	-0.3252185022188896	0.6210842216302876	0.7832707545756947	0.027227094378967975
335														9.42439690747043	-3.3038410034380092	0.23298858916595058	0.23905365388965066	-0.2227708828088399	0.9451065994556261	0.7458050764881095	-0.5811557420983088	-0.32562676688308223	0.621794289493376	0.7827075681240946	0.027216251665018287
336														9.385562398600777	-3.3308395543016487	0.1744923726671674	0.23919938393814216	-0.22328006879692536	0.9449495571731084	0.7452735984619572	-0.5815854753260741	-0.32607606217769186	0.6223752229637509	0.7822431500293145	0.027289852931749403
337														9.354691971828817	-3.289247499928799	0.1771111890795292	0.23933651836472325	-0.22378747621081002	0.9447947906652792	0.7450579387704992	-0.5816217307560724	-0.32650395125842824	0.6225806765810418	0.7820711782206957	0.027531315703855364
338														9.33050611061241	-3.268696064009381	0.1542817364329361	0.23944604511680712	-0.22433796607066536	0.9446364742360932	0.7448214656761356	-0.5816807381279822	-0.32693807236071354	0.6228214637807318	0.7818695516965493	0.027810580430185694
339														9.302394580102677	-3.250944872023155	0.15611627291830013	0.2395182779589375	-0.2249040541381498	0.9444835419189735	0.7447163079434291	-0.5815852686800216	-0.3273472100652376	0.6229194291452892	0.7817779363007192	0.028189414798747314
340														9.26763711407615	-3.2120595117767916	0.18498343912677673	0.2396066168441195	-0.2254908379850485	0.9443212118497162	0.7446200032370089	-0.5814641447497144	-0.3277811757099552	0.623000577803771	0.7816990024013619	0.02858233197070431
341														9.210373938532177	-3.148162603979932	0.18823600073776353	0.23972800608920913	-0.22598985638776165	0.9441711009696977	0.7447086329413652	-0.581126670527703	-0.3281780687736305	0.6228479229467617	0.7818058439351971	0.028984258998278445
342														9.264807761519581	-3.079482788332078	0.26042755011707763	0.23984596115707907	-0.2264857632613238	0.9440223058575326	0.7446254449179033	-0.5810070992084031	-0.32857829729038934	0.6229019679672327	0.78175120704056	0.029294856087308252
343														9.28473219396158	-3.057250880292453	0.27033883692647126	0.23996813264743977	-0.22693838615658296	0.9438825478852475	0.7445139099994786	-0.5809360217033444	-0.3289564963711461	0.6229882287258639	0.7816727624627439	0.029552652890625086
344														9.28186059498835	-3.0883889437366894	0.29399150937635443	0.2400940005001317	-0.22740238229792575	0.9437388555363561	0.744234777792742	-0.5810692449642789	-0.32935258930275774	0.6232731876534005	0.7814388581852525	0.02972952186797223
345														9.308456142386337	-3.0874015355624267	0.27593233299134856	0.2403031565129889	-0.22778294926030695	0.9435938326399607	0.7439524437574488	-0.5811986517422342	-0.3297618665648423	0.6235295938423562	0.7812317551401027	0.02979581117373209
346														9.298959314685465	-3.1600373386443708	0.21683499946692947	0.2404908765271876	-0.22818802157894463	0.9434481252909839	0.7435760906886013	-0.5814460834397066	-0.33017427127031335	0.6239060311164188	0.7809293686758827	0.02984267876792257
347														9.35718954483234	-3.22933167184726	0.1945171952709342	0.24065989170039354	-0.2285367356410739	0.9433206119815664	0.7432966385074876	-0.5815995764948525	-0.33053296326460013	0.6241737928736067	0.780713067063393	0.029902896285238567
348														9.349266081145135	-3.274447017896697	0.11418358532958756	0.240847548234346	-0.22889989841567532	0.9431846558414734	0.7430728926839332	-0.581669756551694	-0.33091233049166613	0.6243677879806395	0.7805543740306546	0.02999557490324989
349														9.404085775396702	-3.267816192514636	0.07669113695309948	0.2409912731668391	-0.22918001755245748	0.9430799148598605	0.7431095627046376	-0.5814625042828251	-0.33119410310280095	0.624268679395618	0.7806265916991308	0.030178473418151164
350														9.343411905410138	-3.2056520864639277	0.10181608017531012	0.24113922159498702	-0.22948431657418455	0.9429680929146241	0.743166534384574	-0.5812193184719683	-0.33149299540986144	0.624143715805411	0.7807182925239168	0.030390290211749937
351														9.332347952233068	-3.111873663513825	0.11455761563780383	0.2412525408902011	-0.22969786102076462	0.942887111035307	0.7433351870984906	-0.5808833296708202	-0.3317037185980788	0.6238990392165018	0.7809055320286998	0.030602923254147374
352														9.328410203703381	-3.168357138197017	0.15852374204432057	0.24142267662291222	-0.22977865572228123	0.942823875698261	0.7434551267132854	-0.5806297761539376	-0.331878799574725	0.623690280328274	0.7810703120832907	0.03065292491997096
353														9.35336889948558	-3.140857430399113	0.14229841340467617	0.24156065209882494	-0.22980091183843043	0.9427831098804307	0.7436463851905356	-0.5803214747350762	-0.331989517536858	0.6234087785319036	0.7812928560274516	0.030707783538181044
354														9.359524410780171	-3.100822639793068	0.22369940677152067	0.24172297394855813	-0.22976282658289815	0.9427507875287625	0.7437653008198284	-0.5801141490125444	-0.33208545799513967	0.6232039643341937	0.7814580075961143	0.030662700501694062
355														9.313854285564766	-3.129931360927809	0.21207303564404067	0.24183705545460127	-0.22970043195299172	0.942736734284635	0.7438865401050876	-0.5799336588701683	-0.3321291416903104	0.6230149709754423	0.7816103011540146	0.03062161116598039
356														9.340012184766119	-3.152947975875786	0.21311920068765197	0.24202039184037616	-0.22961339400709596	0.9427108884626156	0.7439251649374865	-0.5798348057155157	-0.33221521195391523	0.6228976472151468	0.7817092089603355	0.030483335126627376
357														9.305164926233264	-3.137471316583319	0.2579209484466982	0.24217709051026726	-0.22945260167746367	0.9427097964991269	0.7440454609881089	-0.5796711428230564	-0.332231422597569	0.6226930293611568	0.7818777844149655	0.030340095968380054
358														9.262165890070355	-3.190243693274387	0.24269979100430955	0.24234189428129532	-0.22931512697219836	0.942700895734102	0.744089784928253	-0.579590987049602	-0.33227199655748085	0.6225759377309567	0.7819775318208272	0.030171865799571873
359														9.218234456110775	-3.1918304417909784	0.2084884580657548	0.24256809044869887	-0.22909038142061067	0.9426973632277915	0.744264386208776	-0.5793506304563534	-0.3323001209917014	0.622279073179667	0.7822214802281926	0.0299718359842977
360														9.257796730327714	-3.1942915931885913	0.26319666989256496	0.2428223654743747	-0.22884623725159725	0.9426911999807863	0.744502601308249	-0.579024367566122	-0.33233515975578476	0.6218948266955433	0.7825344602382941	0.029776552333709294
361														9.232227120900525	-3.2236833091707395	0.27829935399707106	0.24311690333630787	-0.22849746872238375	0.942699887609852	0.74485356475616	-0.5785746393887949	-0.3323319932329216	0.6213592667549146	0.7829688968558004	0.02953587943850189
362														9.249597482832987	-3.2006840198873387	0.3070979432163193	0.24341909582474713	-0.22818447424431032	0.9426977190498075	0.7452002398853246	-0.578113493226325	-0.3323573249147822	0.620825052863298	0.783400685896753	0.029319261139728547
363														9.264572213356324	-3.1533056217018847	0.3384229898343536	0.24370681437642683	-0.22777906853527508	0.9427214246868988	0.7456536950918833	-0.5775556107467738	-0.3323102217668631	0.6201673609779174	0.7839299792915969	0.029090066097587353
364														9.243231817252623	-3.1793757081895344	0.3291902932570659	0.24404980721462627	-0.2273829392044997	0.9427283227723809	0.7460082643273813	-0.5770937706186371	-0.33231679083129667	0.6196058111039241	0.7843849685402484	0.02878992834936711
365														9.278186838796262	-3.1328454590010613	0.38785799157229817	0.24438009774856329	-0.22694836506920896	0.9427474780750229	0.7464132060657906	-0.5765863953342372	-0.33228821003168035	0.618987636092184	0.7848837928686536	0.028491017130425123
366														9.361654178740281	-3.196329533745727	0.36624787460718855	0.24471694450375114	-0.22654026272961625	0.9427582545038496	0.7466854093538795	-0.576234229387997	-0.33228754466523697	0.6185260839534404	0.7852602258130861	0.028140028877094603
367														9.327346612199653	-3.179874745357594	0.4090955737884201	0.24503270703785157	-0.22610867336031976	0.9427798472140453	0.7469954330477151	-0.575851102068101	-0.3322549190799289	0.6180265329964069	0.7856655624871118	0.027799791982159427
368														9.316540442451092	-3.2243051866592998	0.34905353885998447	0.2452884944676063	-0.22576532039683628	0.9427956165510796	0.7471673307147109	-0.575638848037975	-0.33223620594716696	0.6177171961298069	0.7859198029924098	0.027486885416553475
369														9.308727867805274	-3.229826321956622	0.39423531155736513	0.24551384961724215	-0.22539524683229745	0.9428255047205343	0.7474600081651617	-0.5752955680761447	-0.3321724635572352	0.617273428749253	0.7862772997215131	0.02723090345154522
370														9.293866001083781	-3.2771306709888535	0.35895891885171655	0.24572747187581073	-0.22511898763760146	0.9428358557938621	0.7476646509511691	-0.5750362005668468	-0.3321610117935454	0.6169404989815381	0.7865461267101039	0.027011317512184996
371														9.320434986828111	-3.2990631689789045	0.35919032924386485	0.24585796020476547	-0.22485823743887895	0.9428640604349241	0.7479479894172667	-0.5747079989681144	-0.33209113364968595	0.6165449444530542	0.7868605270173019	0.02688573025665686
372														9.32156945522752	-3.349882404651549	0.3774963758906534	0.24600091657120438	-0.22464023545802364	0.942878737515854	0.7483073373627889	-0.574261568036564	-0.33205388165958794	0.6160516844349508	0.7872486367657616	0.02683106437153182
373														9.375125578439116	-3.3154686217664406	0.34090342583012045	0.24607371785007237	-0.22443706327838803	0.942908123843684	0.7488279697938129	-0.5736344334706078	-0.33196416733034906	0.6153896302651842	0.7877636329279414	0.026908392710308426
374														9.38642854934133	-3.269913616523419	0.39930917456156506	0.2460874248883273	-0.22431250642857514	0.9429341858112698	0.7493566977109927	-0.5729946971323092	-0.3318759055037427	0.6147402044014266	0.7882645346062346	0.027083289580635883
375														9.33233957679982	-3.25153914875939	0.41947132439082135	0.2460536807168312	-0.22419358656602573	0.9429712731299732	0.7499185388272075	-0.5723307195240892	-0.3317525171152516	0.6140682139053989	0.7887805672249419	0.02730284672581046
376														9.312631411407647	-3.249665000604044	0.3937707189050562	0.24599756752389929	-0.2241258154185693	0.9430020231342491	0.7503746869558572	-0.5717935929694724	-0.33164727680920514	0.6135332313316246	0.7891892712790916	0.02751850558719432
377														9.33048122600221	-3.224906773992201	0.4269121528882551	0.24582788327766786	-0.22406271553290963	0.9430612659372881	0.7508766375755895	-0.5712464521993084	-0.33145401791633267	0.6129868897018913	0.7896033120230198	0.02781515227137349
378														9.306944184363898	-3.2253650493910135	0.42551835607799543	0.24565505232648094	-0.22403527326264844	0.9431128201867498	0.7512375364897725	-0.570869249608202	-0.3312860751986816	0.6126138743411318	0.7898838498069821	0.028066791388563217
379														9.311297113891781	-3.221168397084951	0.40427023994914224	0.2455503481220011	-0.22397876244835518	0.9431535084540948	0.7516791974371599	-0.5703667055633614	-0.3311498230786569	0.612113887015637	0.7902628266323186	0.028306433291865718
380														9.355498918930369	-3.2186964621022467	0.4391862564728278	0.24544738578417252	-0.22399563361361124	0.943176302148094	0.7519857765636269	-0.5700114918252408	-0.33106538785134676	0.6117785323609476	0.7905142979789805	0.028533699954351455
381														9.330250408417154	-3.24672911612454	0.4593863873046011	0.2452966831718577	-0.2240283013577038	0.9432077488102324	0.7523458334574421	-0.5696029212581213	-0.33095053856043327	0.611396176062716	0.7907994893049666	0.028825051793398615
382														9.334333970668338	-3.243276735691928	0.4386236346720392	0.2451642771519924	-0.2241349426606617	0.9432168386362932	0.7526302082763342	-0.5692576551862524	-0.33089800785403933	0.6110992119111783	0.7910178566191486	0.02912908702972239
383														9.323919150562686	-3.2238640916276	0.4921873381819835	0.24503485902547822	-0.22418647644300926	0.9432382210462171	0.7530798847664751	-0.568715931020543	-0.3308064040546219	0.6105969251662482	0.7913928313950698	0.029475097862741106
384														9.3054175899716	-3.1959108809749823	0.44602410523766384	0.24489991628963936	-0.22433256276462693	0.9432385341390493	0.7534029582446686	-0.5683071430841778	-0.3307732964247295	0.610252417864534	0.7916450545559889	0.02983444464935847
385														9.320260283841332	-3.1479641310757382	0.48229720320168085	0.2447901157580163	-0.2244664057345926	0.9432351943835484	0.7537186198097365	-0.567900508039521	-0.33075255875134196	0.6099065841416067	0.7918988860107377	0.030168078421898892
386														9.33059126205237	-3.166812202799812	0.4355740558230199	0.24466560034981222	-0.2246308473082954	0.9432283532862146	0.753960195684438	-0.5675857941423594	-0.3307421799699458	0.6096579100847875	0.7920778678421366	0.030493998519458165
387														9.332875848444045	-3.1912183266834395	0.4363422685508271	0.2446601591164485	-0.22473829389599992	0.9432041697309386	0.7542144775775677	-0.5672200946742569	-0.33078979127252967	0.609345491780739	0.7923093230894371	0.03072471630539475
388														9.303577486722014	-3.1455665066414555	0.43934181048748283	0.2446027477124318	-0.22494037833889619	0.943170886957545	0.7543574970366906	-0.5669894028612223	-0.33085915992701964	0.6091914826030211	0.7924170891871454	0.03099829492252998
389														9.30573491641383	-3.170363712737831	0.439939458359541	0.2445414745100668	-0.22509729903091746	0.9431493377050255	0.7545233178465532	-0.5667465755482024	-0.3308970866148795	0.6090106978290872	0.792546228981863	0.031248117645017226
390														9.309449757680273	-3.168259506761435	0.41866807704832826	0.24443734506782339	-0.22531106853136096	0.9431252868699102	0.754543804471403	-0.5666924555370567	-0.33094305850282213	0.609027118829708	0.7925241846370605	0.03148627153772643
391														9.31166858691217	-3.192892381138323	0.4192326254505385	0.2443322761564662	-0.22549502423650736	0.9431085477678469	0.7546813339559382	-0.566496894316611	-0.330964277389751	0.6088988610653545	0.7926116721158043	0.031763410067287334
392														9.332795640898775	-3.1672220679304246	0.4284133019394723	0.24428150874978988	-0.22569356359808868	0.9430742069600475	0.7547395136589979	-0.566374669320844	-0.33104078370116946	0.608847116281835	0.7926425104056056	0.03198499168662844
393														9.313444986569456	-3.2184828611482215	0.42222697095910444	0.24428155725486822	-0.22584716918345338	0.9430374207617415	0.754907685098957	-0.5661017237054635	-0.33112418425152457	0.6086385690733632	0.7927937276426474	0.03220555304299749
394														9.362449171112107	-3.188453971459208	0.4117471374437664	0.24426838618324387	-0.2260452335975825	0.9429933763708249	0.7550787039692035	-0.5658153703075612	-0.33122366693203786	0.6084316776135361	0.7929416870688109	0.03247113464057594
395														9.330045835758611	-3.1964322265255802	0.4581553900906375	0.24419176766046874	-0.2261825590782065	0.9429802917217782	0.7552972810684743	-0.5655172696260488	-0.33123441090150907	0.6081910865981404	0.793115166746629	0.032740410184372126
396														9.33784778534224	-3.191736616852694	0.41297786489762506	0.24412965000758946	-0.22636032360270736	0.9429537199065762	0.7554186072784685	-0.5653250417561955	-0.33128586589351344	0.6080653268890038	0.7932014883129215	0.03298419581459472
397														9.308696614649817	-3.1457181855279193	0.41603168116499123	0.24397966827640433	-0.2265216802444951	0.9429537898788821	0.7556426886509324	-0.5650447193988379	-0.33125306363546136	0.6078470601690248	0.7933551496389872	0.03331002829741453
398														9.262190021871824	-3.1232550909425614	0.38881808164568776	0.24386608826135858	-0.22671853185846913	0.9429358611846532	0.7557532177517211	-0.564883371189763	-0.3312760945362767	0.6077552178747814	0.7934138165328537	0.033587361920047576
399														9.329825155539217	-3.1196239537319737	0.4284499725318632	0.24372163489049709	-0.22685526528471195	0.9429403232967111	0.7558801225478202	-0.564735901231806	-0.33123798423035966	0.6076553340697302	0.7934797101832551	0.033837028594452256
400														9.353623579353942	-3.117618270600089	0.4353582494697537	0.24360445175713308	-0.22705848520965766	0.9429216910106598	0.755887551796481	-0.5647085617744301	-0.3312676399797855	0.6076930805293316	0.7934410403760007	0.03406516290612649
401														9.31214440220309	-3.1435291464540533	0.40321689037337965	0.2434645141476226	-0.2272106706762853	0.9429211745854974	0.755961167353546	-0.5646231674494224	-0.33124521465652157	0.6076575876300118	0.7934582471121047	0.03429673870006139
402														9.318647115315272	-3.1650538884436052	0.3795537559160555	0.24330826665398547	-0.22738361671270996	0.9429198153758789	0.7559375558914421	-0.5646649024173275	-0.3312279571094567	0.6077495363804954	0.7933790007484938	0.03450017682006068
403														9.321075890970345	-3.1891435761144358	0.37973962881195056	0.24315839800981176	-0.22753684928340856	0.9429215108880918	0.7559838227158721	-0.5646194015460491	-0.331199926312913	0.6077519668986678	0.7933674518254208	0.034722227964800456
404														9.336716241255806	-3.2563710166180093	0.3278812487081813	0.243001996739224	-0.22768172289687416	0.9429268596447249	0.7560595687448611	-0.5645413465940856	-0.33116007684362025	0.6077202959339816	0.7933814347742509	0.03495627076028457
405														9.330199783416804	-3.2342238529182765	0.3568271701079798	0.24286713877436122	-0.22777603401962104	0.942938826875767	0.7562875850310224	-0.564272308192264	-0.3310979476458873	0.6074904457121109	0.7935457394086791	0.0352209857163836
406														9.327832418220416	-3.2093236408551724	0.3620415336558336	0.2426792699474331	-0.22790613723682795	0.9429557595919175	0.7564390820211857	-0.5641148787482482	-0.33102011837016215	0.6073768905125777	0.7936203098362833	0.03549812229731086
407														9.357709203672261	-3.1770012590597676	0.3235314756588703	0.2424550214868293	-0.2279631155577539	0.9429996715275273	0.7566546113670365	-0.5639160569818729	-0.33086625662798763	0.6071979591968515	0.7937452353389092	0.035765062896063016
408														9.334143393836365	-3.1777058942994847	0.32215196281376623	0.2421550898733411	-0.2280853690560764	0.9430471763761283	0.756759143623204	-0.5638740556607844	-0.33069872678214896	0.6071873771671392	0.7937399534956099	0.03606071593407617
409														9.303938188960561	-3.1567639013350877	0.3471431401291966	0.24189400587416293	-0.2282222209927745	0.9430810716832756	0.7568903424594551	-0.5637742220050987	-0.3305686556438076	0.607127910257599	0.7937715316435017	0.0363655900346756
410														9.310931061025144	-3.1770144741078763	0.3244402869290412	0.24156521327475688	-0.22837683639260287	0.9431279172704133	0.7569573197498305	-0.5637831053239726	-0.33040010022457866	0.6071753155495324	0.7937207511150033	0.036681131890400065
411														9.274092232604502	-3.134337835807862	0.37516814217430416	0.24132700386693134	-0.2284489618220163	0.9431714314201067	0.7570604991801995	-0.5637320257687787	-0.33025081938377754	0.6071413985107896	0.7937362754498954	0.036905924311558924
412														9.271880588086798	-3.10896554070651	0.3795730165080584	0.24110502559900115	-0.22855646662340778	0.9432021565897359	0.7570289206711014	-0.5638372439252103	-0.3301435682099089	0.6072689518643719	0.7936305840423783	0.03707986211006087
413														9.30276359934821	-3.1274257071104112	0.3597754082782641	0.24087530778361366	-0.2286227780985336	0.9432447781115239	0.7570301710598537	-0.5639174498251751	-0.3300036816275834	0.6073585483100059	0.7935544941068505	0.03724055152092226
414														9.334497745821357	-3.197003884481127	0.359330903938796	0.24072434472805504	-0.2287039976909268	0.9432636276754429	0.7569877681678392	-0.5640134208691234	-0.3299369332520718	0.6074712410472791	0.7934628803666224	0.03735436762656885
415														9.338821914321644	-3.1938003421350323	0.33697011452378295	0.2405883803205619	-0.22874329471397875	0.9432887873700835	0.7570836486867039	-0.5639365455236311	-0.32984833107672573	0.6074056141870574	0.793506192632589	0.03750122808357376
416														9.362878605959363	-3.1911320176662903	0.34290941013424747	0.24049091576881365	-0.2287954490055512	0.9433009922326094	0.7571284220176915	-0.563904338018602	-0.3298006217956578	0.6073884029232675	0.7935140452935603	0.037613666614302044
417														9.3785351478909	-3.19373361680479	0.396774023678491	0.2403904339680042	-0.22884744424128112	0.9433139914794588	0.7572745513833044	-0.5637411179864524	-0.32974415190962825	0.6072459905869201	0.7936150194871683	0.03778237367466075
418														9.373479861019995	-3.1451135029874404	0.40281863559137115	0.24028934931561935	-0.22895037367668986	0.9433147698402587	0.757290714965086	-0.5637301923958622	-0.329725709050709	0.6072658409898789	0.7935930925698813	0.03792363105277341
419														9.340760228004461	-3.1654868737530983	0.3218936189308722	0.24014077220011787	-0.22902256769493184	0.943335079923116	0.7573340455590889	-0.5637161948854221	-0.32965011005762623	0.6072705764025089	0.793582204381072	0.0380753453752356
420														9.329975164358993	-3.1459434851778387	0.3731548406284492	0.24007026676226012	-0.22906629494047565	0.9433424084281062	0.7572905129434431	-0.5637899897087612	-0.3296239167749384	0.6073527360789229	0.7935171579912041	0.038120518766252665
421														9.340955209239919	-3.1647270531468026	0.32370118645404794	0.23999355530309624	-0.2290791201693297	0.9433588130268492	0.7571915183540809	-0.563949831862359	-0.3295778992515409	0.6075064591801652	0.7933998637792062	0.03811244166300082
422														9.31550463181359	-3.193228994108575	0.3412566091073606	0.23991529762985336	-0.22910709215649533	0.9433719257465607	0.7570411406545681	-0.5641720909121514	-0.32954296107221287	0.6077247414081557	0.7932337563161358	0.03808997927255897
423														9.287547060135232	-3.1974772625550743	0.3608066715715413	0.23981385193521776	-0.22909003551738977	0.9434018613754345	0.7569562649035717	-0.5643350509507785	-0.32945889469191136	0.6078704873928551	0.7931227558802126	0.038075775261306344
424														9.320894277853027	-3.2406833272711584	0.33707991544403326	0.23974500273699384	-0.22909289243442793	0.9434186664989552	0.7568650089274565	-0.5644844613748162	-0.3294125849563512	0.6080112597015623	0.7930155985240213	0.03806006534030437
425														9.342364214126373	-3.214076449989763	0.343969626193002	0.23971524028303548	-0.22906423560760608	0.9434331876405183	0.7569415698586961	-0.5644081538134701	-0.3293674175274822	0.607927679412526	0.7930781877434111	0.0380910058902032
426														9.314220772811387	-3.218806560328869	0.36405212864634584	0.23973234571692964	-0.22908492981605788	0.9434238163986701	0.7569948793168195	-0.5643235853258173	-0.3293898051444975	0.6078545509455149	0.7931323886818569	0.03812950194586273
427														9.325081167767562	-3.237947410589218	0.31492038852520093	0.23969508325683575	-0.22908815503320296	0.9434325011817125	0.7571174589508936	-0.5641794657316517	-0.32935495107632784	0.6077165625637012	0.7932339804056754	0.03821559780414163
428														9.32758464325835	-3.262132553125916	0.3138867389631594	0.23971479673363172	-0.22908633510344562	0.9434279343414764	0.757305579901651	-0.563925489754292	-0.3293574056480375	0.607474340920485	0.7934150824595243	0.038307075703695015
429														9.320749637360047	-3.240648091504791	0.3413909707995121	0.23973751118880615	-0.2290853157257947	0.9434224100835269	0.7576100405320756	-0.5635176310162759	-0.32935528843301043	0.607085621814571	0.7937051074880503	0.038461020961468695
430														9.31640931585922	-3.2434073596533732	0.3672117590310798	0.23979902793237784	-0.2290774443653718	0.9434086869886859	0.7580132090830383	-0.562964817495589	-0.32937302427155724	0.6065578299373607	0.7940995773485765	0.0386453127363659
431														9.343522468241316	-3.1879627829516197	0.32997119476381226	0.2398839496197599	-0.22899277195113932	0.9434076537260858	0.7584992814434012	-0.5623186400641006	-0.32935784048099537	0.6059162737249006	0.7945816870722571	0.038799636657283254
432														9.31284523812243	-3.168299255506612	0.3534291575588786	0.23991750160862402	-0.2289472247471941	0.9434101762767	0.7589068006491797	-0.5617843981541049	-0.3293307728091269	0.605392484550562	0.794972614793232	0.03896769660256438
433														9.323286034362939	-3.122610022253458	0.4116832781332198	0.23992593136122536	-0.2289341642561346	0.9434112019139871	0.7592301980712779	-0.5613601964392891	-0.32930872474061634	0.6049835153102081	0.7952759761805885	0.03912886291365064
434														9.323276758059238	-3.1224410225599395	0.4131723306557109	0.23992152010230866	-0.22891642713196325	0.9434166277848475	0.7594264123487503	-0.561110398818998	-0.3292820137272763	0.6047389423700964	0.7954573462646006	0.03922272115465436
435														9.35387654826022	-3.142070327148608	0.39234054034052634	0.23999540069014635	-0.22887574045384923	0.9434077077696998	0.7595439216189979	-0.5609360677511004	-0.3293080002483506	0.6045620222766319	0.7955919955150605	0.039219101126288125
436														9.378510177653713	-3.1912752270749056	0.41664683632561966	0.24010166054194804	-0.2288462135326309	0.9433878328432993	0.7595963605221238	-0.5608285336392597	-0.3293701943673435	0.6044539367780998	0.7956762949892471	0.03917488871256325
437														9.35525479676254	-3.244931212966083	0.43177357462624805	0.24020219737865078	-0.2287780835867449	0.9433787642537036	0.7596926336153056	-0.5606793474535572	-0.32940214293427916	0.6042929809331808	0.7958010164666985	0.03912461355030428
438														9.361755350167217	-3.2673476783429143	0.40539651442965663	0.2403472832585039	-0.2287062630456666	0.943359225679138	0.7598006972224944	-0.5604953423808358	-0.32946604023723114	0.6040993990482589	0.7959512650992371	0.03905764530096978
439														9.364069643885466	-3.292147491259303	0.403458751916076	0.24048371005725105	-0.2286144258326427	0.9433467175425538	0.7601169751876009	-0.560047631036753	-0.32949785280297794	0.6036470568376457	0.7962927195895564	0.039091373727665635
440														9.326458757323229	-3.251478365049564	0.45147044745014375	0.24066047638648275	-0.22856006372014692	0.9433148108546127	0.7603713425907089	-0.5596494055328904	-0.32958756689760826	0.6032561284166403	0.7965882500758625	0.039105029968548755
441														9.29210165568875	-3.1577236129688058	0.45563376536379463	0.24087467710992172	-0.2284835830409116	0.9432786662529677	0.7606852570398321	-0.5591624494226388	-0.3296896948312448	0.6027746922768369	0.7969520734877736	0.03911601863818659
442														9.2636918263853	-3.1631964606538325	0.4751027700378766	0.2410711904980048	-0.22839226428301607	0.9432505789701651	0.7608036648205322	-0.5589469214314282	-0.3297819319155856	0.602546649403614	0.7971294202562126	0.039015671908509075
443														9.319520777365396	-3.155327921292359	0.4350279418175198	0.2413518077341124	-0.22827843382043694	0.943206372728665	0.7609058384323988	-0.5587216501267196	-0.32992790533564237	0.602305246484675	0.7973199322305726	0.038849912803904374
444														9.314895183065332	-3.1593129584281634	0.457333009689627	0.24161622482237655	-0.22819574051190855	0.9431586843764976	0.7608216086404465	-0.5587396134061504	-0.33009169065050725	0.6023056364739976	0.7973310155907448	0.03861569433126
445														9.251829093934344	-3.2133738807569467	0.41388871871197574	0.2418678628002433	-0.22809534405095871	0.943118471331527	0.7606454885178502	-0.558891274255748	-0.33024079753753366	0.6024270725505974	0.797253446266029	0.038321856362346196
446														9.30670715709684	-3.2834873424507305	0.4139476261904811	0.24211711924248314	-0.22802619815264036	0.9430712345977761	0.7604230921969616	-0.5590942344384202	-0.3304093792121038	0.6026076845040496	0.797130911440379	0.03803010127383605
447														9.319321872569269	-3.263720339893057	0.46605234017364394	0.2423478746154894	-0.22798674254600126	0.9430215018188179	0.760289471206641	-0.5591778361848909	-0.3305753582648139	0.6026835219596449	0.797083554430053	0.037820359800927295
448														9.32704197981143	-3.2608244671923647	0.41618474361928337	0.2426577080299558	-0.22793050904080087	0.9429554177065061	0.7601518758551378	-0.5592358337616383	-0.33079360312866024	0.6027324135697077	0.7970589471835365	0.03755891834316066
449														9.380667439286748	-3.2158034515475595	0.5031245584130406	0.24299535629260405	-0.22790598540942975	0.9428743917589381	0.7600875589615472	-0.5591727834887389	-0.33104788311863986	0.6026774921399564	0.7971101931477309	0.03735211436960617
450														9.336124604917712	-3.2202119753078677	0.4688523820591407	0.2433295227597591	-0.2279100910282243	0.9427872155269266	0.7600145837207408	-0.5591126065312064	-0.3313169566286494	0.6026346952219876	0.7971512300845982	0.03716638924236859
451														9.300470219619973	-3.205951136623721	0.5129036963038811	0.24372333533969182	-0.22793859399744815	0.9426785948441615	0.7599693011558284	-0.558979299392302	-0.331645600229542	0.6025326523198705	0.7972365647769537	0.036990034752946765
452														9.25566559817606	-3.211035905510117	0.47871189806342446	0.2441268411858713	-0.22797081855921558	0.9425663856185675	0.7598830966765726	-0.5588940723752613	-0.33198658895958344	0.6024780201781901	0.7972871012058567	0.03679012711218954
453														9.291725417770513	-3.255820130981003	0.429506108776654	0.24449735408147238	-0.22797985402470233	0.942468158616531	0.7598401954015144	-0.5587748624845961	-0.33228531491402	0.602381873315713	0.7973680700994971	0.03660928142501624
454														9.316314859222306	-3.2302507895472616	0.4107650886367444	0.24484439072037922	-0.22803742257158122	0.9423641325091255	0.7598447895933699	-0.5585863979613819	-0.3325915388886741	0.6022351036435637	0.7974836486846856	0.036506301099771654
455														9.251795904192408	-3.1696978300816157	0.45554196513677414	0.24516809578481852	-0.2281439124418746	0.9422541907707074	0.759851548620517	-0.5583884476685013	-0.33290834409693587	0.6020948670004158	0.7975918108444169	0.036456472754174685
456														9.357234864345896	-3.1839146543025114	0.4226710425711103	0.24542222846917383	-0.22825811214670105	0.9421603706442172	0.7597548164354164	-0.5583572254974365	-0.33318137348596133	0.602113401840892	0.7975809946168658	0.036386925530465686
457														9.38022692737875	-3.18466939497681	0.42698665096942934	0.24559324156885137	-0.22844070632262525	0.9420715489762566	0.7596629126862	-0.5583342204162219	-0.33342938892864293	0.6021596289895415	0.79754482131541	0.03641482127030082
458														9.361867871032745	-3.2112350445421116	0.39750465115826455	0.2456885302972056	-0.2287337527463032	0.9419755922713666	0.7594637862328093	-0.5584494440784984	-0.33368993962860494	0.602371897984397	0.7973801406876203	0.03651037873900892
459														9.32207463353452	-3.2636666199639706	0.36204060618693784	0.24581883428160434	-0.22893820141666915	0.9418919262020101	0.7593602998417142	-0.558452845077725	-0.3339196832307072	0.6024491976397134	0.7973190827747034	0.0365683538947329
460														9.306408128868496	-3.3134702489212713	0.33114400010181433	0.245852093790206	-0.22913165810007313	0.9418362019137315	0.7593541934643446	-0.5583767168622527	-0.33406084914914347	0.6024433225184646	0.7973168286963743	0.03671400046944323
461														9.347334831693255	-3.2885263311906874	0.3681803941017678	0.2457917054354951	-0.2292497585584295	0.9418232242517761	0.7596383297378553	-0.5579869804175149	-0.3340660678333315	0.6021096623806921	0.7975556895198256	0.03699833215650872
462														9.296851260340688	-3.2685414831520214	0.36490084984838733	0.24567462292301506	-0.22943838507783126	0.9418078397977537	0.7598999300696148	-0.5576284633768007	-0.33406974288645563	0.6018272808138801	0.7977521697149466	0.03735505030469355
463														9.306925348801906	-3.171887961856915	0.40510161874960887	0.24551778834210342	-0.2295760379352193	0.9418151933439858	0.7602704275422144	-0.5571620475081431	-0.3340049847252472	0.6014232225416485	0.798038404854366	0.03774667886209948
464														9.32421350217459	-3.147765791845242	0.43924528278429104	0.2453881532211432	-0.2297556141425231	0.9418051879389436	0.7605274798291495	-0.5568181826705485	-0.3339932093204748	0.6011510681047149	0.7982267028967772	0.03809887267493256
465														9.263124847292762	-3.1728690898204563	0.3801887456544335	0.2451728059378867	-0.2299216890285256	0.9418207431049787	0.7607976092821367	-0.5565019179223565	-0.33390509588702766	0.6008970734985565	0.7983994190021745	0.03848473460817353
466														9.252470135246659	-3.2178174026389876	0.3280539458867078	0.24492362387616284	-0.23012332501422345	0.9418363306603572	0.7609766864952574	-0.5563098501005447	-0.33381706560900687	0.6007719210133462	0.7984751755474351	0.03886506086996455
467														9.23353038128691	-3.2673864412463653	0.3235484529006995	0.24477604127967018	-0.23017712852418704	0.9418615498680328	0.7613726363768077	-0.55583378484357	-0.33370722527853797	0.6003302409441676	0.798791144875074	0.03919577371459865
468														9.23802873217172	-3.2638546840413385	0.302896540004486	0.2446302711445854	-0.2301555734736841	0.9419046886170207	0.7617863565202055	-0.5553593450013996	-0.3335529117535736	0.5998646326125566	0.7991272801742013	0.03947166859896445
469														9.242684690894972	-3.2599270701016616	0.2821414141096968	0.24451359940088663	-0.23002068855467972	0.9419679307411978	0.7624800056419155	-0.5545371138749988	-0.33333591215392794	0.5990303337096773	0.7997368768363866	0.039794310191974214
470														9.284482944013456	-3.2320634075660055	0.32000496080926516	0.2444539220045016	-0.22983156149568512	0.9420295819968039	0.763247815200361	-0.5536059047480354	-0.33312651473574695	0.598076126098086	0.8004361033640133	0.04008730251516124
471														9.298358471922233	-3.2737862778854034	0.27164873162252406	0.24438948390423587	-0.22955115802567833	0.9421146671218386	0.7642125220733096	-0.5524424127412473	-0.332846213304256	0.5968693334921591	0.8013199401323425	0.04041475328300814
472														9.315002505924548	-3.080040174514728	0.3705539980728545	0.24432868657720636	-0.2292782409273747	0.9421968908634258	0.7652697502462308	-0.5511458479672179	-0.33256648001049094	0.5955381618952132	0.8022903106143969	0.040798961025076186
473														9.280301837109855	-3.009049308917109	0.39906242541819664	0.2442255348665342	-0.2290574079151133	0.9422773434601754	0.766145030118513	-0.5500920546257626	-0.33229583846673527	0.5944541033114825	0.80307623256875	0.04114466841918535
474														9.27619266647568	-2.9578560330135724	0.40529799609127654	0.24409271316479447	-0.22879394326839086	0.9423757631133937	0.7668305473828598	-0.5493211395334765	-0.33198975475479336	0.5936241731772337	0.8036788022495955	0.041360897406880204
475														9.22820127739807	-3.036096656368765	0.44060035602453923	0.24395215021692723	-0.2285277483952835	0.9424767459295329	0.7671671809440765	-0.5490259374923083	-0.33170022074610084	0.5932468835879863	0.8039562103585465	0.041382930527793904
476														9.29520700574736	-3.1215000976430947	0.39447329211837834	0.24379676514565862	-0.22820552643648173	0.9425950217396448	0.7673958816610572	-0.5489033463350822	-0.33137392352416356	0.5930149223368346	0.8041314283660339	0.04130312094552935
477														9.264150391404009	-3.1910102432710614	0.3320093039943123	0.24364636344695983	-0.22785945799459945	0.9427176231414581	0.7676146881171335	-0.5487998276204198	-0.33103842645625625	0.5927935055024715	0.8043002030375261	0.04119518452302989
478														9.28753933760031	-3.2120023827946227	0.3575285898837405	0.2435305191375498	-0.22745387921700988	0.9428454905644565	0.7678512181721914	-0.5486763110806205	-0.33069443964246686	0.5925347188140782	0.8044992470401058	0.041031311358832145
