// Start Time: 1748432634.6645443
// Update Rate: 100Hz 
// Filter Profile: 46.1 human
// Option Flags: AHS Disabled ICC Disabled 
// Firmware Version: 4.0.2 
PacketCounter	SampleTimeFine	Year	Month	Day	Second	UTC_Nano	UTC_Year	UTC_Month	UTC_Day	UTC_Hour	UTC_Minute	UTC_Second	UTC_Valid	Acc_X	Acc_Y	Acc_Z	Mat[1][1]	Mat[2][1]	Mat[3][1]	Mat[1][2]	Mat[2][2]	Mat[3][2]	Mat[1][3]	Mat[2][3]	Mat[3][3]
0														8.427620314899157	-4.879214702046806	-0.41726946183727853	0.5127651775370177	-0.07383693952412518	0.8553478702067021	0.8282286946604046	-0.219807157944445	-0.5154823398114702	0.2260732227543833	0.9727450435124799	-0.051555584327505205
1														8.489183365483678	-4.874687897583377	-0.364521014054282	0.5125913129413038	-0.07403267325804042	0.8554351577924413	0.828392255407743	-0.21943610572151842	-0.5153775962207202	0.22586814090876878	0.9728139384260709	-0.05115294836442727
2														8.4298330155573	-4.876149398836424	-0.4083079178261282	0.5124251995695788	-0.07410032751053292	0.8555288167612531	0.8285995544475533	-0.21893306427189566	-0.5152582767290934	0.2254843524845888	0.9729221216681994	-0.0507873207922602
3														8.413287533890415	-4.826575754474379	-0.4355209593824142	0.5122757541751422	-0.07412145488171423	0.8556164804458293	0.8288015482859348	-0.21843661435212636	-0.5151440954424488	0.2250811970003881	0.9730320937341169	-0.05046780478952939
4														8.464779505330712	-4.870789414480712	-0.4936298343268477	0.5121911848470074	-0.07408013204779795	0.8556706867719619	0.8289599319676131	-0.21799645981053295	-0.5150756980311983	0.2246900562046979	0.9731339463536646	-0.050246403820315505
5														8.477242713634858	-4.8203668200303555	-0.45959493962344367	0.5121140294111184	-0.07422883366554167	0.8557039798510699	0.8289982106295536	-0.2179423037122481	-0.5150370074330537	0.22472469302082793	0.9731347452975105	-0.05007574104736834
6														8.465374492780414	-4.746730562262721	-0.4337639476057164	0.5119907908243826	-0.07428362182877551	0.855772968513859	0.8291208175408304	-0.21769948006664336	-0.5149423329841288	0.22455311182757554	0.973184915577051	-0.04987003170080942
7														8.469175877313484	-4.79407909436961	-0.4324545656259958	0.5118485989555219	-0.07431757167711744	0.8558550755164603	0.8292028156571398	-0.2176944299394235	-0.5148124179539777	0.22457449154688292	0.9731834532673509	-0.04980224927744786
8														8.455310381601803	-4.7934547657945465	-0.46290848250805533	0.5117839658822027	-0.07425521608814595	0.8558991384208696	0.8292750745679218	-0.21758722298877797	-0.5147413438732109	0.22445494640629265	0.9732121882075533	-0.04977965204793755
9														8.534351790917947	-4.8123166431892255	-0.4603489066124985	0.5117274788782474	-0.07424677855845535	0.8559336441772838	0.8293436351049763	-0.21744226862608457	-0.5146921358692068	0.22433038642095976	0.9732452289574473	-0.049695090701089295
10														8.562682514368406	-4.785802010028139	-0.39583144847721247	0.5116320871158366	-0.07432592200172977	0.8559837993514168	0.8294554196496429	-0.21715843747346997	-0.5146318294158618	0.22413458958252863	0.9733025584846033	-0.04945518577457386
11														8.515647253566256	-4.787985258947366	-0.33250551726728533	0.511550325678737	-0.07453055750251797	0.8560148715392405	0.8294957413887349	-0.2170737640430862	-0.5146025611888458	0.22417198601951005	0.9733057982784912	-0.049221374640883137
12														8.501436632802767	-4.812247471156557	-0.2841076674191722	0.511426147669101	-0.07447976176158067	0.8560934882174267	0.8296761929020822	-0.21664446519733485	-0.5144925564387379	0.22378719894544902	0.9734053322163894	-0.04900355906310325
13														8.47618758154503	-4.860692887898998	-0.3456215380843115	0.5112928039707321	-0.0743122141615617	0.8561876917090978	0.8298136665805838	-0.21649554400688195	-0.5143335087093321	0.22358208193823303	0.973451269582392	-0.049027322837320614
14														8.466177264382189	-4.883183861216796	-0.45431065847493485	0.5111550660072726	-0.0740133071366339	0.8562958185474218	0.8299944592791075	-0.21624771596934966	-0.514146013214166	0.22322566174408054	0.9735291242200912	-0.049105480693905884
15														8.419715771751015	-4.956975160867659	-0.5260653727224892	0.5110191794234622	-0.07372048318328733	0.8564021769125735	0.8301663231218916	-0.2160294039690444	-0.5139602830716195	0.22289745224127422	0.9735998084326039	-0.049194906284561746
16														8.409171435528366	-5.004614519206202	-0.5577024878598673	0.5109418913485053	-0.07331990553729223	0.8564826764840112	0.8304000201950608	-0.21545021254780605	-0.5138258580230741	0.2222030380648639	0.9737583875711204	-0.04919768805174607
17														8.449417578231087	-5.000696510063243	-0.5951577975501571	0.5109309871102596	-0.07290380301085164	0.8565247001208378	0.8305989130311523	-0.21485544072552015	-0.5137534284675007	0.2214835706819009	0.9739210312428817	-0.049222482879249296
18														8.464606980165566	-4.999075137408919	-0.5633472753698276	0.5109386498441975	-0.07252963403961987	0.8565518946809162	0.8308121300334492	-0.21412021200834364	-0.5137156211356484	0.2206646792866308	0.9741108699709602	-0.04914379228089327
19														8.437416227309134	-4.92704890005261	-0.5699310914431754	0.511021345564722	-0.07242056266092334	0.8565117900420853	0.8309000159878619	-0.21357794297785887	-0.51379920757502	0.22014165396079166	0.974238022444835	-0.048968641130679724
20														8.437593320426139	-4.8539254961211675	-0.4366521716121615	0.5110893864925183	-0.07211101224944605	0.8564973093519104	0.8310783276573378	-0.2127919493054788	-0.5138369387354882	0.2193090338152633	0.9744329572747092	-0.048825807355136835
21														8.528058160376997	-4.750434627666533	-0.27133479734857996	0.5111115570201414	-0.07162516943311498	0.8565248457482847	0.8312975189197342	-0.21204820661788343	-0.5137898335973884	0.21842484134900808	0.9746309009947384	-0.048838463405841
22														8.549779239439601	-4.724061075088188	-0.2633909327168525	0.5111433869904545	-0.07124843863746283	0.8565372717679305	0.8314322440681594	-0.2115868633605938	-0.5137620293258438	0.2178367771054977	0.9747587697707307	-0.04891297675812217
23														8.534040284561732	-4.699654777019086	-0.2953725531176676	0.5110895398047692	-0.07102657250146749	0.8565878287139287	0.831505780068358	-0.211535311378936	-0.5136642383432275	0.21768238333650392	0.9747861499008437	-0.049054479371704485
24														8.52161530994716	-4.72348067634818	-0.32776385361017524	0.5109943265839366	-0.07080910594549422	0.8566626341298123	0.8315813321321643	-0.21158298805694825	-0.5135222752852968	0.21761729308196975	0.9747916237227794	-0.04923417584953574
25														8.507286569006112	-4.844995361434351	-0.33732125294356585	0.5109100641334481	-0.07077334679153524	0.8567158453951231	0.8315668601424159	-0.21189529435978205	-0.5134169274002025	0.21787029049422818	0.9747263808947135	-0.049406668657724806
26														8.467148528050625	-4.918990706806888	-0.3544923830747187	0.5107423002753939	-0.07063634541005509	0.8568271759325279	0.8316926256266359	-0.21186437705245448	-0.5132259368099475	0.21778356041646546	0.974743039186886	-0.049460371703425265
27														8.422654659819614	-4.919530678338763	-0.37083148864282095	0.5105584211271547	-0.07058653947985155	0.8569408608885489	0.8318101856353086	-0.21186087069201615	-0.5130368276673469	0.21776573121017267	0.9747474092881094	-0.04945274913105063
28														8.4569046571623	-4.915014698179555	-0.4627690462187429	0.5103959725376747	-0.07028365517448598	0.8570625175753722	0.832007259138704	-0.21159483336080478	-0.5128270149236629	0.21739335766720835	0.9748270791839582	-0.04952063945316129
29														8.535268307422514	-4.907803776637405	-0.4607256999028841	0.5102395315134496	-0.07013786710189662	0.85716760326049	0.832187516462061	-0.21129309465394908	-0.5126589174063636	0.21707039854766702	0.9749030247926993	-0.04944223219478447
30														8.512022180557125	-4.8828983520064995	-0.46711899517920724	0.510065772225203	-0.07007768231066858	0.8572759336679601	0.8323995510902726	-0.21084295163240874	-0.5124999874064845	0.21666539951967495	0.9750048041875995	-0.04921114164577842
31														8.447701093814615	-4.8364289985202165	-0.4353619626551384	0.5099895860622735	-0.07026096759848893	0.8573062571451089	0.832418899327233	-0.21085123570481984	-0.5124651524197418	0.21677038116603836	0.974989821912965	-0.04904537710381934
32														8.487886056980566	-4.856767100707594	-0.39477118223235186	0.509899715081653	-0.07008626120152112	0.8573740120568396	0.8325449209222713	-0.21063021012360927	-0.5123513142657234	0.21649765635262413	0.9750501682344745	-0.04905032333985901
33														8.49183183561184	-4.9041224763297455	-0.3948477054513177	0.5098695912028939	-0.06989640170532802	0.8574074253207986	0.8325977099429691	-0.21058692622560654	-0.512283319951542	0.21636555493959037	0.9750731457339485	-0.04917628599421406
34														8.546652455304418	-4.899306280047915	-0.4016729935941576	0.5098058104950025	-0.06963744116624443	0.8574664205514704	0.8327496586385952	-0.21022802935580293	-0.5121837382331447	0.21593064076882756	0.9751691148006036	-0.049184915534846996
35														8.547447036199175	-4.897983143910331	-0.4009012875702174	0.509716576362758	-0.06959445956175919	0.8575229576981225	0.8328449012230867	-0.21006418822576228	-0.5120960918926827	0.21577391475277086	0.9752074897289083	-0.04911180803947007
36														8.43195895631391	-4.904128227476766	-0.3633231691205531	0.5096149487839732	-0.06948448880683034	0.8575922747968072	0.8329917776700012	-0.20973997417516477	-0.511990079559334	0.21544675052105178	0.9752851116715846	-0.049006618345535546
37														8.444451261581817	-4.852794181721657	-0.33122863127949825	0.5095195912966493	-0.06932778112739024	0.857661614419609	0.8331535916169848	-0.20935822223181533	-0.5118830213629424	0.2150462249392351	0.9753782822822581	-0.04891142598102616
38														8.440539374746333	-4.778186258454641	-0.33063393255148776	0.5094458174149201	-0.0690573155935243	0.8577272563475297	0.8333524719484309	-0.20881622554655505	-0.5117806575535369	0.21444956660222958	0.975513644759266	-0.048831468057076666
39														8.511636642478676	-4.772643389528751	-0.38225245969653865	0.5094042715643029	-0.06903371856836721	0.8577538305438599	0.8334197390611353	-0.20863699276386433	-0.511744217157087	0.21428678600256795	0.9755536637987037	-0.048746511604574605
40														8.521894546279231	-4.795868594212725	-0.40350272841186313	0.5093615599207026	-0.06906482638062683	0.8577766906556523	0.8335059005646961	-0.20834202464945406	-0.5117240608851626	0.21405306584813005	0.9756144989297671	-0.04855547836275462
41														8.502673087915213	-4.7475270117404405	-0.35562056655554153	0.5093700484378505	-0.06933854615004892	0.8577495670486925	0.8334574504725605	-0.20837638219270646	-0.5117889815109922	0.21422145552255328	0.975587745598558	-0.04834995999710914
42														8.502873846968763	-4.747241043959579	-0.3546361279016037	0.5093653214936288	-0.06945335933511726	0.8577430851582306	0.8333785626109804	-0.20867969520263424	-0.5117938610325377	0.21453936850878658	0.9755147439619778	-0.04841325926487833
43														8.52236312840356	-4.795234596321777	-0.40113377353842716	0.5094501751009941	-0.06971638720822204	0.8576713499028636	0.8331350487672278	-0.20939815079255641	-0.511896869457401	0.21528239501918406	0.9753420117062997	-0.048594758930495224
44														8.489202729812583	-4.8714508797044855	-0.4410121221874405	0.509503002518823	-0.06993470553977832	0.8576221938507478	0.832968329551241	-0.20987952449784414	-0.511971041330635	0.21580188226454444	0.9752229089585746	-0.04868085304774733
45														8.425079434771032	-4.851504942958543	-0.4116686308074328	0.5095246603704424	-0.07014683911968794	0.8575920017327014	0.832830005131334	-0.21031888258027925	-0.5120157714202997	0.21628407945876932	0.9751130132408752	-0.04874226483221117
46														8.429769253845308	-4.826898884827773	-0.3581909720466813	0.5096012606630086	-0.07022958340607283	0.8575397138006388	0.8326776437008407	-0.21074971152379177	-0.5120864192433285	0.21668986319504613	0.9750140330822155	-0.04891971464822928
47														8.494877858845454	-4.872139064051586	-0.38935919911867506	0.5096977614431468	-0.07027397965261362	0.8574787226302639	0.8324833905971895	-0.21133715733738556	-0.5121601412725911	0.21720864706464227	0.9748836718872345	-0.04921615515265787
48														8.5795995994588	-4.965133653022141	-0.46616385974912905	0.5097669703250177	-0.07034292559842087	0.8574319266180307	0.8323607253129579	-0.21166070218997757	-0.5122258975344108	0.21751611186792508	0.9748085042544002	-0.04934694632051362
49														8.57933698546439	-4.9656608546306575	-0.4653814018695529	0.5098514623676472	-0.07075770980087709	0.857347556610099	0.8321953521452023	-0.2119271994226702	-0.5123843850204518	0.21795041222602546	0.9747205797809949	-0.049167155316399425
50														8.520164487042617	-4.921011125829557	-0.3786331828017374	0.509871589340961	-0.07108679992247907	0.8573083629941471	0.8321762735330067	-0.21176201951656326	-0.5124836552115448	0.21797617335764324	0.9747325345791269	-0.04881468919608664
51														8.510178895889	-4.897666417793244	-0.3524344539668295	0.5099301151278185	-0.07147192189341944	0.8572415307639911	0.8320695864092628	-0.21185215785692899	-0.5126196119776159	0.21824637696522764	0.9746847837081607	-0.048560182756327924
52														8.53800114381951	-4.8713658796185815	-0.2874991105371808	0.5099168857957888	-0.07166315477785218	0.8572334348516808	0.8320744588194602	-0.2117513698791787	-0.5126533451900946	0.21825871015981851	0.9746926436582856	-0.0483465183627064
53														8.549618933308292	-4.797551782510443	-0.3311734326289519	0.5098916612182027	-0.07190753755849943	0.8572279742649649	0.8320591310640256	-0.21174099778270056	-0.5126825063047944	0.21837604317580445	0.9746768982079446	-0.04813364588954211
54														8.510271171320655	-4.77612502565077	-0.36893687035344563	0.5099118343206678	-0.07212661054527553	0.857197569566656	0.8319612612638703	-0.21199263696001644	-0.5127373417559609	0.21870157972900456	0.9746060095884845	-0.04809100849482198
55														8.480774106250871	-4.778490994335965	-0.4307446563492334	0.5099505772178115	-0.07243574034654737	0.8571484540706287	0.8317986128560715	-0.21242845364106994	-0.5128208456511684	0.21922927825894217	0.9744881813568144	-0.04807606421029004
56														8.505226870306657	-4.8014293128258805	-0.42269615386623427	0.5100064159353238	-0.07241066161935267	0.8571173500686204	0.8317244017796086	-0.21262475805738026	-0.5128598558528379	0.21938089066543304	0.9744472322013589	-0.04821427657813812
57														8.510033224936766	-4.874485400412061	-0.42258207167732525	0.5099748431576363	-0.07234824207763851	0.85714140677873	0.8317612038972435	-0.21258253325236287	-0.5128176734936275	0.21931474879212476	0.9744610810208297	-0.048235283123080896
58														8.478894826177852	-4.8765524565	-0.4065602811824345	0.5100222896533505	-0.07235494881433258	0.8571126095437103	0.8318030030067322	-0.21226645805998917	-0.5128807999639379	0.21904572181564252	0.9745294824502447	-0.04807556125020235
59														8.48707072852249	-4.876365623999649	-0.42752479685573525	0.510025105263778	-0.07232990471692985	0.8571130479022666	0.8318868323318147	-0.21190069515691928	-0.5128960845872725	0.21872057560643987	0.9746109379006862	-0.04790437903504666
60														8.54775200288216	-4.848305994688401	-0.45491384609289814	0.5100707927123642	-0.07230860379283344	0.8570876572669284	0.8319606943087241	-0.21146206146466642	-0.5129573078594939	0.21833274959823679	0.9747077830707237	-0.047702705103892934
61														8.500049943800962	-4.851534454863132	-0.39139457266587413	0.5100781739134757	-0.07234037729065196	0.8570805833237272	0.8320583933096104	-0.21098673156267422	-0.5129945703684687	0.21794285172981437	0.9748084267782805	-0.04742830865559067
62														8.50644871077093	-4.827387266285917	-0.4118334860345611	0.5101753328620592	-0.07231513669297729	0.8570248833868032	0.8320970776625981	-0.21056827864876204	-0.5131037452331273	0.21756742192812728	0.9749007749673675	-0.04725352773682526
63														8.533432256868824	-4.900300849416128	-0.4020302826776813	0.5104426303441342	-0.07220895197297533	0.8568746631697817	0.8320053158368619	-0.2103255200794642	-0.5133520527109123	0.21729122289353048	0.9749610468414971	-0.04728087980533552
64														8.543526564078553	-4.950944308434562	-0.4242325232706161	0.5107673369449667	-0.07199015486441396	0.8566995652577076	0.8319671815798558	-0.20975352661708446	-0.5136478042839935	0.2166733400402981	0.9751004438899072	-0.047241803960979545
65														8.512370636176112	-4.956365194109282	-0.4854472930204384	0.5111726885249371	-0.07184485411463126	0.8564699641221725	0.8318937317596621	-0.2090756807548695	-0.5140429736664743	0.21599838324666082	0.975256723460103	-0.047106494039498986
66														8.490940284015734	-4.911715003738388	-0.4380494610112768	0.5115562791766681	-0.0715577492223698	0.8562649483431817	0.8319108241416249	-0.20812826209184493	-0.5143996570708724	0.21502221724958015	0.9754804534406916	-0.046939653217909216
67														8.468085859388504	-4.842436318771926	-0.3913319840438559	0.5119381069725629	-0.07123609269672299	0.8560635453788773	0.8319088150903313	-0.20728732302954517	-0.5147423521396371	0.21411935457671738	0.97568303501114	-0.04685634628415966
68														8.489344724424255	-4.843833728303378	-0.38323598135526366	0.5123470763082596	-0.0706797767507873	0.8558649674784209	0.8319163650834851	-0.20646369325728797	-0.5150610690712736	0.2131094434901028	0.975898105605816	-0.04698140664474962
69														8.498969757105638	-4.895055295199205	-0.40718159530122006	0.5127881068091269	-0.07017343335024523	0.8556424760184304	0.8318451947264021	-0.20587676909749797	-0.5154108341474496	0.21232505628329823	0.9760586279511155	-0.0471977253316308
70														8.489040059299253	-4.898272550466727	-0.38548541973017936	0.5132425041317122	-0.06953929214629528	0.8554217783061179	0.8318753303449017	-0.2048573299146027	-0.5157682707804154	0.21110558191618145	0.9763184732596488	-0.04729346736895698
71														8.447848700177538	-4.879967606896151	-0.42572391410251215	0.5136758821020593	-0.06886143948076245	0.8552164581550736	0.8319404735191589	-0.20375101027167503	-0.5161013217712098	0.20979069728514954	0.9765979868737746	-0.04737336136165199
72														8.406834871651954	-4.884928231184514	-0.38876652727318883	0.5141258827186812	-0.06804044091987238	0.8550117397545871	0.8320277159249498	-0.20256977930973147	-0.5164255652493565	0.2083373625911768	0.9769012145093462	-0.04753483395065622
73														8.362490097155595	-4.8180040984804196	-0.43028630007972507	0.514654298486056	-0.0673933249354331	0.8547450454983476	0.8320374766356229	-0.20141243128832081	-0.5168623317638384	0.2069893488169146	0.9771853315910314	-0.04758400150969938
74														8.383262801020015	-4.820151584440687	-0.4237766204681931	0.5152003129713927	-0.06659136712832842	0.8544789215294664	0.832034130412105	-0.20034857185598476	-0.5172810218678434	0.20564008204518908	0.9774589707907173	-0.047813356682002955
75														8.407841823574906	-4.87276979771715	-0.49567857431540085	0.5158290073195912	-0.0656291005411247	0.8541740199572028	0.8319362479929729	-0.19958250386312618	-0.5177343946726929	0.20445663227946292	0.9776807481554948	-0.04835121718273802
76														8.395623003432005	-4.976612498167985	-0.5308200062382316	0.5165864772135472	-0.06453293160686291	0.8537996909687435	0.8317693372532892	-0.1988440605902459	-0.5182864161573286	0.203219539329569	0.9779041570144835	-0.049043639021500024
77														8.384044400735645	-5.082110437974528	-0.6433144344447114	0.5173158137391773	-0.06335005252557363	0.8534466120973128	0.8316714264873553	-0.1978955893435442	-0.5188062972660029	0.2017597264566484	0.978173863156944	-0.04968808928465687
78														8.35608545952855	-5.06445997065502	-0.6560199944246784	0.5180137074241447	-0.06222986700771327	0.8531056456107273	0.831676469085092	-0.19648447106990838	-0.5193342886797803	0.1999401152616644	0.9785301713695811	-0.05002653324558551
79														8.378087745051326	-4.970401143038811	-0.6756357992187579	0.5185923945782549	-0.06128429764173998	0.8528224687167604	0.831713190000374	-0.19514733565428785	-0.5197794599312616	0.19828035168667835	0.9788573707387563	-0.05023096540397967
80														8.405070166865011	-4.848897805385487	-0.5650950345971198	0.5193109740882841	-0.060406574171915084	0.8524477450191832	0.8315697794150544	-0.19422201243002662	-0.5203551785571353	0.19699699021831574	0.9790959379368517	-0.050629340905065406
81														8.439956242331139	-4.727670631747191	-0.48001077414131393	0.5200347037747948	-0.059605035329879985	0.8520628771594179	0.831280033731493	-0.19395298076707002	-0.520918176656312	0.1963094811496111	0.9791983869548051	-0.05131380511985226
82														8.437615263175829	-4.757883083021259	-0.48770589924471924	0.5208944081612094	-0.05887252162419043	0.8515885401671351	0.8307357830588901	-0.19449188602043072	-0.5215850506079984	0.19633408846126532	0.97913580900191	-0.052402225508646344
83														8.41756874335728	-4.889559825914161	-0.5811698949618498	0.5218684602180649	-0.058577069251743	0.8510123601849173	0.8298685764447714	-0.19601542665335453	-0.5223945810816122	0.19741189442167756	0.9788496715388839	-0.053682999814322396
84														8.332051719123362	-4.9735215368653884	-0.5696597278039145	0.5227267458951345	-0.05819149232864407	0.8505119042943776	0.8290435133759302	-0.19772382992983883	-0.5230603598124883	0.19860413403345106	0.9785290170957841	-0.05511225495642011
85														8.251934380622478	-5.007866179248356	-0.5836133270702566	0.523513386911528	-0.057907953656218036	0.850047294347656	0.8281510176763238	-0.19990138342296734	-0.523646186682624	0.20024890922571936	0.9781033206205435	-0.056694519532107274
86														8.230465452942783	-5.112909818371037	-0.6820635987933635	0.5242716723988856	-0.05730909376234811	0.849620433659769	0.8273915282180921	-0.20169260340793027	-0.5241596634265759	0.201401272471168	0.9777708123597624	-0.05832465983033763
87														8.223994447673757	-5.21485167572369	-0.6720601924695072	0.5250287115408672	-0.05659800046950508	0.8492005171928428	0.8267658207996065	-0.20289900941641936	-0.5246811122342692	0.20199784557091427	0.977562610946578	-0.05973451317303402
88														8.254958362690617	-5.291023652942346	-0.6982981729009055	0.5257688155063427	-0.05558562430828823	0.8488093961610669	0.8264126525501017	-0.20301893837901103	-0.5251908589880103	0.20151744427260387	0.9775958004358023	-0.06080436352862201
89														8.258071734637905	-5.270694150911551	-0.7300000926443311	0.5263728096483657	-0.054457970220597174	0.8485080993970164	0.8263203161399106	-0.2023467943076023	-0.5255953861744547	0.20031575174539445	0.9777986010998831	-0.06151012347401094
90														8.295554143454423	-5.149155964242833	-0.7212525641169509	0.5268197130709105	-0.05304347471620324	0.8483203284785261	0.8265563565288245	-0.20070524711829293	-0.5258535853837826	0.19815544252348355	0.9782145948457402	-0.06189205949963153
91														8.412382745523416	-5.045609213179002	-0.6333394446280665	0.5271947808712338	-0.05173815131677101	0.8481679236568985	0.8268453563014089	-0.1989248199238725	-0.5260757291313207	0.1959398371565303	0.9786480877805759	-0.06209267668972393
92														8.47052120934259	-4.9943474929569085	-0.5898254080172821	0.527533990836498	-0.05038967222756968	0.8480381886713094	0.8272109670996379	-0.1968652351832717	-0.5262756835407814	0.19346809665213327	0.9791348018066934	-0.062170213677995356
93														8.441836346686314	-4.896557008097982	-0.4457376842741532	0.5278384690829067	-0.049063395464485404	0.8479264907889766	0.8276159065353579	-0.19466163826846444	-0.526458695280356	0.1908886109904694	0.9796426031018315	-0.062144254617754024
94														8.480989935235868	-4.773104651750545	-0.4349961209912362	0.5281469223378621	-0.04770013530195477	0.8478121994387794	0.8279325014193155	-0.19288447118486723	-0.5266149958644267	0.18864941430759952	0.9800613643379227	-0.06237884748446648
95														8.547954536738862	-4.747402895773964	-0.49484537424885483	0.5284592744661176	-0.04636202347877094	0.8476917824361035	0.8281014952664462	-0.19182129596603387	-0.5267376044591722	0.18702595747173822	0.9803342048469313	-0.06297728192701241
96														8.557022635692478	-4.797461317017072	-0.5236122545255213	0.5288072023665141	-0.045151130989385446	0.8475401572171548	0.8281593455936678	-0.19113223000942248	-0.5268971142049392	0.18578224089284784	0.9805252908630169	-0.0636797687403724
97														8.49089201593027	-4.873895776712403	-0.4741689876097383	0.5291627299306999	-0.04407748721647836	0.8473747579276659	0.8281347967973927	-0.19076000381573632	-0.5270705638503838	0.18487715809593752	0.9806466214008497	-0.06444098346136781
98														8.432727643240407	-4.977030094612411	-0.5248569455586894	0.5295329316856329	-0.04278972469997111	0.847209486325855	0.8281618413874884	-0.19019152412066723	-0.5272334858697255	0.18369223916677363	0.9808140616919999	-0.06527585814938394
99														8.418444659693076	-5.055525863238057	-0.638390823819674	0.5299805820785386	-0.04153544973102474	0.8469919651539413	0.8281591305288261	-0.18949352100644087	-0.5274890141209774	0.18240898317087467	0.9810030641706595	-0.06602992462773608
100														8.43762131613077	-5.007073717092594	-0.6387012734582692	0.5303410453333717	-0.04021603056062267	0.8468299985951451	0.8283016453593346	-0.1883318204419927	-0.5276812576774202	0.18070628082533674	0.9812817109754731	-0.06656909023955823
101														8.450820202824218	-4.955757092090049	-0.5372085029479138	0.5306611975649297	-0.039047643622845685	0.846684105748099	0.8284451669165305	-0.18718854898629683	-0.5278627213026574	0.17910136462795856	0.981547619148408	-0.0669848679366842
102														8.41783004832131	-4.933966739853885	-0.526109756667256	0.5309942481427097	-0.03791188142385932	0.8465269031083786	0.8285759818286096	-0.18603307671209673	-0.5280658450475539	0.17750197400624756	0.9818117862482274	-0.06736961932467073
103														8.348149259111414	-4.93740368885823	-0.47496830356167574	0.5313341617862282	-0.0367902537494606	0.8463630933281393	0.8286789572846192	-0.18498255036995814	-0.528273264336084	0.1759977109868266	0.9820529177634351	-0.06780023923056089
104														8.342088641301364	-4.987499200012831	-0.4548107541463497	0.5317180410476849	-0.03556885078819322	0.8461742029145181	0.8287621079851586	-0.1839355371192154	-0.5285083599647812	0.17443994150540582	0.9822945459678952	-0.06832372771825035
105														8.311341101225075	-5.041544203315969	-0.5194888717313505	0.5320349551846899	-0.034320424391980686	0.8460265450511468	0.8288658921277953	-0.18300880050361606	-0.5286672978399766	0.1729743892280584	0.9825120291415178	-0.06892004979248162
106														8.333020665790006	-5.06874746137299	-0.5939909383616743	0.5323933136180947	-0.03309128229606817	0.8458500615657292	0.828947313317185	-0.1820345324909022	-0.5288759596777304	0.17147510419581802	0.9827351606698631	-0.0694830383922059
107														8.306752375076792	-5.074609212993591	-0.6829466378549163	0.5327315398874709	-0.03206069972316261	0.8456767810117437	0.8290208223933414	-0.18103851336907006	-0.5291025729623552	0.17006346593960553	0.9829532889259681	-0.06986593835504093
108														8.341099859461847	-4.999831101615275	-0.6510281359983122	0.5330719877841309	-0.03092258766689482	0.845504612294847	0.8291887782841416	-0.17953579344476317	-0.529351366145222	0.16816725545577837	0.9832653214896494	-0.07006483960110424
109														8.399263688556534	-4.896591692048688	-0.5346852751246511	0.5334432521020972	-0.029968799154448167	0.8453047780912983	0.8292896451620827	-0.17817372170898654	-0.5296534804183921	0.16648417706702884	0.9835425745587272	-0.07019275473084971
110														8.426250951530829	-4.8220100838602535	-0.47897184899398754	0.5338664367433523	-0.02904166735682906	0.8450699434224908	0.8292977367754413	-0.17713289007285526	-0.5299898140847321	0.16508146927528655	0.9837583650529094	-0.07048111584204364
111														8.411746377983262	-4.900230934534214	-0.5108123946080495	0.5343475829946149	-0.0281653301287072	0.8447954632492736	0.8291615212105268	-0.17669270991898506	-0.5303497506413397	0.16420667553926926	0.9838629988165157	-0.0710617145030627
112														8.466152396890172	-5.001699646725925	-0.5992724772129816	0.5347909991272572	-0.027328841370413193	0.8445423149149014	0.8290060138149136	-0.17647968448347595	-0.5306636882464446	0.1635469850262517	0.9839248220234933	-0.07172397294391486
113														8.473595939631696	-5.053823605428914	-0.6265513334887455	0.5352102590268817	-0.026753838308411382	0.8442950969703342	0.8288009056713883	-0.17648914763126944	-0.5309808278334303	0.1632146972262763	0.9839389274259636	-0.07228519699896807
114														8.411069164809712	-5.110303688846279	-0.6733713778583076	0.5355852448171254	-0.026263207866354443	0.8440726801921432	0.8286448921828125	-0.17631541158492575	-0.5312819574359482	0.1627761904994532	0.9839832923125302	-0.0726690598279546
115														8.342608342591634	-5.138445429087973	-0.6191454614945225	0.5359480452222647	-0.025709665228254186	0.8438594112387943	0.8285571783880041	-0.1758112075924212	-0.5315857611210104	0.16202683408664992	0.9840881222729729	-0.07292374535850144
116														8.35455688126301	-5.090583905318335	-0.5929132583445215	0.5363655780212485	-0.024952544295534784	0.8436168189688442	0.8285314407992841	-0.1748406852361066	-0.5319458491173997	0.1607719450681449	0.9842805013406232	-0.07310455772150806
117														8.408376859190605	-4.994828522267134	-0.6311961751468567	0.5368291048965899	-0.02442207000601826	0.8433374618932495	0.8284410489052039	-0.1739340460879133	-0.53238367377328	0.1596870083155565	0.9844544225651636	-0.07314061298019459
118														8.414598001184574	-4.970894722261199	-0.5792863434669745	0.5372308226017908	-0.023802434352379442	0.8430993342219553	0.8284041291905415	-0.17298383473792206	-0.5327505904824735	0.1585233168548532	0.9846370077537531	-0.07321421293076816
119														8.427894889253636	-4.947509087303453	-0.5510290260084183	0.5376753839126361	-0.02345322541241257	0.842825680524837	0.8282442756059317	-0.17245004892164897	-0.5331720177887498	0.1578499333557205	0.9847390145844106	-0.07329714656737416
120														8.407435408625597	-5.049365724453706	-0.5545553861846196	0.5380407099576686	-0.022882041438245515	0.8426082165561087	0.828189027905331	-0.17171041178517293	-0.5334964559786587	0.1568920918512804	0.9848816917093061	-0.07343653620878804
121														8.42785653895911	-5.026416273630481	-0.5497799506656212	0.5384061635294857	-0.022526263242283684	0.8423843365933397	0.8280734288730827	-0.17120673340415613	-0.5338376633691695	0.15624723827267234	0.984977574313963	-0.07352536045981153
122														8.41282316925599	-4.959610930117986	-0.6074635874202652	0.5388174354247679	-0.022106073926837055	0.8421324674763573	0.827964802672375	-0.1705114042660959	-0.534228552728979	0.15540288548791997	0.9851077009701761	-0.07357146642063903
123														8.478528753764246	-4.910094241850921	-0.5899914379913782	0.5392259053253551	-0.021709659519423774	0.8418812943103096	0.827817567497628	-0.17005143584870447	-0.5346032024858289	0.15476917641559473	0.9851960210279702	-0.07372450191282312
124														8.460646659413683	-4.81077251902276	-0.4721596011034994	0.5396715992446361	-0.02141215042754463	0.8416032823027751	0.8276117892123448	-0.1697470370416163	-0.5350183826489825	0.15431555762617677	0.9852550244630371	-0.07388670682106346
125														8.47202852770679	-4.81647160007888	-0.520559617055626	0.5401894132241304	-0.021508792234486873	0.8412685479067805	0.8272252901310263	-0.17004979520566688	-0.5355197349474151	0.15457592700096828	0.9852007100114798	-0.07406648219449141
126														8.48023170443007	-4.842019504917137	-0.4679232802621628	0.5406751647511343	-0.021574962477456383	0.8409547474242773	0.8268221571201009	-0.17060416488472174	-0.535965800606018	0.15503382442743557	0.985103415849363	-0.0744027779408809
127														8.416564494539891	-4.8999690505191555	-0.5127184625217684	0.5411056049439502	-0.02167943072643519	0.840675161154188	0.8263913627542897	-0.17152822036479679	-0.5363351425961141	0.15582695486773174	0.9849406438470615	-0.07489918714369656
128														8.429532281508834	-5.006562939333142	-0.6361243534851648	0.5415259344809998	-0.02179803769946237	0.8404013968556534	0.8259518277113349	-0.1725317739618139	-0.5366901948740032	0.15669473694028752	0.9847627290500199	-0.07542630104394438
129														8.362665559256964	-5.135580422636589	-0.6548181307261882	0.5418759538115163	-0.02202147663131865	0.840169926412411	0.8255525280635423	-0.1734898631871463	-0.5369956152327501	0.15758640197921253	0.9845894179495746	-0.07583009938648702
130														8.308152559782464	-5.164692988295478	-0.6463796105510812	0.5422098756645635	-0.022106368177062075	0.8399522362717058	0.8252714432190067	-0.1738572976898048	-0.5373087427608236	0.15790977087893227	0.9845227008688116	-0.07602338939395131
131														8.321480994872518	-5.192942560716862	-0.6927748437062486	0.5424417982872223	-0.02222580202023411	0.8397993267415029	0.8250916126465366	-0.17397671296506334	-0.5375462157677322	0.15805292218513955	0.9844989167441622	-0.07603391820963123
132														8.320006489771117	-5.117909454723776	-0.618281890115897	0.5426224680498126	-0.022259250404619124	0.8396817152582012	0.8250098100196179	-0.17374417958656937	-0.5377469418148134	0.15785965456355355	0.9845392251359083	-0.07591339558906021
133														8.339420286007613	-5.045003927405533	-0.6126969973719181	0.5427667272455519	-0.02247268683210718	0.8395827881404545	0.824938382822644	-0.17347654888092098	-0.5379428887292097	0.15773694665839805	0.984581568654884	-0.0756187167569922
134														8.306338972215904	-4.99821095746567	-0.5960835486745102	0.5429194567512917	-0.022425763656416076	0.8394852879028376	0.8249128800025243	-0.17305427085306266	-0.5381179793924907	0.157344221015023	0.9846569476035513	-0.07545522943596553
135														8.34293692444904	-4.999575752516679	-0.6347386513994243	0.5430569286087972	-0.022426248996629927	0.8393963519374621	0.8248511552188812	-0.17288858751178796	-0.5382658339912119	0.15719333326848117	0.9846860411644509	-0.07539002793356839
136														8.332817383261842	-5.003443549039242	-0.6875709642487442	0.5431818378009492	-0.022276964598793414	0.8393195028899586	0.8248452843189351	-0.17251866525991755	-0.5383935057871252	0.1567920534338333	0.984754307929242	-0.07533395645259422
137														8.364420445670481	-4.975590636520033	-0.6268083208851788	0.5432272683709156	-0.02233099001523442	0.8392886641574593	0.8248690574470271	-0.17215133752264414	-0.5384746559083515	0.1565093382668461	0.9848173657456005	-0.07509715814310011
138														8.347727160864428	-4.978296740996354	-0.6551061407600883	0.5432573606811361	-0.022481536962641546	0.839265167013122	0.8248399006200763	-0.17211670535284201	-0.538530387335335	0.1565585462720862	0.9848199938233791	-0.07495999836506592
139														8.31965964288575	-5.027577190292813	-0.6345786725370484	0.5432597131139429	-0.022756310046778916	0.8392562388570082	0.82478242045224	-0.17229212765806376	-0.5385623284820447	0.1568529343694307	0.984783008129259	-0.07483036736236662
140														8.382558540736204	-5.075129235825099	-0.6637235930704137	0.5432479755370745	-0.022882757001063958	0.8392603985098426	0.8247908636177492	-0.1722052648036471	-0.5385771793035726	0.15684918988492402	0.9847952712142435	-0.07467667257254448
141														8.382783808147776	-5.0750169580766	-0.661734099027292	0.5432519670689002	-0.023095949159493978	0.8392519749206391	0.8247838114106985	-0.1720966397773675	-0.5386226981962243	0.15687244726405086	0.9848092829120578	-0.07444267310908764
142														8.389930909823466	-5.075716884787163	-0.6829927740525362	0.543231038074641	-0.02316137578236288	0.8392637189490653	0.824829216106483	-0.1718538218011941	-0.5386306974073125	0.15670610559104708	0.9848501482988117	-0.07425215058364301
143														8.389282044281755	-5.051008424634422	-0.6817082518816813	0.5431298677340345	-0.023203673409776582	0.8393280266472125	0.8249469072380315	-0.1714947552421458	-0.5385648978190505	0.15643703849669982	0.9849117414594721	-0.07400212511579068
144														8.435607158879511	-5.023314264480491	-0.6664297555930674	0.543045623364195	-0.02333324912401269	0.8393789432850398	0.825027182036542	-0.17124645234436126	-0.5385209387389809	0.15630610943221573	0.9849518831114479	-0.07374407168970973
145														8.43510728435132	-4.998339776883564	-0.6651126947939962	0.5429749956109882	-0.023618738005684925	0.8394166482482148	0.8250352989331106	-0.1712975192178231	-0.5384922612481756	0.15650849707156866	0.9849361985046744	-0.07352397717452752
146														8.405351715563466	-4.998189811398415	-0.6465804774846009	0.5428925989727187	-0.02387922224428729	0.8394625713667374	0.8250323978183218	-0.17148096270856764	-0.5384383177102955	0.1568093381492221	0.9848979958216743	-0.07339461353295715
147														8.38680014048999	-5.096246736570807	-0.6470351850992728	0.542861165340373	-0.024226977662580418	0.8394729350721375	0.8249671635845001	-0.17179348283643248	-0.5384386485592146	0.1572607203742789	0.9848350383735672	-0.07327354924594309
148														8.31961330666829	-5.0959661660942785	-0.5896607423824782	0.5428680649664941	-0.02432088719755371	0.839465757780184	0.8249328437227212	-0.1719203645644387	-0.5384507327468087	0.15741685864950727	0.984810582139507	-0.07326697700169349
149														8.339397205331915	-5.073979014421725	-0.6612344633974521	0.5429321744195751	-0.024527989350661417	0.8394182698264592	0.8248013242392549	-0.17235216779923662	-0.5385141648908368	0.15788422819649756	0.9847299670434112	-0.07334481913181506
150														8.369840218746152	-5.073176806212047	-0.6782479932022639	0.5429386515860224	-0.024512946328482832	0.8394145198150017	0.8247864884407128	-0.17242842088622057	-0.5385124772522208	0.1579394475727678	0.984716992405931	-0.07340010740746672
151														8.35885221334494	-4.97458241084344	-0.6592773523779804	0.5429304946144752	-0.024664435168929133	0.8394153582437471	0.8247618114154848	-0.17251762293836106	-0.5385217026326286	0.15809627588380792	0.9846975857660536	-0.07332279412417217
152														8.32761910156898	-4.950602755365435	-0.6431133042103738	0.5429505153317549	-0.024808017456440845	0.8393981773692758	0.8247082223067659	-0.1726791075028123	-0.5385520159572756	0.15830693592068346	0.9846656732627133	-0.07329683443022289
153														8.314726956004547	-4.973434740781257	-0.5953799021140342	0.5429858509454903	-0.02484061021721312	0.8393743561469096	0.8246170364791756	-0.17308386195379352	-0.5385617140861972	0.15866035680441537	0.984593784672236	-0.07349809768625973
154														8.37739316058111	-5.021081225494582	-0.6276015599335331	0.5429996451610534	-0.02483388323630248	0.8393656316518904	0.8245399908932813	-0.17351088772641343	-0.5385422687757206	0.15901317169555085	0.9845187911278275	-0.07373982060951614
155														8.397185011149594	-4.998934502733621	-0.7000186067175557	0.5430024931036616	-0.025129800876246777	0.8393549818706796	0.8244231328781624	-0.1740318605480608	-0.5385530702628448	0.15960824057223483	0.9844193235720747	-0.073782144990066
156														8.316542798953467	-5.074174777564703	-0.6703263325462334	0.5429860255501819	-0.025398398577608616	0.8393575503960817	0.82432751306304	-0.1745132919306829	-0.5385436492493628	0.16015719548156937	0.9843271977798896	-0.07382168005585618
157														8.295584943098648	-5.123806934175616	-0.6747273072574776	0.5429484815786119	-0.025736194620456232	0.8393715474317309	0.8242297584024465	-0.17504390251028717	-0.5385210651012775	0.1607863542572106	0.9842242023443784	-0.07382728360333796
158														8.298021608114935	-5.172064108389624	-0.6723331273692068	0.5429357324573868	-0.025884182645148135	0.8393752435649708	0.8241718358844629	-0.17535315010764788	-0.5385091064059729	0.1611259611477795	0.9841652716064097	-0.07387247666138538
159														8.25849312400492	-5.1750541623043285	-0.7098865077504954	0.5428784614052999	-0.025924338534020153	0.8394110463972865	0.8241685503756109	-0.17557170214022305	-0.5384429198897025	0.16133560274774428	0.9841252491828252	-0.07394807101516393
160														8.32422588960549	-5.125461317352724	-0.769232518864502	0.5428763273557247	-0.025905553177828	0.8394130065178349	0.8241471404967489	-0.17572264712578672	-0.5384264500357853	0.16145211057088044	0.9840988027640601	-0.07404567773037968
161														8.32805609612973	-5.145698142560766	-0.691399744226788	0.5428857628569728	-0.02603437675780501	0.8394029185760776	0.8240949179230908	-0.1759212252293892	-0.5384415370001894	0.16168677973334322	0.9840599238565835	-0.074050330983988
162														8.331951004169309	-5.073123684219477	-0.7181977993596241	0.5428843220684543	-0.026171349065950145	0.8393995909817584	0.8240428742238601	-0.1761554604840051	-0.538444607348377	0.16195664325107	0.9840143872066794	-0.07406572403689404
163														8.264643804419347	-5.073041260129256	-0.6613996662858141	0.5428160255977994	-0.02648960672731543	0.8394337752852468	0.8239854870594308	-0.1765651455461054	-0.5383982415403268	0.16247670439063772	0.9839324418443145	-0.07401533906321409
164														8.218213124591108	-5.075172930671016	-0.6755255161004621	0.5427989774156091	-0.026676412026665375	0.8394388835156212	0.823877539686083	-0.1771638871483754	-0.5383667492437518	0.16307994885140248	0.9838197630317564	-0.0741862800709312
165														8.211105167302394	-5.1262739928707	-0.7283091382708398	0.5427947941924547	-0.02688826732092836	0.8394348292023925	0.8237588401179761	-0.17775887191730583	-0.5383522608684523	0.16369234779017067	0.9837066658995282	-0.07433714239716688
166														8.268207389220208	-5.19698170351114	-0.7358926997977778	0.5428006959112478	-0.026914022100039736	0.8394301876467538	0.8236963287390808	-0.17809494236835144	-0.5383368364923344	0.16398708040582316	0.9836451732800873	-0.07450107746040943
167														8.314033481519006	-5.2213480327586685	-0.7988848098611092	0.5426777747596238	-0.026962012159544524	0.8395081194856022	0.82371727282678	-0.1784109827261992	-0.5382001260585922	0.16428842694710982	0.9835865854834445	-0.0746105999725489
168														8.354720619604564	-5.216566718466486	-0.7610155122762632	0.5425473594525869	-0.02713622574293062	0.8395867959916086	0.8237734783966111	-0.1784632217092265	-0.5380967708391422	0.16443727996222246	0.9835723174986133	-0.07447064662693278
169														8.312727624286776	-5.145525208762089	-0.7997025778853156	0.5423914952885851	-0.02730217096876658	0.8396821168150512	0.8238555771978162	-0.17846319082701317	-0.5379710749100682	0.16454012811064067	0.9835677307538274	-0.07430387110440911
170														8.338454734308732	-5.114837570161659	-0.7153309264815563	0.542281109624298	-0.02731101160395394	0.8397531225245958	0.8239377663477276	-0.1783889146705303	-0.537869828405152	0.16449241724334124	0.9835809594374216	-0.07423436469455069
171														8.332406340825708	-5.11269163631722	-0.6911712037959789	0.5421632218618232	-0.0274187354873357	0.8398257282345449	0.8239792611361627	-0.1785231301862843	-0.5377617215886557	0.16467306421486022	0.9835536106043061	-0.07419620603051083
172														8.355618819740263	-5.08541534743283	-0.6854499581157505	0.5420473795162928	-0.02743276979906578	0.8399000425649896	0.8240059551611094	-0.1787974543884367	-0.53762966451196	0.16492066037506525	0.9835033876125523	-0.07431192593444197
173														8.325860006627481	-5.136857882139787	-0.7448784872007869	0.5419641110849549	-0.027607677662497276	0.8399480450777768	0.8239527427737864	-0.17931959496642613	-0.5375373108321244	0.16545930004520715	0.9834034263694433	-0.07443736315446403
174														8.319651940710528	-5.13471034903415	-0.7226939805672852	0.5418707061559628	-0.027610018527207847	0.8400082289400297	0.8239580022414126	-0.17964178010229948	-0.5374216606948562	0.16573879555607457	0.983344556968006	-0.07459312253162065
175														8.321523550269431	-5.157663211063125	-0.7228597924652175	0.5417802029855993	-0.027641463371353148	0.8400655695572656	0.8239617349562227	-0.1799427348644294	-0.5373152440583097	0.16601587568908643	0.9832886461625597	-0.07471390330444544
176														8.36791546860023	-5.129168447395446	-0.7111343690998723	0.5416876250608085	-0.027630671049222677	0.840125623269134	0.8239831534411471	-0.18017330846267748	-0.5372051207525819	0.16621155104614138	0.983246726378981	-0.07483044409766276
177														8.337304645180751	-5.104045704658582	-0.6959867067423444	0.5415256056272727	-0.02773865164279049	0.8402265085410331	0.8240400073494456	-0.18038047728759116	-0.5370483681206243	0.16645745623894503	0.9832057010710119	-0.07482288850291055
178														8.325462693818112	-5.125428809983294	-0.647663479772511	0.5413786306591178	-0.027782528921764138	0.8403197661321377	0.8241191484919205	-0.1804397347045651	-0.5369070042648901	0.16654371004217217	0.9831935888859621	-0.07479010241289552
179														8.316088635752529	-5.050088565911945	-0.6270460221610753	0.5412343349802928	-0.027749633832979237	0.8404137983520832	0.8242157085808065	-0.1804348740938497	-0.5367603952783548	0.1665348623174117	0.9831954098920888	-0.0747858649749307
180														8.37992005217823	-5.096009772792437	-0.6578101646855347	0.5411226672302956	-0.027752097760703087	0.8404856215780558	0.8242608550162933	-0.18058769668172914	-0.5366396618728406	0.16667423885345828	0.9831672822450246	-0.07484512826865997
181														8.400672576313315	-5.0722508972736176	-0.7287667823347246	0.5409781007497821	-0.027877181536609952	0.8405745399777069	0.8243056394984933	-0.18078783950727245	-0.5365034666964164	0.16692185956350558	0.9831269601815769	-0.07482294410134976
182														8.356167217695942	-5.045761336670111	-0.6654338316805816	0.5408439506720714	-0.028019994801181336	0.8406561133500233	0.8243723236049545	-0.18080813154703573	-0.5363941569784644	0.16702722261833147	0.9831191684927169	-0.07469007595788582
183														8.328059104240902	-5.069202999716269	-0.6463411109897252	0.5406794922674286	-0.028251577901842295	0.8407541465776383	0.8244279782547783	-0.18095011735995353	-0.5362607236206646	0.16728477310315865	0.9830864170425081	-0.07454462632778808
184														8.351508106445483	-5.041549632311495	-0.6393385934394429	0.540509047749144	-0.028320240602418334	0.8408614233472332	0.8245116603980006	-0.18105324303164871	-0.536097234702302	0.16742309031028502	0.9830654541585438	-0.07451054738095997
185														8.35042129870801	-5.043021688922676	-0.7156790179094682	0.5402872344389658	-0.028542296847580972	0.8409964575388884	0.8245739046686802	-0.18137579206263543	-0.5358924311772828	0.16783199945702026	0.9829995724029166	-0.07445979192787577
186														8.361007216320308	-5.038356747541095	-0.6607268328851535	0.5401151958214183	-0.02881220817464092	0.8410977540707687	0.8246140967947243	-0.18160994130371105	-0.5357512674619471	0.1681878907954169	0.9829484655259211	-0.07433133598977712
187														8.36339966535658	-5.060939096445035	-0.6576706556167308	0.5399044671750906	-0.029195999424059704	0.8412198047728146	0.8246587854765687	-0.1818879252591225	-0.5355881535109254	0.1686447563984495	0.982885739169392	-0.07412536594678959
188														8.314344443369947	-5.134504527743602	-0.643121899771372	0.5397541334086956	-0.029410565143268952	0.8413087983173486	0.824706411413529	-0.1820313019030064	-0.5354660961264637	0.16889289636230015	0.9828527986354059	-0.07399706597496472
189														8.35981820311157	-5.08132094832461	-0.6297384447020221	0.5395905520014621	-0.02958223452417602	0.8414077059257983	0.824776212620254	-0.18212151826813772	-0.5353278917443948	0.16907464412663242	0.9828309335711131	-0.0738723272219548
190														8.365654609036868	-5.0315316014792435	-0.653875326164283	0.5394320673753926	-0.02965679141919919	0.8415066959982123	0.8248690272079724	-0.1821205803192384	-0.5351851849380335	0.16912756321807215	0.9828288604568457	-0.07377871246514844
191														8.396949675041077	-4.977061225753481	-0.5939447743914822	0.5392763740229808	-0.02976299674106686	0.8416027307736221	0.8249628181246452	-0.18208331906618436	-0.5350532811129057	0.16916660761648605	0.9828325538680706	-0.07363986640873621
192														8.397834807933638	-4.975756490861673	-0.592360246488439	0.5391527722645012	-0.02995458575398402	0.8416751219751064	0.8250083675442826	-0.18215327772380657	-0.5349592291907787	0.1693383643520307	0.9828137698500065	-0.0734956607684964
193														8.397543946361269	-4.95008027731037	-0.5917443288222908	0.538977779803266	-0.03013641612087614	0.841780701431039	0.8250684140397444	-0.18233438321779602	-0.5348049035400924	0.16960266811664138	0.9827746278369096	-0.07340957599483247
194														8.413604604291233	-4.922120163028526	-0.5613054499225036	0.5388259358657135	-0.03039062942583859	0.8418687667811056	0.8250672698062306	-0.18273760319200127	-0.5346690272253813	0.17009000891566534	0.9826919039163517	-0.0733894464097179
195														8.385779520135523	-4.997473678662172	-0.6184877827123171	0.5386166502901885	-0.030791362983263126	0.84198812105386	0.825028288095568	-0.18347356045440547	-0.5344771056427764	0.17093983699615728	0.9825422864079776	-0.07341816905855544
196														8.325434023769363	-5.0245295326845705	-0.6613219259760997	0.5383830382656911	-0.03119350485992939	0.8421227163319831	0.8250252226333787	-0.18408615466326506	-0.5342711574472622	0.17168892255048956	0.9824150105306041	-0.0733734349584779
197														8.296413002427082	-5.023247820081105	-0.6434654113650823	0.5381756152114829	-0.031659909376417106	0.8422378864252189	0.825018093732788	-0.18458232651523498	-0.5341109526603445	0.17237213291381942	0.9823069860672382	-0.07321770904801891
198														8.329033155304964	-4.992768899811953	-0.5818324668172509	0.5379664974226847	-0.031874991844188016	0.8423633613504937	0.8250947420525367	-0.18476444050812874	-0.5339295535564377	0.17265779532945302	0.9822657921452076	-0.07309719073481294
199														8.384159382260783	-4.988340087450156	-0.5896772530643373	0.5377450122009456	-0.03205671013100808	0.8424978748866857	0.8251803553729199	-0.18496043332711237	-0.5337293501486203	0.17293837908233833	0.9822229917075976	-0.07300898301818831
200														8.401356543045654	-4.93205834389623	-0.4832590993567233	0.5375454471772181	-0.032117551013547574	0.8426229020955559	0.8252770182056117	-0.1850906796596341	-0.5335347069542797	0.17309747381374196	0.9821964687474838	-0.07298877543344609
201														8.3769608944756	-4.882492361988625	-0.4917438885307861	0.5373164983834399	-0.032342118425001565	0.8427603265108907	0.8253331991122846	-0.18545142548057392	-0.5333224908348662	0.17353988304721663	0.982121049648671	-0.07295308649366447
202														8.369276458765958	-4.882654718723509	-0.5458778957781942	0.5370902718285426	-0.032506292126114	0.8428982031534733	0.825335220122882	-0.1861444416901486	-0.5330778754108791	0.17422920057170704	0.9819845150510647	-0.07314778101944924
203														8.384982175365954	-4.881091290412367	-0.5940553692706845	0.5367914231613317	-0.03260427317861542	0.8430847699910885	0.8253882195291606	-0.18684706931352335	-0.532749903567734	0.17489784184750412	0.9818478161402825	-0.07338672126239043
204														8.41242504119832	-4.925401268509069	-0.5862835144936139	0.5365104593199324	-0.03286332568590683	0.8432535377128147	0.825399588802904	-0.18761371599923626	-0.5324627802700911	0.17570442750344267	0.981692974098226	-0.07353134543762621
205														8.407129809846772	-4.921691875155429	-0.5633176912551094	0.5361885521994598	-0.03340169235823498	0.8434371129123102	0.8253575416855916	-0.18863934313204261	-0.532165506779074	0.17688065149406346	0.9814782346900606	-0.07357791758889581
206														8.409221329241603	-4.918130392920881	-0.5632050245913438	0.5357971675680613	-0.03388016144991762	0.8436667173038004	0.8253732960414215	-0.18961562205701837	-0.5317939808362354	0.1779896553391888	0.9812736878832825	-0.07363173269847237
207														8.435500239615289	-4.964466218942797	-0.6311174811573192	0.5353632553242873	-0.03445039392444843	0.8439190454107737	0.8253959758515523	-0.19063365335467244	-0.531394668073282	0.1791861264067196	0.9810565633882178	-0.07362303672257872
208														8.385576759877827	-4.987105159513507	-0.6201216357681019	0.5348814213623103	-0.03500540391589424	0.8442016860786994	0.8254826482383909	-0.1914664846004397	-0.5309604342435335	0.18022281359130604	0.9808747152268906	-0.07351551189918126
209														8.335761666801968	-5.0096643377517385	-0.6090369193513767	0.5344458714297541	-0.03543704779772283	0.8444594875747871	0.8255634602395027	-0.1922426940863755	-0.5305541628220352	0.1811424401653825	0.9807073784844251	-0.07348778236643594
210														8.332495944654923	-5.029297545742509	-0.5843902415976874	0.5340049562262179	-0.035677066786849676	0.844728272068197	0.8257051733858728	-0.1928223058511783	-0.5301231225008398	0.18179569128458706	0.9805848791775862	-0.0735093283783618
211														8.396658157633299	-4.995423053945517	-0.5397965754474024	0.5335163946052472	-0.0359375099372794	0.8450258884004236	0.8258966214578837	-0.19327809608673657	-0.5296587092057852	0.18235960997948658	0.9804856311810966	-0.07343636493955413
212														8.389624556228851	-4.9416419802697185	-0.5170701421360082	0.5330554133793743	-0.03617701863497119	0.8453065417880243	0.8260781032017757	-0.19370407427411201	-0.5292198966593804	0.1828849192183442	0.9803927554466596	-0.07336996245198352
213														8.420246364078558	-4.887080066978004	-0.5341447552645834	0.5325392249244849	-0.0363433086110882	0.8456247027115684	0.8262791795674507	-0.19425227357615563	-0.5287048057506528	0.1834794030134443	0.980278133046787	-0.0734172359881283
214														8.4348021670864	-4.834181610594604	-0.5827821790385609	0.5320696773903377	-0.0365516804469872	0.8459112441966018	0.8263920107143641	-0.19508442322863212	-0.52822184017799	0.18433150308401414	0.9801051180715531	-0.07359248943156377
215														8.383787878695632	-4.831974756414861	-0.5746736723960834	0.531607302127167	-0.03702390762265667	0.8461813674321981	0.826419394755618	-0.19617370079371893	-0.5277753907569537	0.18553883770476093	0.9798699451362135	-0.07369009649824715
216														8.367647601140684	-4.8747151344147115	-0.5042825642516169	0.5311032004356241	-0.03734048792382766	0.8464839504967874	0.8264831009868243	-0.1972950451891064	-0.5272573839473762	0.18669513724315295	0.9796327644099285	-0.07392274767837931
217														8.332624632771285	-4.897349974365003	-0.5430908883555832	0.5306036089180682	-0.037700629958393406	0.8467812425318963	0.8265226093515701	-0.19849043691339258	-0.5267465450143956	0.1879366553756714	0.9793774598971896	-0.07415931911456095
218														8.35446048716621	-4.965474309404183	-0.58961900125686	0.5300426721069047	-0.03792417133403603	0.8471224958495671	0.8266368455848881	-0.19956953800045626	-0.5261592202211713	0.18901399754314196	0.9791495068327982	-0.0744308538299139
219														8.397082471113523	-4.98285764016283	-0.6297014992515424	0.5294510241583084	-0.03824716063349859	0.8474778862726706	0.8267849971884329	-0.20050067445945224	-0.5255721149047272	0.1900215288903901	0.978946696324565	-0.07453310884015593
220														8.377351189243612	-4.978474053162501	-0.6370206041617008	0.5288438088674137	-0.03854998369040058	0.847843219339564	0.8269885947418578	-0.20120068893065976	-0.524983949221988	0.19082476251653846	0.978791183823852	-0.0745233418413919
221														8.316944789339225	-4.926545413840643	-0.6057638405636547	0.5282280827594374	-0.038744032317822086	0.8482181279270354	0.8272464541474388	-0.20171101013577686	-0.5243815142532142	0.19141158973473493	0.9786784805796847	-0.07449855680119877
222														8.35834990735492	-4.91925851026436	-0.6453070283251586	0.5276392433279458	-0.03884604261118191	0.8485798806675557	0.8274683220520422	-0.2023720834697953	-0.523776398697452	0.1920755187437761	0.9785379526648645	-0.07463558329486586
223														8.3837156580381	-4.887047710159108	-0.6394865797407334	0.5270156437525719	-0.03905439065294569	0.8489577526654605	0.8276755500093808	-0.20314519107684326	-0.5231493240548263	0.19289296295285407	0.97836945266759	-0.07473632938664376
224														8.380049012744221	-4.8805362517523	-0.6171121258683437	0.5263919802956418	-0.03928076276476977	0.8493341537681448	0.8278499744294218	-0.2040660647564096	-0.5225145558279106	0.19384504873129582	0.9781687292545448	-0.07490016148788231
225														8.392243807787459	-4.872291571529698	-0.5650547072699028	0.5257584905616706	-0.039460418087999494	0.849718120912244	0.8280025084065603	-0.2051474265172833	-0.5218490006369473	0.1949098655141872	0.9779352784298442	-0.07518467614870286
226														8.398694001041605	-4.914848071387495	-0.5669042896629927	0.5252132535246191	-0.03961569826351924	0.8500480190984381	0.8280725003414104	-0.20637561258465584	-0.5212533364004817	0.19607899556150743	0.977670549306566	-0.07558653661988016
227														8.387174335543948	-4.908963231886374	-0.5239621310547495	0.5247038372347208	-0.039805604432060104	0.8503536893828108	0.8280977575202313	-0.2076849701593907	-0.520692862597383	0.19733217472354525	0.977385526302539	-0.07601016901168445
228														8.404997120791103	-4.903098915730099	-0.5751686922372401	0.5241728173234406	-0.039859724574913824	0.8506785879143893	0.8281190900899972	-0.2091501873116267	-0.5200720832500308	0.19864951600173242	0.9770708272711471	-0.07662224408064511
229														8.373905403231733	-4.97319734301645	-0.6170320016639489	0.5236175388889551	-0.03997096591697624	0.8510152729837093	0.8281341686815361	-0.21067059548094702	-0.5194340178134697	0.200046173744999	0.9767395876503454	-0.07720949609095099
230														8.365183534869754	-4.89385133396927	-0.5996135583709014	0.5230460325060845	-0.04005386806276212	0.8513627520233986	0.8282216947636436	-0.2118907199259064	-0.5187977902151466	0.20117572468486883	0.9764722271844153	-0.07765511789332308
231														8.365374939408968	-4.838792075914525	-0.6044016768036774	0.5224540684515355	-0.04003480437553253	0.8517270459466761	0.8283687535910799	-0.2129354338554636	-0.5181348367777896	0.20210629488563514	0.9762457249316889	-0.07808540273445722
232														8.422374026880364	-4.8291563295949675	-0.618008466682668	0.5219680105256094	-0.0399135376364777	0.8520306951637828	0.828411078920906	-0.21422845745797142	-0.5175338175774395	0.20318582703780735	0.9759677645949787	-0.07875558496032281
233														8.476871551938121	-4.892655539669034	-0.6083716052900232	0.5214290424962208	-0.03979193723122604	0.8523663269820443	0.8284870539849363	-0.2155051761576084	-0.516881727698552	0.20425708071162751	0.9756916115149628	-0.07940355280778913
234														8.519637079536762	-4.9087217230637705	-0.65294726675057	0.5209338497675041	-0.039748690320673685	0.8526710771359604	0.8285332569331032	-0.21674067264209318	-0.5162907349337946	0.2053303833392225	0.97541966478047	-0.07997444115043087
235														8.479784850785409	-4.831798009027135	-0.6190560916289278	0.5203777630898214	-0.03983994557511139	0.8530063085453745	0.8286140364916363	-0.21789663304602191	-0.51567415664957	0.2064116329344634	0.975158364597146	-0.08037662437269236
236														8.469565380980647	-4.851094557042693	-0.5772691201708181	0.5199675029065509	-0.03980898240556052	0.8532578982001634	0.8285533670736668	-0.2193681830562255	-0.5151474722577029	0.2076851314659195	0.9748296493144045	-0.08108045994898919
237														8.545674942803464	-4.914626344103737	-0.6392041790851013	0.5196271519179247	-0.039749517180371674	0.8534679835082235	0.8283982177515002	-0.22108994214435135	-0.5146606943499233	0.20915070120801366	0.9744430272553314	-0.08195590776546555
238														8.60036464136292	-5.00376452102493	-0.7096820694215119	0.5192218410304847	-0.039628078365877506	0.8537202675361191	0.828277642243717	-0.22285648475988218	-0.5140925350164678	0.21062959705631085	0.9740454828217708	-0.08288890298706988
239														8.62523186096839	-4.996651741081449	-0.7875800671200784	0.5187527684695061	-0.039705355137765574	0.8540017856998938	0.8281631691828502	-0.22463731400160458	-0.5135015505012257	0.21222942871864242	0.9736331762689319	-0.08364871579546362
240														8.615968636634735	-4.942955655120718	-0.8489062875736605	0.518360839661892	-0.03974782443401992	0.8542377598524785	0.8280207899491241	-0.22633893283226655	-0.5129836828753712	0.21373724831448315	0.9732372773055465	-0.08441321428449403
241														8.574781181554231	-4.965120932901705	-0.7931681558403892	0.5179524384635001	-0.03980929634316921	0.854482586957965	0.8279141792210845	-0.22789797548302138	-0.5124652423486089	0.2151357323514448	0.9728708715422629	-0.08508163121500201
242														8.582275487847793	-5.033298308610061	-0.7997658446562892	0.5176243526358111	-0.039855150500992476	0.8546792360511055	0.8277456972953345	-0.22951588697095482	-0.5120151543040471	0.21656890397150402	0.9724885729953231	-0.08581308307072
243														8.514612143714935	-5.03401193873878	-0.8282450880848011	0.5172924887914048	-0.0397596429567626	0.8548845839246053	0.8276962176654971	-0.2306848359071251	-0.5115696216007489	0.2175487354645504	0.9722158594028664	-0.08642262680179055
244														8.555298822837711	-5.027528303611737	-0.7956653701449801	0.5170687344909712	-0.039709012408010724	0.8550222910225713	0.8275873558445213	-0.2317972635982968	-0.511242796560124	0.2184927739266906	0.9719533028504627	-0.08699244116529856
245														8.662738970257314	-4.991673071971836	-0.8171277492473075	0.516753518763667	-0.03970143803728443	0.8552131878444935	0.8275742071992934	-0.23269657366715557	-0.5108553965478176	0.21928687243843464	0.97173869966228	-0.08739088713837395
246														8.7004323707132	-4.961113575549465	-0.8598679330573192	0.5165573537219195	-0.039850179043637746	0.855324770801126	0.8274263697267333	-0.2337790877289661	-0.510600568763346	0.2203045687148768	0.9714727486506264	-0.0877872179337616
247														8.751556302387142	-5.003947484519102	-0.8483493635694676	0.516383836422889	-0.04003879999459531	0.8554207315562159	0.8273043641745346	-0.23465911935025902	-0.5103945402563882	0.22116786045659492	0.971252795208721	-0.08804990232986334
248														8.762784859115317	-4.928026163940574	-0.8198151733099664	0.5162861873923801	-0.040221137644578464	0.8554711174519081	0.827132309815824	-0.23555963336304214	-0.5102585630723007	0.2220376426792992	0.971027249471633	-0.08834798252917148
249														8.761656877398083	-4.902172809198813	-0.8214659095208703	0.5161668255354552	-0.040642514153319376	0.8555232283579144	0.826918952180006	-0.23654955545498144	-0.5101464048090232	0.22310727182719087	0.9707690218879814	-0.08849096790339697
250														8.688264822475244	-4.833341301516869	-0.7670170018468021	0.5160535601523091	-0.0411018241334003	0.8555696132443195	0.8266812238078525	-0.23760035635150256	-0.5100433558680972	0.2242473573036673	0.9704930245573877	-0.0886364035133157
251														8.647024630807799	-4.786949030581196	-0.7284351625321649	0.5159809425507496	-0.04164121629423423	0.8555873281144228	0.8264020620421532	-0.2386704041664599	-0.5099961470712266	0.22544023327018986	0.9702074248739574	-0.08873699308927985
252														8.545096872367669	-4.769670768970613	-0.7361640738491005	0.5159789609976578	-0.04219996824435146	0.8555611459667591	0.8260134007984483	-0.2400094808365416	-0.5099973635323586	0.22686465901316688	0.9698528815179911	-0.08898210326852263
253														8.504264310567999	-4.747708093910078	-0.7758478832780358	0.5159224027238963	-0.042725405913570325	0.8555691754949581	0.8256779302564382	-0.24126961376810624	-0.5099460059257582	0.22821049462074766	0.9695171546505558	-0.0891989741154249
254														8.465203182854397	-4.750127871533361	-0.8157369684209717	0.5159350615635425	-0.043410576049269844	0.8555270504995696	0.8252200847854003	-0.24276706834701978	-0.5099764329780048	0.2298321646684804	0.9691128274939214	-0.08942876310525882
255														8.414114644420897	-4.801967765242679	-0.8861305771809619	0.5158351415852859	-0.04410194792117078	0.8555519416699648	0.8248970017275901	-0.24396331465405108	-0.5099282671551374	0.23121211743012265	0.9687811513920815	-0.08946528634566794
256														8.327978564338986	-4.784104214284353	-0.861137654226266	0.5157478511060726	-0.04491837125200826	0.8555620924301963	0.8245646535572134	-0.24508220189269525	-0.5099292562890478	0.23258823311496596	0.9684611784885833	-0.08936251774073567
257														8.314370806233317	-4.809175481055384	-0.8895423120365509	0.5156436691263581	-0.04580985443648894	0.8555776199307781	0.8243410935517061	-0.24573754010601218	-0.5099753159365888	0.23360943468080353	0.9682533339055198	-0.08895006132072997
258														8.362625126591999	-4.831113709970516	-0.8692278237614268	0.5155813221133542	-0.046689001577485956	0.855567669690448	0.8242330284748527	-0.24581471036863395	-0.5101127747249206	0.23412777506955207	0.9681917502737163	-0.08825485620009305
259														8.40994526089737	-4.7321935801144805	-0.7896649591054516	0.5154669898152613	-0.04743703764074453	0.8555954124880898	0.8243853126645375	-0.24502060380470775	-0.5102487236379627	0.23384319248972546	0.9683566652690774	-0.08719363597858584
260														8.511198256843539	-4.629108027103115	-0.7162679829067055	0.5153727914567744	-0.04800311447935829	0.8556205857892469	0.8246431583624796	-0.2438465071874183	-0.5103944967360551	0.23314061677881592	0.9686250987522357	-0.0860864151606705
261														8.612076829699484	-4.522998353737786	-0.7970994692878076	0.5151253082678005	-0.04848104413066123	0.855742662920346	0.8250449715959403	-0.24250317050068532	-0.5103851556828138	0.23226431414717602	0.9689384916789696	-0.08492047878236156
262														8.63278934174477	-4.472498156925157	-0.7773739024277371	0.5148447907214119	-0.04918604305024049	0.8558712371823731	0.8253814282464711	-0.24137606476263987	-0.5103754434389628	0.2316901797073876	0.9691843625073416	-0.08367396308527938
263														8.601695155383448	-4.451183589989002	-0.672628280928888	0.5145674961140204	-0.0499716858739207	0.8559924780942098	0.8256644757628531	-0.24041477169766245	-0.5103713461910008	0.23129735278684238	0.9693830863804461	-0.08244978128121327
264														8.596301778926398	-4.4758349212182615	-0.7165671664336413	0.5144661077911834	-0.050720868475821024	0.856009355927404	0.8257532370119602	-0.2398493833257244	-0.5104937461737793	0.23120600229764787	0.9694842272153417	-0.08151145736773388
265														8.656173692525371	-4.447713935204519	-0.7390947235502803	0.5143983489774903	-0.051267807479409566	0.8560174942636903	0.825837532723106	-0.23933909978684537	-0.5105968711802257	0.23105563857011935	0.9695815629587216	-0.08077675813919322
266														8.703898914606626	-4.469462228012862	-0.7948982676773694	0.5144352876769037	-0.0518902145101639	0.8559577912671109	0.8257313703465676	-0.23932054919114767	-0.5107772300723941	0.2313526287258506	0.9695530312329166	-0.08026755763508761
267														8.774777462487762	-4.489493406485651	-0.8438021308146546	0.5143860543363254	-0.05274140771469399	0.8559353544611756	0.8255316377586643	-0.23977095185992292	-0.5108888388912827	0.23217343121856854	0.9693958090256312	-0.07979513318328202
268														8.68224364662986	-4.49798884817089	-0.7920758649043835	0.5143731140009555	-0.05377099790305989	0.8558790681968271	0.8252259497301442	-0.24046160648512993	-0.5110580668559808	0.23328615793685992	0.9691681461908968	-0.07931376251293842
269														8.602944547598083	-4.481786203498459	-0.7098275910686566	0.5143679292433706	-0.05475220199361075	0.8558199750781335	0.8248714866831266	-0.2413568423615	-0.5112082795715007	0.2345477857986611	0.9688906393510757	-0.07898268895655888
270														8.545616812214696	-4.561908023623245	-0.6774640217015478	0.514536666962534	-0.05569395461169113	0.8556577597210213	0.8242916852713124	-0.24276528728569435	-0.5114765223171771	0.23621015207578594	0.9684850017985849	-0.07900357806788838
271														8.481374067197509	-4.764080751170842	-0.7571978077510939	0.5147472083874889	-0.05656479804055203	0.8554739827019402	0.8237165866587938	-0.24407991445091823	-0.5117772759949578	0.23775259477127442	0.9681040331412037	-0.07904609222005968
272														8.426571694251084	-4.893216154640343	-0.8057399214375075	0.5151187171386296	-0.05736624069845525	0.855196949060028	0.8230927340055227	-0.24522998454787343	-0.5122310083409285	0.2391047019210772	0.9677661748102055	-0.07910481914811612
273														8.308804621149871	-4.904909742592251	-0.8452208297878868	0.5154567371625122	-0.057802262313717157	0.8549638884685089	0.8226803006780778	-0.2458168267850936	-0.5126121443601729	0.23979465171267728	0.967591332195945	-0.0791551569341648
274														8.378348205118957	-4.830171089844542	-0.8447687016264387	0.515864462341067	-0.057890230106255214	0.8547119852627592	0.8223255987374545	-0.24620803916247636	-0.5129933831082581	0.2401342669313346	0.9674866007909432	-0.0794053596134239
275														8.563242087706572	-4.748045469378997	-0.8059287602092616	0.5162836504392634	-0.05778580836146513	0.8544659107542685	0.822073679946167	-0.24627153682429997	-0.5133665307457873	0.24009593297029497	0.9674766821490897	-0.07964177590256344
276														8.676024506576582	-4.744935553954434	-0.7690529422443367	0.5168011924186585	-0.05769022554239239	0.8541594496295879	0.8217464403149075	-0.2463938804712118	-0.5138315322127633	0.24010271831953617	0.967451235744317	-0.07992991375175759
277														8.673082664746332	-4.750607000262097	-0.6946445792392253	0.5173041006334103	-0.05746045313575976	0.8538704607803766	0.8214987396681592	-0.24631041818935157	-0.5142674388049604	0.23986723034104834	0.9674861622869966	-0.08021369952629362
278														8.696824743678052	-4.677716212232788	-0.7894688163830849	0.5178053877746571	-0.05698660294357061	0.8535983291200198	0.8213097642426371	-0.2461393505856901	-0.5146510383288458	0.23943235276637403	0.9675577229179699	-0.08064862844805282
279														8.695124713314812	-4.461213612426871	-0.7587257850347658	0.5181506200169601	-0.05655945211001123	0.8534172270074318	0.8212043417804781	-0.24598122348764728	-0.5148948113279173	0.23904678206771796	0.9676229979018351	-0.08100845582118865
280														8.53426168284869	-4.402330247078638	-0.6854920627803427	0.5184827316273964	-0.056420730506622274	0.8532246821167869	0.8208257410952564	-0.24678516902204178	-0.5151137574421645	0.23962629187886708	0.9674263700767418	-0.08164226062844299
281														8.380275188088218	-4.439020371001833	-0.6935230860379726	0.5188141343259933	-0.05627872451587612	0.8530325897587012	0.8203012049001461	-0.24817745181072862	-0.5152803951753862	0.2407027778463285	0.9670784133562282	-0.08259246428979747
282														8.252228090029815	-4.524430760668864	-0.6203519046469019	0.5192452642732572	-0.055948778542392164	0.8527919381123449	0.8196847883792961	-0.2498029920680913	-0.5154758120934652	0.24187021980678736	0.9666789536001305	-0.08384865793304563
283														8.25655348651832	-4.624143990665672	-0.6344747951752837	0.5197252011356426	-0.05553239685425948	0.8525267551251028	0.8190109150990617	-0.25158387592401715	-0.5156807872353271	0.24311897551016792	0.9662410187291108	-0.08527284135184304
284														8.248509724948248	-4.771150930031899	-0.7599409739056401	0.5202473965830556	-0.0552394217097929	0.852227230636126	0.818152798842253	-0.2539072994201274	-0.5159041393977819	0.2448849609411347	0.9656498794026465	-0.0869003240184611
285														8.23427634588394	-4.94087770758225	-0.9407998649979603	0.5207307648184061	-0.05492938108998335	0.8519520137101085	0.8174042397932474	-0.2558867206414644	-0.5161126766195345	0.24635295683157732	0.9651449369356027	-0.08834857875433219
286														8.219528922839526	-4.991470300493461	-0.9859752912006312	0.5212323972994892	-0.05439435440695051	0.8516795419722596	0.8168495046952005	-0.2571915463438563	-0.5163423236269338	0.2471308857359446	0.964828359190331	-0.08962456481043823
287														8.35729927066553	-5.007808665631671	-1.0283862948734694	0.5216523499452345	-0.05350269079392905	0.8514788828117961	0.8166310014275395	-0.25759103534853184	-0.5164887859533117	0.24696686681429353	0.9647716416779056	-0.09068101295227332
288														8.51041227867828	-4.903696064086418	-0.9806994909589405	0.5221542025978178	-0.05263917199689355	0.8512250620610974	0.8164369178853512	-0.2576831884022917	-0.5167495849332614	0.24654765832046743	0.9647945335595093	-0.09157379641788119
289														8.588435146928939	-4.828939038108217	-0.9322247345257224	0.5225402243382482	-0.05180386358554001	0.8510394078220721	0.8163864021019906	-0.257469820648213	-0.5169357154601945	0.24589623098270386	0.9648967049238933	-0.09224636803426448
290														8.595785279651697	-4.854118637247428	-0.9627470086226649	0.5229625230414418	-0.0509463321138649	0.8508317523096287	0.8163396438489148	-0.2571661627021472	-0.5171606623107367	0.24515257570492005	0.9650233344355962	-0.09289875467435979
291														8.531326903602512	-4.83856170996881	-0.8601273682277882	0.5232651621777165	-0.049989844251065674	0.850702407145344	0.8164360128979335	-0.25664176022912144	-0.5172690245412184	0.24418396117364788	0.9652129414684889	-0.0934781831621371
292														8.513227392370965	-4.817710897524528	-0.8198113034565442	0.5236157509252348	-0.04905945253946992	0.8505408370557702	0.8164077173478654	-0.256475608838103	-0.5173960776097677	0.24352614733915268	0.9653048389952534	-0.09424215285368548
293														8.472062724134672	-4.797899005085786	-0.7881800000845263	0.5238715707036694	-0.048061679205106955	0.8504402697429467	0.8164360676903666	-0.2563523388237182	-0.517412432933246	0.24288006254684974	0.9653877735768125	-0.09505641401632711
294														8.477089303916935	-4.775791932274943	-0.7422830907003222	0.5242902610791538	-0.0471846860071814	0.8502313376628488	0.8162418902885448	-0.2566449572164585	-0.5175737072857798	0.24262913814242643	0.9653532883570484	-0.09604233432449205
295														8.505985200794361	-4.7749558158108885	-0.7683549755234311	0.5247177356024046	-0.046127100874862104	0.8500256399128	0.8160599116590104	-0.25697715680886946	-0.5176958194360058	0.24231697944505026	0.9653160267204258	-0.0971979939572678
296														8.54202769812041	-4.773192479426447	-0.8195445141495933	0.5252487551763896	-0.04523074279679101	0.8497458002789445	0.815635895204933	-0.2579233202446185	-0.5178934710220238	0.2425939645558003	0.9651060774754465	-0.09858208549760242
297														8.50303962928143	-4.822867512457856	-0.9490246318544427	0.525766564113586	-0.044570152984912126	0.8494604296393664	0.8151679662513758	-0.25893100919047074	-0.518127319562674	0.24304466021246274	0.9648669514199907	-0.09980510608031357
298														8.427133961742525	-4.88126278163027	-0.8844312159845485	0.5263290354182795	-0.043953874578158025	0.8491441593659061	0.8146609753896968	-0.2599564436784133	-0.5184111713371734	0.24352667544392692	0.964619460875448	-0.10101511791602691
299														8.35015978902692	-4.937623262042012	-0.8972102765689107	0.5269143333697031	-0.04317041307042069	0.8488213008194898	0.8142123280060579	-0.2607958214863316	-0.5186943458514128	0.24376129761001253	0.9644282528682986	-0.10226717389702408
300														8.409698791506791	-4.960371693322058	-0.9416488011562507	0.5275803722544206	-0.04239945883151125	0.848446366426707	0.8137131771159776	-0.26163066651562106	-0.5190570871555591	0.24398732794903255	0.9642363197004076	-0.10353020607969646
301														8.410835669150265	-4.913813191379497	-0.9746833288183752	0.5281157591904284	-0.04160789281183813	0.8481524203528963	0.8133546534810179	-0.2622370325909411	-0.5193129561244079	0.24402449171239127	0.9641060740362837	-0.10464953631456209
302														8.41464641295553	-4.894316500674998	-0.9300109016140672	0.5287092829807616	-0.041091920890206524	0.8478077306368011	0.8128844392980807	-0.2629740338376757	-0.5196763857192155	0.24430591977480753	0.9639274410269141	-0.10563382980035937
303														8.440853722267414	-4.870836638612332	-0.9542304088074991	0.5292312533411576	-0.04055669328380013	0.8475077787942902	0.8124773019468852	-0.26364549779490254	-0.5199727736272239	0.2445299865211989	0.9637666761837962	-0.10657804450064035
304														8.404345349776774	-4.950802189760549	-0.9270178047599371	0.5297832722318399	-0.040185329778724466	0.8471805142553148	0.8119704678582426	-0.26453476936999926	-0.5203127089745436	0.24501763975149055	0.9635385280646211	-0.1075167947144646
305														8.40417071041229	-5.002977107600625	-0.937764590592433	0.5303313369622746	-0.0397643470914566	0.8468574081486192	0.8115046226076146	-0.2653005968419823	-0.5206494413727547	0.245375060921602	0.963345415733982	-0.10842826874040717
306														8.418589072551846	-5.052527665227832	-0.9948583038457054	0.5308942726993957	-0.039369217918603594	0.8465230864515496	0.8110277800940331	-0.26605581414958607	-0.521006951655106	0.2457340251791047	0.963153346273416	-0.10931797853782674
307														8.445031239833295	-5.050266896669132	-1.0958396522104865	0.5313455746584209	-0.038895222345141145	0.8462618046264608	0.8107127420374025	-0.26649329460666665	-0.5212736074537825	0.24579814927925747	0.963051652617037	-0.11006718040581126
308														8.475603408520746	-5.099778205444862	-1.1203105699759417	0.5318509973524862	-0.03863606966765315	0.845956128138925	0.8103249505553509	-0.2669518237128662	-0.5216418295380866	0.24598372125535678	0.9629350850067778	-0.11067082244365886
309														8.462702979325638	-5.056132275868215	-1.099710458963636	0.532277495489484	-0.03842453469708734	0.8456974771919064	0.8100688157549694	-0.26705498223478746	-0.5219867337441818	0.24590482210966175	0.9629149451519018	-0.111020839783916
310														8.449937261076462	-5.01251060065176	-1.0783920425947302	0.5327491900935049	-0.038285381921478956	0.8454067245922763	0.8096968402008882	-0.26745669363348	-0.5223580611030563	0.24610836520405405	0.9628089875784154	-0.11148778415061744
311														8.418061797793186	-5.063930597421544	-1.1461260058291467	0.5331830712293707	-0.038145925326646235	0.8451394565013459	0.8093387749787653	-0.2678942253764924	-0.5226886562053945	0.24634642248323385	0.9626928754233635	-0.11196368937655204
312														8.393412247230676	-5.092873591393571	-1.1585507231039247	0.5336541307340344	-0.03814982524719507	0.8448419139603045	0.8089304014182033	-0.2683482279510855	-0.5230877882505927	0.24666753822075305	0.9625662675312909	-0.11234458687000723
313														8.374812160656484	-5.075073335641766	-1.1139405786687973	0.5340480982566682	-0.03813512521564766	0.8445935951528543	0.8086266121376005	-0.26859040408229823	-0.5234330873930069	0.24681092133717136	0.9624993023684201	-0.11260311740356904
314														8.361037264004194	-5.007107031460614	-1.0897131268030833	0.5344621755118734	-0.03831421512148764	0.8443235184849112	0.8082203440990685	-0.2690618518773377	-0.5238182845689154	0.24724493590668178	0.962360504584411	-0.11283705457224089
315														8.358582650127586	-5.010845483156252	-1.0913585290558039	0.5348419443765571	-0.038600668753369316	0.8440699514301503	0.8078094847055043	-0.26956494352430826	-0.5241932636371476	0.2477658793202392	0.9622082568729751	-0.11299265219535073
316														8.332676446821305	-5.0157053837808725	-1.1007955583186912	0.5353103751030682	-0.038885524041476105	0.8437598700619939	0.8072753392186305	-0.2703303842582643	-0.524621778080385	0.2484941226597886	0.9619820161348129	-0.11331933478777115
317														8.333848204235524	-5.092600844056861	-1.1067816800550323	0.5357034053533507	-0.03903651095175781	0.8435034157047244	0.8068791222247835	-0.2708232573645892	-0.524976995103782	0.24893361285810023	0.9618372596667001	-0.1135831955276248
318														8.34344978201718	-5.0446490939760755	-1.1529120953768366	0.5361019060483796	-0.03932403405681323	0.8432368390178371	0.8064577912638087	-0.2713126232006863	-0.525371574603977	0.2494405284655925	0.961687621235431	-0.11373804078383332
319														8.333817321245535	-5.049834947983671	-1.1301169939488451	0.536438665902832	-0.03968571682571653	0.8430056948825547	0.8061041336563443	-0.27164084127814103	-0.5257445948860135	0.24985932727545845	0.9615801044269441	-0.1137278301196436
320														8.27900009557547	-5.081002289378875	-1.1227367445806244	0.5368020505198703	-0.03998289348419892	0.8427603020944299	0.8057415868450012	-0.27197761964574213	-0.5261260967109843	0.25024798457962216	0.9614725906860101	-0.11378226387873464
321														8.338229061668738	-5.079564225863091	-1.1544768204990932	0.5370385360212842	-0.04019749086260255	0.8425994140494445	0.8055111933368093	-0.27216121489507256	-0.5263838813223176	0.25048219145724826	0.961411688526403	-0.11378153157514345
322														8.358607046086235	-5.057239290926371	-1.1453626845765132	0.5373147764716006	-0.04047347354715647	0.8424100717134745	0.805259149392669	-0.27229335413926115	-0.526701083738192	0.25070008636749386	0.9613626928639463	-0.11371560783248957
323														8.318034017294059	-5.060103882528278	-1.1816224980589172	0.5374716904803969	-0.0408593807237938	0.8422913349542502	0.8050936017557525	-0.2723103961593034	-0.526945291805054	0.2508953454014136	0.9613415413631264	-0.1134635029666986
324														8.324206467887521	-5.040453479271881	-1.1238802325842696	0.5376701930925241	-0.04129031480757106	0.8421436180147301	0.8048880740706533	-0.2723520534156234	-0.527237657246832	0.25112935248330204	0.9613113277723222	-0.11320149918588682
325														8.28154269275342	-4.973621996111828	-1.0782537099983431	0.5378013038329589	-0.04174255065657789	0.8420375983649733	0.8047324933593611	-0.2723499684144097	-0.5274761689747655	0.2513471140220127	0.9612923874500164	-0.11287858124308739
326														8.260974384342418	-4.902288644935776	-1.1027868048637643	0.5379958076323793	-0.04224614623424083	0.8418882194794859	0.8044424767214626	-0.2726767295162482	-0.5277496592386979	0.2518587155851924	0.9611777485505362	-0.11271434281004
327														8.292685779734892	-4.951256324955709	-1.1193601128311341	0.5382004276178608	-0.042809004098558257	0.841728987786474	0.8040755623472531	-0.2732329386968648	-0.5280210708362165	0.2525921411047884	0.9609948753136854	-0.1126324104018632
328														8.366837255187493	-4.926271104490719	-1.1184313403417767	0.5385499767578007	-0.04344603073073061	0.8414727357127605	0.803541147520756	-0.27402921805238306	-0.5284218124705173	0.25354594608314973	0.9607395224863733	-0.1126677556244759
329														8.425804670830479	-4.9257544620676175	-1.1497628764272025	0.5389078482078816	-0.04415142900421071	0.8412068606810323	0.8029686220187062	-0.27490047142959156	-0.528839411221563	0.2545971782901999	0.9604584229026655	-0.11269380942178556
330														8.463403081687355	-4.954490397430809	-1.113498500288507	0.5393502420461255	-0.04487366535238341	0.8408850519319684	0.8022477402411885	-0.2761110989806933	-0.5293025829311447	0.2559294427819774	0.9600776089345678	-0.11292079144156966
331														8.485231134196276	-5.002906694437784	-1.1869499714541094	0.539709205684505	-0.04569648396763365	0.8406103762459736	0.8015341274528172	-0.277416158540371	-0.5297011586820966	0.2574043819126872	0.9596624960545765	-0.11309676316521142
332														8.492043067755978	-5.0340067123865815	-1.135171337749065	0.5401053112506327	-0.046629031244962316	0.8403046984302864	0.8007635945145092	-0.2787634289898842	-0.5301590481714006	0.25896702195272076	0.9592271285274198	-0.1132227779114296
333														8.462350351272578	-5.113068315319866	-1.1240001178360572	0.5403403704732671	-0.047518523772039634	0.8401037280808473	0.8001024508217223	-0.28009529792961346	-0.5304551746064831	0.2605155508331235	0.9587953973482805	-0.11332710972166829
334														8.408802876336424	-5.167487436452192	-1.1192305735129087	0.5405578523460403	-0.048429652766945885	0.8399117673898309	0.7994270249686095	-0.2814934193476181	-0.5307333479383258	0.2621328671053565	0.9583402441705444	-0.11344750498034947
335														8.35063281404805	-5.291700950667134	-1.1720274567279814	0.5406701187743042	-0.0492548904701296	0.8397915089052495	0.798929354091908	-0.28252776571614135	-0.5309330925547322	0.2634154699991376	0.9579937459943153	-0.11340314281761654
336														8.281032403410633	-5.31990011781924	-1.194205527883229	0.5407783840244863	-0.050006762978051345	0.8396773565056541	0.798603627691651	-0.28298643584165384	-0.5311788050810888	0.26417983497913117	0.9578193988357595	-0.11309736515191013
337														8.239327085981111	-5.272761317583457	-1.225406709793596	0.5408154741037393	-0.05054643891817995	0.839621152950924	0.7985406004104496	-0.282788359189046	-0.5313790110676992	0.2642944049087431	0.9578495713940984	-0.11257293686350886
338														8.218546107880623	-5.156436029198648	-1.1656233437610495	0.5408360307573403	-0.05115974505673265	0.8395707643316173	0.7985477770341853	-0.2823269289214972	-0.5316135372613431	0.26423064854101774	0.9579531229091989	-0.11183907492512274
339														8.22246227398061	-5.084081273289784	-1.1776003644708148	0.5409047511020488	-0.05162309614165134	0.8394981275619264	0.798572788358896	-0.28178485876478987	-0.5318635116866031	0.26401430250637675	0.9580878609583034	-0.11119396906493684
340														8.22753063428311	-5.04089308702537	-1.114875786058646	0.5410701970402134	-0.05204047066611245	0.8393657315424032	0.7985285833294038	-0.2813001248726406	-0.532186378398181	0.26380891471062856	0.9582077171258255	-0.11064731067547012
341														8.261061172913083	-4.946991506769319	-1.0653752371683047	0.5412212799220997	-0.05246290496953521	0.8392420209698995	0.7984931646020513	-0.2808126771708696	-0.5324968604826981	0.2636061308909282	0.9583276495762221	-0.11009052554342866
342														8.297262917943424	-4.921857851040022	-1.0974664369901777	0.5413959179368681	-0.05299003790335166	0.8390962494996013	0.7983404875095828	-0.2806301110689489	-0.5328219278186576	0.26370992784545916	0.958352125601248	-0.10962790388998583
343														8.27322067672218	-4.929668448760671	-1.0239353726948162	0.5415667242446971	-0.0536023435799991	0.8389471210711676	0.7980669644449496	-0.2808402932738216	-0.533120858657301	0.2641866829582677	0.9582564992926509	-0.10931549803619847
344														8.298130356163158	-5.005009196955124	-1.017425897745776	0.5417484172515037	-0.05423379163386044	0.838789215626015	0.7977259807047296	-0.28125566813346353	-0.5334121378929022	0.26484318400549434	0.9580991310860343	-0.10910610843586072
345														8.306554126687056	-5.054652682760558	-1.0407334901288199	0.5418731701217665	-0.05483841797321426	0.8386693123134903	0.7974383621502745	-0.2816235393331511	-0.5336480494338539	0.26545343484926914	0.9579566430729861	-0.10887398182789432
346														8.284268136582751	-5.1062391152886635	-1.0486992310999672	0.5420290166097717	-0.05536774635669012	0.8385338143548089	0.7971614683166413	-0.2819272235962528	-0.5339013336062808	0.265966423791238	0.9578368615054913	-0.10867570177831765
347														8.238642702110166	-5.153831807089011	-1.1416399568744056	0.5421736094676997	-0.05578910155398681	0.8384124005193183	0.7969548128932795	-0.2820711886888474	-0.5341337573285356	0.26629082485696826	0.9577700249326349	-0.10847016150783517
348														8.260506076867834	-5.151192697559473	-1.2089454154782426	0.5423725386181145	-0.056000820559797826	0.8382696090456646	0.7968159968694585	-0.2819795731927736	-0.534389172265824	0.2663011387243269	0.9577846461489403	-0.1083156272911541
349														8.299069053412902	-5.178392757406232	-1.1696656127712453	0.5425224758763723	-0.05612996950992594	0.8381639396274372	0.7967787757430127	-0.28168713840956683	-0.5345988576307434	0.2661070192505965	0.9578631335308008	-0.10809843536387712
350														8.28154715008483	-5.155189010889074	-1.1965430772526184	0.5427224597608266	-0.056219029740302906	0.8380284913809414	0.7967569764971658	-0.28124922675949854	-0.5348618446386679	0.26576427915401346	0.9579865829656711	-0.1078473679952576
351														8.233204936299654	-5.134235472695894	-1.2074875695034946	0.542895524234347	-0.05620904212888689	0.8379170563661216	0.7968436878600484	-0.2805438672755513	-0.5351030514318482	0.2651501214103266	0.9581939689421086	-0.10751618947422839
352														8.313282263326307	-5.038759540016339	-1.1450465600804696	0.5431030705087374	-0.056080324021308026	0.8377911744949611	0.7969433602301579	-0.2797855265267615	-0.5353516038373356	0.2644245362840713	0.9584232136190189	-0.10725953667225072
353														8.388349828705932	-5.0136995976432885	-1.1414482161534703	0.5433139822641855	-0.056027647606057995	0.8376579369766418	0.7969599369154965	-0.27926992286546826	-0.5355960876764908	0.2639408563066358	0.9585766598903015	-0.10707946341700181
354														8.387331909751996	-5.0202220618436435	-1.0627156127266273	0.5435319343941628	-0.05611791511395825	0.8375104870370292	0.7968594078290335	-0.2790709622275951	-0.5358493092238956	0.26379560354202536	0.9586293223371725	-0.10696589132649634
355														8.301580590395625	-5.026524264703086	-1.0388209907480084	0.5436601522411421	-0.056108968055800124	0.8374278611133327	0.7967933745175189	-0.27901847929129614	-0.5359748189411117	0.26373084231868493	0.9586451230344238	-0.10698397493172135
356														8.28719898518685	-5.075366476421479	-1.0728267458155827	0.5438469709128223	-0.05596162122755899	0.8373164092375895	0.7967093789344754	-0.2789833775357008	-0.5361179353245092	0.26359938874509914	0.9586639515535959	-0.10713911631544434
357														8.272655830113742	-5.124328486076429	-1.1073293305977712	0.5440354021408124	-0.05572801392564869	0.8372095733335756	0.7966932434965734	-0.2787525359590121	-0.5362619690630034	0.26325910617563547	0.9587447064575235	-0.1072531158301851
358														8.253691099243445	-5.0555673986491625	-1.057550527651313	0.5441939577500987	-0.055512979962369036	0.8371208069352842	0.7967302339906144	-0.27838519880758955	-0.5363978144345107	0.2628190833892105	0.9588639059535804	-0.10726667360321568
359														8.222355214516888	-5.058452732528862	-1.042002733240134	0.5443014414156704	-0.055194580307513785	0.8370719796872321	0.7968514376349594	-0.2778949078121167	-0.5364719997830221	0.2622283875020457	0.9590244931787582	-0.1072767182165093
360														8.213286673410597	-5.036360913701232	-1.0177568230935956	0.5444731054118476	-0.0547463716038889	0.8369897683241942	0.7969873728979788	-0.27728122083543055	-0.5365875995708356	0.2614577689118404	0.9592277932630093	-0.10734000050037523
361														8.234838694735984	-5.012517355065105	-1.009302396690417	0.5446629200692248	-0.05418908400052058	0.8369025311688633	0.7971766303677534	-0.276495406124842	-0.536711943585545	0.26048363383748285	0.9594862341727699	-0.1073985238994325
362														8.257281723112733	-5.013063992808428	-1.002436052680799	0.5448690247173409	-0.05357724538323844	0.8368077584969672	0.7973582183213617	-0.2757296701997753	-0.5368361208477943	0.25949492784823003	0.9597409169920119	-0.10751629956604022
363														8.271171097521885	-4.990723314130905	-0.9712709574331456	0.5450683864720636	-0.05301809711657485	0.8367135324870036	0.7975371060957548	-0.27495144375410385	-0.5369695223920478	0.25852469605272016	0.9599952004857485	-0.10758344006015685
364														8.292721036745673	-4.966862382207689	-0.9631851712372682	0.545242776442395	-0.05256991639298625	0.8366281842179499	0.7976515514558912	-0.2743972295342358	-0.537083013028663	0.25780286499067356	0.9601784023369675	-0.10768063190857585
365														8.339616122503447	-4.990659170432123	-0.9503742409657926	0.5453397394478948	-0.05212875127874694	0.8365925901351399	0.797761705332372	-0.2740376191777254	-0.5371030113307789	0.2572563509110884	0.9603051476304414	-0.10785728232432179
366														8.32569177854232	-5.038404671699768	-0.9854616788060466	0.5454257407371528	-0.051711537922765505	0.8365624173885595	0.7978254885160253	-0.2738609297256845	-0.5370983904685893	0.2568759451865698	0.9603781067972375	-0.10811401744945143
367														8.320016182873715	-5.088152055547754	-0.9666272219976262	0.545468273853092	-0.05129237798077457	0.8365604904493191	0.7979418397488358	-0.2735924420536453	-0.5370623762928899	0.2564238339116924	0.9604771041582405	-0.10830766265518202
368														8.315332796709397	-5.162327770609494	-0.9482866296297408	0.5455392391957141	-0.05092155268976295	0.836536869462085	0.7980503519294583	-0.2732528250135256	-0.5370740446227091	0.25593470707004495	0.9605935087714219	-0.10843217522109858
369														8.268214062422226	-5.138466159721209	-0.9633582615377011	0.5455347795442151	-0.05045008558097336	0.8365683433961137	0.7982415227081607	-0.2728478541881302	-0.536995828558743	0.2553473628847627	0.9607334892309137	-0.10857664084872046
370														8.268164038891184	-5.133823449835317	-1.0410888082483156	0.5454966742011911	-0.050001658843073726	0.8366201124455364	0.7984918914050422	-0.2722844346630558	-0.5369095696675742	0.25464500347707447	0.9609167605745891	-0.10860433440245282
371														8.252008415838647	-5.086641337688573	-0.9920749219918988	0.5454095754121315	-0.04955635039098916	0.8367033902074759	0.7988083399050873	-0.2715852562820651	-0.5367929625733586	0.2538378048022725	0.9611376679259481	-0.10853917332941518
372														8.26934713861434	-5.110767965624259	-0.9620712622865086	0.545410414959428	-0.04905775871470275	0.8367322245280595	0.7990676175932935	-0.2709196369541229	-0.5367434143298124	0.2530186194088551	0.9613510735535362	-0.1085619252311816
373														8.325684702912083	-5.156227486635714	-0.9723659350441424	0.5453942038864581	-0.0485360593602005	0.8367732149805233	0.799353663368453	-0.27020500696745386	-0.5366777199298974	0.2521485340558055	0.9615786526080446	-0.10857076780610428
374														8.411795775436053	-5.1755354955991475	-0.9963589369344259	0.5453777113795288	-0.04811646659340857	0.8368081964064361	0.7996629575882377	-0.26933263858766476	-0.5366554612157027	0.25120172410168584	0.9618444445095952	-0.1084110620479696
375														8.333477757630977	-5.129132312775557	-0.9911092548582913	0.545263927984296	-0.0478394328782803	0.8368982240995742	0.8000152432044486	-0.26843874187346073	-0.5365782818023112	0.25032550704964796	0.9621081178969847	-0.10809768728820543
376														8.310194570858338	-5.083101715765157	-0.9160397742578832	0.5451148266027475	-0.04768285395475497	0.8370042838938079	0.8003335286829871	-0.26768188705066714	-0.536481733343114	0.24963186632258033	0.962326739098381	-0.10775517868103615
377														8.288089974965715	-5.082488439079594	-0.9202633839465689	0.5449745372690351	-0.047537626739480254	0.8371038930577133	0.8006173164558195	-0.26702656519817725	-0.5363848674874657	0.2490274408965482	0.9625159674116798	-0.10746323165657534
378														8.341745405304248	-5.033300451253386	-0.8470059644270224	0.5449077528269002	-0.0473064685776205	0.8371604618828177	0.8008425315810406	-0.2664686940119072	-0.5363260899140175	0.24844874827619495	0.9626819480712742	-0.10731582519688665
379														8.350053035322944	-5.030942103145736	-0.8686061857919867	0.544784612883639	-0.04713910349331635	0.8372500406014147	0.801060795851503	-0.26603529818750427	-0.5362152753027867	0.24801477156609247	0.9628100150289947	-0.10717064917638056
380														8.344571234523537	-5.076739746628681	-0.9231325365285611	0.5447078728831178	-0.04701236983885371	0.8373070943813177	0.8012045831455982	-0.2657488049600966	-0.5361425077428291	0.24771868957678228	0.9628953264734522	-0.10708894009161923
381														8.35283259608927	-5.074429362555805	-0.9451199399819549	0.5445907524804765	-0.04689829156715819	0.8373896718737524	0.8013789466505001	-0.2654352863952653	-0.5360372119560346	0.24741199683540738	0.9629873617988689	-0.10697029885707104
382														8.354708519234189	-5.097717420747941	-0.9441679842186922	0.5444810366795847	-0.04685990518551009	0.8374631633584433	0.8015557004062062	-0.26504491689881216	-0.5359660914390191	0.24708067476563578	0.9630967455619958	-0.10675110699777962
383														8.316407174905235	-5.075528032313192	-0.9015387768371975	0.5443575169219607	-0.04684746718396299	0.8375441532176111	0.8017621514016338	-0.2645558143733529	-0.5358989397834971	0.24668268352355321	0.9632318183592671	-0.1064524201224139
384														8.301179678249214	-5.052968788823047	-0.8508181177788788	0.5442889895964556	-0.046857221646331826	0.8375881425758465	0.8019520153718986	-0.2639788238090633	-0.5358993801277758	0.24621628874836893	0.9633896311254189	-0.10610352395189221
385														8.352673872887681	-4.976862036645304	-0.8528797703859623	0.5442003094992833	-0.046794611885205284	0.8376492627821013	0.802176409912717	-0.26336209177541725	-0.5358669760259739	0.24568074918566435	0.9635614525883599	-0.10578419808922773
386														8.383957389589721	-4.974567841206593	-0.8653268211017584	0.544130609675753	-0.04684993445550745	0.8376914487180872	0.8023281677687777	-0.26290606020640217	-0.5358637090823967	0.24533933809866115	0.9636832919316708	-0.10546621275578524
387														8.39205597431001	-4.972962517791624	-0.8850275638518146	0.5440087349164668	-0.047035561262910475	0.8377601997655821	0.8024534309421991	-0.26260144566761945	-0.5358255050875887	0.2451998929520129	0.9637573017673896	-0.10511363273316246
388														8.347377987759966	-4.998130797184852	-0.897303546337273	0.5438814172064368	-0.04730770041590032	0.8378275392339866	0.8025223329427127	-0.2624766177910596	-0.5357834732810931	0.24525682283211558	0.9637779861536191	-0.10479066876383047
389														8.308939503131997	-4.976056099045648	-0.8542723080065564	0.5437507473302674	-0.0475228718678708	0.8379001739033152	0.8026024150406084	-0.26235267395329376	-0.5357242180829054	0.2452845045019338	0.9638011470832493	-0.10451249079537897
390														8.341305848067805	-4.997953630962335	-0.8682648977982834	0.5436688815607797	-0.04767928380248465	0.8379444093247073	0.8026459723945426	-0.26228717915372857	-0.5356910290927026	0.2453234400159709	0.9638112478839733	-0.10432779222751878
391														8.357896464472022	-5.019447973519278	-0.9134095607126554	0.5435614699116802	-0.04785910066183213	0.8380038394370841	0.8026910517883805	-0.2622648638419784	-0.5356344057030058	0.24541394378950282	0.9638084081796492	-0.10414100304824045
392														8.366900985566767	-5.042244716677037	-0.9354961664824608	0.5435154543458331	-0.04804070739335592	0.8380232940201532	0.8026872604716235	-0.26227915273537483	-0.5356330907598725	0.24552823211150765	0.9637954847754577	-0.10399110905571568
393														8.344288181597177	-5.042345914045442	-0.9409840920570579	0.5433685988410053	-0.04821021102593154	0.8381087884913263	0.8027651236242055	-0.26223357906595357	-0.5355387066336805	0.24559870131207484	0.9637994218524393	-0.10378801641194813
394														8.362811148711948	-5.090760627540616	-0.909327567412037	0.5432670589147051	-0.04845725053896294	0.838160365066477	0.8028097235111429	-0.2621553012460349	-0.535510173446371	0.24567753363734324	0.9638083278841307	-0.10351838757953696
395														8.354349634664965	-5.064153954560239	-0.9592856576573414	0.5431151217507335	-0.048651351887337824	0.8382475830476459	0.80292495107691	-0.26196003223931974	-0.5354329691448929	0.2456369016736435	0.9638516418353544	-0.10321107046951805
396														8.3678294101216	-4.990558516734782	-0.9226426100282369	0.5429746510641047	-0.04885729999960542	0.8383266025473375	0.8030330776565806	-0.2617562494045067	-0.5353704718109558	0.24559398301101187	0.9638965868465525	-0.10289298019958681
397														8.314843896696724	-4.992192266083457	-0.9111502527524507	0.5428060995758411	-0.049085691396168696	0.8384224073600506	0.8031422155176157	-0.26160447703658035	-0.5352809348817438	0.24560969019303464	0.9639261862272328	-0.10257771487367101
398														8.308231799318554	-4.99234957622685	-0.8848554176604091	0.5426690443447578	-0.04933718041912044	0.8384963631037641	0.8031945050046589	-0.2615820528825815	-0.5352134310161284	0.24574152160404017	0.9639194324413355	-0.1023251304504694
399														8.34075634460489	-5.014118093922754	-0.8985784750153258	0.5425588235819697	-0.04952529819461393	0.8385565978466119	0.8032614741144386	-0.261475241361391	-0.5351651169111287	0.24576600081550876	0.9639387651680669	-0.10208393531508511
400														8.371191447046902	-4.987114443831077	-0.9106896517979374	0.5424258686950663	-0.04973091075287789	0.8386304391602373	0.8033304019640526	-0.26140644500915555	-0.5350952586109782	0.24583417632761523	0.963946838276554	-0.10184326549143252
401														8.358619887918492	-5.034351477241265	-0.9405210893028395	0.5422331103035076	-0.04996359128503686	0.8387412554754213	0.8034067004100265	-0.2614409386137361	-0.5349638392948095	0.24601001570435754	0.9639254510400015	-0.1016208492902479
402														8.328914698027011	-5.034954960194903	-0.922432027541348	0.5420822653586161	-0.05016307589488056	0.8388268494751675	0.803477148020211	-0.2614145974405321	-0.5348709011100834	0.24611235278420895	0.9639222344472447	-0.10140333202243429
403														8.369413390141947	-5.05495987840563	-0.9594199174282965	0.5418594644514472	-0.05037410291590133	0.8389581458808353	0.8035939975746387	-0.2613786875855721	-0.5347128843950328	0.24622146097853154	0.9639209674197684	-0.10115018893771485
404														8.340938946739364	-5.079755887663041	-0.9417621709673788	0.5416819502166206	-0.050629848374814324	0.8390573778133781	0.8036722675979785	-0.26135211368703143	-0.5346082294215497	0.2463565527917655	0.9639147737870108	-0.10087991758369827
405														8.312517890385863	-5.104473601374951	-0.9241115435464733	0.5414411920384025	-0.05078702991931883	0.8392032609302752	0.8038293964073352	-0.26123724745729027	-0.5344281074310719	0.24637316622443406	0.9639376422429577	-0.1006204990627391
406														8.352356199993777	-5.099465631140249	-0.9604498016933745	0.5412002367288513	-0.05088030860970566	0.8393530234415175	0.8039820222270613	-0.26118090745646744	-0.5342260210022548	0.24640456915471487	0.9639479901820417	-0.10044431553692826
407														8.33026193486146	-5.095618262670534	-1.0429224902219627	0.540964849136178	-0.05099020867495896	0.8394980825578799	0.8041479118156094	-0.2610479480430206	-0.5340412949811317	0.2463801289099179	0.9639781986340838	-0.10021409400139106
408														8.337994631834338	-5.068663930706775	-1.062570474339797	0.5408189406077737	-0.051146467747779756	0.8395825821899903	0.8042604688243933	-0.26087127492677775	-0.5339581221448417	0.2463330504951649	0.9640177471162052	-0.0999490444113581
409														8.304392973920628	-4.9742727905449255	-0.9639268501091519	0.5406138360093474	-0.051314326054710646	0.8397044243403804	0.8043797588744531	-0.2608080744667463	-0.5338092841137416	0.24639375768946636	0.9640259271588598	-0.09972024838098606
410														8.329856025474081	-4.996330642118215	-0.9547328468217905	0.5404294344519083	-0.05156507757976253	0.8398077572588762	0.8044250825241726	-0.2609297830275037	-0.5336814920298416	0.24665018342577527	0.9639796113525498	-0.09953389328574713
411														8.308018084063622	-4.998409257564758	-0.8833001647803072	0.5402996814688567	-0.05174048741025272	0.8398804534975209	0.8044571681902533	-0.2610150713848274	-0.5335914139651161	0.2468297363608577	0.9639471222388305	-0.0994033539449577
412														8.31527804337178	-4.971807895620546	-0.9047981452951702	0.5401879404134547	-0.05186493362607708	0.8399446515645143	0.8044341882060919	-0.2613027144290769	-0.5334852652859335	0.24714899529853762	0.9638625006150824	-0.09943064935403198
413														8.35673675871989	-5.016120666576943	-0.9450147070137487	0.5400386272964427	-0.05193136734034959	0.8400365552247924	0.8044597800599715	-0.26153035770522515	-0.5333351050366358	0.24739188202856655	0.9637971804714615	-0.0994597990226462
414														8.344284494417398	-5.0631733541260155	-0.9770291619629216	0.5399255295306125	-0.05201152555858629	0.8401042933887175	0.8044949855935353	-0.26162198132715087	-0.5332370552027621	0.2475242224832661	0.963767990802519	-0.09941337529995725
415														8.313226005660269	-5.039535733635068	-0.9596799395737134	0.5397943249541699	-0.052061985711358616	0.8401854773745274	0.8045776064370649	-0.2615924715667719	-0.5331268648638816	0.24754183882179553	0.9637732764833118	-0.0993182237524729
416														8.347142041766892	-5.085168131183233	-0.9753481416297305	0.539665309339806	-0.05214104689616228	0.8402634498321009	0.8046656056932081	-0.2615183839173484	-0.5330303911482355	0.24753710208684682	0.9637891087275423	-0.0991762924726236
417														8.370051266894945	-5.058925801749319	-0.9649301937156854	0.539546615291393	-0.05215735475029515	0.8403386580855687	0.8048073211944238	-0.26124927956228744	-0.5329483930738907	0.24733504741434875	0.9638612059179676	-0.09897954357797473
418														8.386317014817074	-5.055420154250669	-1.0090799224274027	0.5393659468874505	-0.052222916905597716	0.840450559097961	0.8049509870734195	-0.26109425702531674	-0.5328073735956793	0.2472615694921711	0.96389966070036	-0.09878846265632124
419														8.385118089543413	-5.005383776253036	-1.0050287080275842	0.5392148251502991	-0.05243735553323775	0.840534173060687	0.8050261443226501	-0.26103875634919715	-0.5327210101363302	0.24734647621330702	0.9639030508450241	-0.09854252521888551
420														8.336463087780684	-4.935492121688094	-0.938677544603756	0.539103616017727	-0.05264529329062073	0.8405925078722483	0.8050260926357948	-0.2611816838885956	-0.5326510285136625	0.247588936287864	0.9638529976585966	-0.0984231554685269
421														8.371282958493909	-5.005721793588451	-0.9561777695438345	0.5390251341391021	-0.05273559723938115	0.8406371759267661	0.8049609131454267	-0.26157141666697303	-0.5325582806519054	0.24797143600504384	0.9637423674232852	-0.09854347344678849
422														8.34312994473704	-5.055651131248351	-0.9432029788812352	0.5390064800279188	-0.05283665248700348	0.840642791345932	0.8048490712880068	-0.2619875806396562	-0.5325227507228331	0.24837469060825357	0.9636237833016302	-0.09868747296747979
423														8.321382691134565	-5.08029478068603	-0.9523051150027767	0.5389495065764007	-0.0529759349876342	0.840670553589954	0.8047774823175218	-0.2623167940889079	-0.5324688756101975	0.2487300410399288	0.9635265693540075	-0.0987416671581553
424														8.321878139271382	-5.079533400973997	-0.9520371783208542	0.5388516848576909	-0.05313811362830928	0.8407230237159279	0.8047569366228813	-0.26253347345781075	-0.5323931331934446	0.2490083024386608	0.9634586219419088	-0.09870333896284647
425														8.286099486743757	-5.127904849083763	-0.9917617470993644	0.538780877824023	-0.05312624322854925	0.8407691526046828	0.804792572623451	-0.2625765778838639	-0.5323180025106481	0.24904634255756997	0.9634475299813791	-0.09871563316657275
426														8.321713311352582	-5.053728047819073	-0.950255519440833	0.5387734363476591	-0.05305198821964496	0.8407786098801975	0.8048616489209284	-0.26237448068487174	-0.5323132141715324	0.24883912550565473	0.9635066779380858	-0.09866088985152371
427														8.35301209284491	-5.051176787562613	-0.9644668186188718	0.5386734307385979	-0.05298693056234627	0.8408467875932517	0.8050156215132738	-0.26206439704997136	-0.5322331264760146	0.24855740611759586	0.9635946435033856	-0.09851182099462225
428														8.36135282042433	-5.0492240212647435	-0.9859201814943477	0.5385986209285125	-0.052927281751484034	0.8408984649648872	0.8051534360852293	-0.26175121969833154	-0.532178770101349	0.24827297455432618	0.9636830401292922	-0.09836426319101904
429														8.341248809049796	-5.098021345061926	-0.993035406105141	0.5384835663241597	-0.05287774960005698	0.8409752626540496	0.8053508768512601	-0.2612983748153762	-0.5321025507115612	0.2478818548295149	0.9638086443460013	-0.09811973873896349
430														8.293545750806695	-5.052845495562076	-0.9268077645519138	0.5384157135056421	-0.05285707801204542	0.8410200049667304	0.8055305733904718	-0.2607791730678546	-0.5320852546606267	0.24744497324340264	0.9639503888676402	-0.09782961217595232
431														8.32485573711765	-5.050518930094868	-0.939734502044457	0.5383671518802491	-0.052696977556029645	0.8410611382847322	0.8057289989174059	-0.260226379869485	-0.5320554590675475	0.2469040098497896	0.9641085311190245	-0.09763785200224956
432														8.324106843032247	-5.025828413735878	-0.9369774366310802	0.5383472171294603	-0.052484692936000166	0.8410871719485324	0.8059365420087421	-0.2595984457943029	-0.5320478711508714	0.24626929175997064	0.9642893777018375	-0.09745476893126537
433														8.32212614952492	-4.976819943446532	-0.933714568409682	0.5383326361430514	-0.052255868249314885	0.8411107519802508	0.8061333940926259	-0.2590075320330667	-0.5320376389681869	0.24565610880247973	0.9644606900147097	-0.09730700706718937
434														8.368651922381018	-4.97493055566933	-0.9171972398777252	0.5383586692353888	-0.05208335454075619	0.8411047898085489	0.8062382211048214	-0.25864003142552805	-0.5320575767470423	0.24525471267405702	0.9645686384721326	-0.09724951201513546
435														8.41613041447571	-4.997719820594079	-0.9016977905035748	0.5384090903888727	-0.051960398399415963	0.8410801200746576	0.8063152258042663	-0.2582891720604441	-0.5321113231576124	0.24489060419469216	0.9646692804243868	-0.09716877781805408
436														8.414860832839803	-4.97362982841957	-0.9003267719228222	0.5384622305401556	-0.051794111087402506	0.8410563574091728	0.8063817644923238	-0.25799954347932796	-0.5321509987388026	0.24455444419590278	0.9647557232901623	-0.09715718297124973
437														8.40306328142626	-5.048910016155096	-0.8562273421354103	0.5385122134129128	-0.05157297040455383	0.8410379448804775	0.8064337475294965	-0.2578094327597137	-0.5321643611006355	0.2442728123444325	0.9648183897002411	-0.09724334447958871
438														8.380948067622533	-5.0742691317741215	-0.865244870199853	0.5385908569648272	-0.05134767845123339	0.8410013702197887	0.8064669440040046	-0.2576241181324392	-0.5322037974172347	0.24398966581135156	0.9648799042752172	-0.09734378923749179
439														8.368822204345278	-5.147351669770323	-0.8985182451354328	0.5386250058272176	-0.05106839386955553	0.8409965054892999	0.8065859151797996	-0.25724434563116694	-0.5322072040797253	0.24352056285085133	0.9649960444418294	-0.09736718995856816
440														8.34329920117493	-5.099560556775493	-0.9045415303187011	0.5386929487457127	-0.0506751434813299	0.8409767754253359	0.8067750009518586	-0.2565719744082928	-0.5322451688717889	0.24274267200222038	0.9651957582694701	-0.09733007452912731
441														8.341045182934664	-5.050856412692717	-0.9020687209039945	0.5387098832219692	-0.050332222634345836	0.8409865213448187	0.8070198695784729	-0.2557708316661843	-0.5322595342258634	0.24188962736032488	0.9654263042995437	-0.09716717111251166
442														8.370820749187384	-5.024600138046892	-0.9151845393080813	0.5387311354105688	-0.05008598383124113	0.8409876086857029	0.8072168741466808	-0.2550854020230982	-0.5322897291584507	0.24118391702620223	0.965620438836281	-0.0969921969517494
443														8.397329561119674	-4.927483346046111	-0.8488886116448296	0.5387657139260346	-0.05007293057601053	0.8409662342337535	0.8073150390483967	-0.25461257709475804	-0.5323672259929715	0.2407777672960193	0.9657458968117316	-0.09675189696976527
444														8.37193203515989	-4.882415342734368	-0.7759929872477048	0.5388654052906491	-0.05015852024795037	0.8408972575930308	0.8072875597097999	-0.254415393002178	-0.5325031490435931	0.24064677624838515	0.9657934202768638	-0.09660330445267598
445														8.333809963884114	-4.908690057904037	-0.8145397995253014	0.538971042562832	-0.05019358225956844	0.8408274612420112	0.8071661142265361	-0.25461199644667515	-0.5325932738120831	0.24081752287399755	0.965739786674128	-0.09671393442230275
446														8.338498110787109	-5.029690872652315	-0.8961806313918378	0.539149907874969	-0.050208452270010195	0.8407118936705141	0.8069530221836505	-0.2550024118614742	-0.5327293777646425	0.24113107810293666	0.9656359983272582	-0.09696866456456046
447														8.309124195434515	-5.081521015564866	-0.8838512605355342	0.5393185675011866	-0.05020680453669191	0.8406038065145094	0.8067663355449753	-0.2553228188570778	-0.5328586472998333	0.24137846337194296	0.9655514149692344	-0.09719517720087437
448														8.36439713902872	-5.128845558161166	-0.8946241147704175	0.5395052189509973	-0.05025893275613402	0.840480909005583	0.8065712695873468	-0.25559650120824845	-0.533022715882126	0.24161313250916694	0.9654762908784019	-0.09735823514624481
449														8.409721594665001	-5.128628521732545	-0.8799123782176357	0.5396912726620544	-0.05025152040162517	0.840361895203333	0.806476509180225	-0.2555082309870248	-0.533208387066783	0.24151391337331118	0.9655000407018153	-0.097368891602516
450														8.368171538620858	-5.084369961635522	-0.8386143891237045	0.5398387015673141	-0.05027650673781042	0.8402657015256301	0.8064873521740052	-0.2550746384540402	-0.5333995496819457	0.24114793607551	0.9656133810629302	-0.09715179483024589
451														8.37740796121997	-4.963950055059195	-0.8021344996352349	0.5399334732266257	-0.05029034004292965	0.8402039789169052	0.806552956180731	-0.2545617346140605	-0.5335453609079592	0.24071595993111183	0.9657480028292305	-0.09688457909180512
452														8.351462343664682	-4.91721081815952	-0.8065932660599405	0.5400381029921948	-0.050328259877832515	0.8401344616037725	0.8065189366089627	-0.2544074958095206	-0.5336703392236413	0.24059520404143414	0.9657866701987545	-0.09679904678591919
453														8.368508588312801	-4.964950157867636	-0.8533914908292987	0.5400975371923958	-0.05043894153074635	0.8400896163481413	0.8064367341717495	-0.2545155354868577	-0.5337430430218661	0.2407372927012184	0.9657524296490776	-0.09678739861052074
454														8.324125453025317	-5.016154813725088	-0.869145372362684	0.5401492665134607	-0.05066164887385227	0.8400429555792688	0.8063206083517654	-0.2547078214106629	-0.5338267530383554	0.24101005462886754	0.9656900760832208	-0.09673071137014302
455														8.285247819216112	-5.017346095137554	-0.906837265339207	0.5401363773230523	-0.05080538079199265	0.8400425627162649	0.8062640361946092	-0.2548758537199679	-0.533831998975048	0.24122810332029565	0.9656381892163846	-0.09670516891766767
456														8.31925633682585	-5.088995565195712	-0.924006564315607	0.5402220165572238	-0.050894326532030076	0.8399821071628246	0.8061518653694357	-0.25505037282210297	-0.5339180436028422	0.2414111488482396	0.9655874247576749	-0.09675527045911092
457														8.358416689106232	-5.111330900911899	-0.9625650311175097	0.5402670469054738	-0.05105167782177206	0.8399435958560675	0.806112467512542	-0.2549934289244453	-0.5340047199474882	0.2414419345285319	0.9655941577065057	-0.09661115284574692
458														8.389366470196729	-5.112216736970371	-0.8982379951846488	0.5402817607174226	-0.05133694286969198	0.8399167442865252	0.8061107410235187	-0.2547815344435401	-0.5341084561333115	0.24141477221287855	0.9656349662286415	-0.09627055496887302
459														8.362875908804472	-5.040516800253557	-0.9001707207924624	0.5402154304543481	-0.05169606632862328	0.839937381847701	0.8061339633859903	-0.25462898187107624	-0.5341461547805944	0.24148565542205408	0.9656560455552725	-0.09588055020667768
460														8.323562186665473	-5.0191270223361135	-0.857300692466939	0.5401832596265881	-0.05198032323072593	0.8399405288566707	0.8061262088314232	-0.25456100521805863	-0.5341902564231666	0.24158348754472236	0.9656587081465176	-0.09560689267269479
461														8.255378340675383	-5.04625807873999	-0.8787123050497395	0.5401602972032461	-0.052100979478694354	0.8399478205595046	0.8061196140505507	-0.254568991267205	-0.5341964025788539	0.24165682520527354	0.9656501005139277	-0.09550844051260324
462														8.318276985707437	-5.066866274355485	-0.9095049563110232	0.5401593007863135	-0.05207348629805253	0.8399501662591701	0.8061371346812334	-0.2545189887480731	-0.5341937892325116	0.24160059987916382	0.9656647639794177	-0.09550242796182429
463														8.35822240315363	-5.088032436771733	-0.947940769324501	0.5400795619603638	-0.052015857167707735	0.8400050103158971	0.8062570697956122	-0.2542788013650412	-0.5341271651778736	0.24137854949704024	0.965731143631325	-0.09539263107409465
464														8.335628070682816	-5.088397453938723	-0.9534525910108944	0.5400130453554204	-0.052072933481105366	0.8400442371950643	0.8063856317329257	-0.25389714198626906	-0.5341146452082128	0.24109774735707368	0.9658284790219624	-0.09511690348969498
465														8.272512783075975	-5.042698239162523	-0.9175796850862616	0.5398610372574526	-0.05215785625265967	0.8401366665504106	0.8066137681164501	-0.25331587195501537	-0.5340461572754299	0.24067465495205426	0.9659765147490899	-0.09468412441857663
466														8.27139482274277	-4.994895691875527	-0.8353034591194801	0.5397478004072543	-0.05214202563381953	0.8402104028862853	0.8068337860071239	-0.25273109630302326	-0.5339908564000732	0.2401906611692935	0.9661305305828375	-0.09434110537185561
467														8.242504757788279	-5.020299535959816	-0.8174757862624648	0.5396643224788872	-0.05201630662370138	0.8402718148841082	0.8070330648273016	-0.25222216761119903	-0.5339303423115798	0.23970826293404285	0.9662702944884198	-0.09413642584253162
468														8.266014736255011	-5.016956388557378	-0.8854310331013999	0.5396192604763146	-0.05176194057951328	0.8403164613587182	0.8072218097021762	-0.251737595936586	-0.5338737048527596	0.23917358479593598	0.9664103084609098	-0.0940590880050946
469														8.290794483032395	-5.037744209460083	-0.9544367618473096	0.539504901238131	-0.05144689048158291	0.8404092330524522	0.8074867129905173	-0.2511597631784619	-0.533745240450825	0.23853651687698635	0.966577462400151	-0.0939592427400319
470														8.278512972742309	-5.08529999614289	-0.9850881655549499	0.539403613082541	-0.05108452774187494	0.8404963493191924	0.8077705579332422	-0.2504988564561882	-0.5336263193006512	0.23780342287216732	0.9667681696971262	-0.09385541076970219
471														8.317932328007235	-5.081248623744559	-1.022643460327782	0.5392771046740095	-0.0505844081122786	0.8406077694325389	0.8081354752165975	-0.2496567611064243	-0.5334684201808899	0.23684859735886626	0.9670122642912966	-0.09375512060339666
472														8.31048272865081	-5.056011093891048	-0.9963864126787928	0.5390738711497045	-0.05025223697034442	0.8407580354199107	0.8085895364076887	-0.24853684891709776	-0.5333032873912915	0.23575903600004516	0.9673180177221119	-0.09334628827378905
473														8.244547636844313	-4.935852854474543	-0.9593910941905507	0.5388733056455217	-0.04979187279169012	0.8409139848204242	0.8090789823632738	-0.24733831809939455	-0.5331181451589997	0.2345352015384422	0.9676489682749934	-0.09299845931876205
474														8.301345516481788	-4.956957988031014	-0.8887726843796055	0.5387708646053913	-0.04928770115513892	0.8410093209752202	0.8093939699594231	-0.24662421542148505	-0.5329708226170184	0.23368217057722573	0.9678570239878299	-0.0929807736671282
