// Start Time: 1748432634.6645443
// Update Rate: 100Hz 
// Filter Profile: 46.1 human
// Option Flags: AHS Disabled ICC Disabled 
// Firmware Version: 4.0.2 
PacketCounter	SampleTimeFine	Year	Month	Day	Second	UTC_Nano	UTC_Year	UTC_Month	UTC_Day	UTC_Hour	UTC_Minute	UTC_Second	UTC_Valid	Acc_X	Acc_Y	Acc_Z	Mat[1][1]	Mat[2][1]	Mat[3][1]	Mat[1][2]	Mat[2][2]	Mat[3][2]	Mat[1][3]	Mat[2][3]	Mat[3][3]
0														9.694521241074645	0.55763726529305	-1.8128562765955523	0.13933804392007848	0.1356721098178233	0.9809067173457972	0.44993322172930705	-0.8910888474907792	0.0593360081387512	0.8821252776679814	0.43307475624323366	-0.18520596643750792
1														9.598958845711	0.62893726373274	-1.7859137038859711	0.1392444735367776	0.1353371688506936	0.9809662722626831	0.45100081102179335	-0.8905812733510978	0.05884950309069864	0.8815947170027452	0.4342221162997301	-0.18504569346254296
2														9.58561354324285	0.664311516727604	-1.7404089421872202	0.1390305002857875	0.13500440516298756	0.9810424713420273	0.45203486229213247	-0.8900847404855022	0.058426347031026504	0.8810987477364937	0.4353423541782318	-0.18477562446312695
3														9.581664316837426	0.6088801673781227	-1.787779926918784	0.13852900399387763	0.1345660527574036	0.9811736301479753	0.4533929492183122	-0.889423616649589	0.05796950702814102	0.8804797264284879	0.43682674779740355	-0.18422226726744634
4														9.610392856824593	0.6916333652374158	-1.7680695678843117	0.13799462174246596	0.13416341031911638	0.9813040628172792	0.45470995939752146	-0.8887769858607085	0.057570150504048206	0.8798842748878165	0.43826435941780484	-0.18365188283609585
5														9.544015216791188	0.5768209480460896	-1.7109202611547931	0.13741555085235557	0.13369885807673346	0.9814487157936069	0.45609808879690383	-0.8880943755027066	0.05712191870261521	0.8792562196423488	0.43978744360137667	-0.18301777146170983
6														9.575671603973161	0.6582563917265247	-1.7702986685635638	0.1366476853022916	0.13320796271304128	0.9816226610930322	0.45770563826644983	-0.8872945121204939	0.056692128730145896	0.8785402431309716	0.44154737846656344	-0.18221677685843757
7														9.509419785922866	0.8051202019901279	-1.7825079052525032	0.13593875037097625	0.13273224431612493	0.981785520094069	0.459022710106437	-0.8866380824756628	0.05631218616269157	0.8779628737902982	0.44300684195922335	-0.18145558746755774
8														9.573944073175573	0.7536847626431895	-1.7653158139470877	0.1352605558755023	0.13240632788729528	0.9819231876066741	0.4600637021644632	-0.886111036565557	0.056112572810750244	0.877522633312086	0.4441573991414707	-0.18077121677110558
9														9.676064039704302	0.5777045317938952	-1.773401799759873	0.13445899799857597	0.13205819379520053	0.9820801450537368	0.460961998472338	-0.8856524365584881	0.05598033210335651	0.8771743349081799	0.4451745669617292	-0.17995774812113452
10														9.718692573375355	0.48370354997314824	-1.7758049542822514	0.13335711703880831	0.13180299510042606	0.982264653653818	0.4622024249556147	-0.8850043818609952	0.05600145044539093	0.8766896815294722	0.4465369128855925	-0.17894129688352484
11														9.755622777990702	0.32747450475126727	-1.8018018209553828	0.13172702379048518	0.13135115430401176	0.982545095894486	0.4640815647384753	-0.8840229282045237	0.05596216291913672	0.8759430874624158	0.44860933636261224	-0.17740735851454226
12														9.840117678433764	0.26999375450302093	-1.7989536332951857	0.129303256535031	0.1305744552493378	0.9829704875965377	0.46686702250953777	-0.8825638326749947	0.05582351249341985	0.8748233256735414	0.4516983428023208	-0.17507928480297813
13														9.815231658795534	0.3263093205257154	-1.7216457472199411	0.12607175910608648	0.12939855187667162	0.9835455893491247	0.47029804939940645	-0.8807549554574785	0.05559184443970627	0.8734561559042391	0.4555510105458173	-0.17189421311863384
14														9.758286625343569	0.5492513928697117	-1.6226535725832636	0.12227352852709406	0.12793555002078147	0.9842162766701303	0.4742345863641152	-0.8786601447504947	0.05529834647705986	0.8718662404965518	0.4599878749140248	-0.1681083389201411
15														9.711446955848123	0.7141086405245568	-1.518401547353807	0.1180975111019491	0.12631960065339798	0.9849346863433593	0.4780804468508505	-0.8765860356635022	0.05509998565006036	0.8703402002725237	0.46437084379891014	-0.16391356020498127
16														9.674295670319367	0.8216384382915327	-1.4099679538845227	0.11379392914657283	0.12461806479543805	0.985657790318742	0.4813783541389536	-0.8747840384564198	0.055025141784002224	0.8690948290352771	0.46821279776242486	-0.1595335518178722
17														9.544108662149474	1.0021046704046743	-1.3627670732548653	0.1097434681784335	0.12291881203822913	0.9863302372123045	0.4837754463948372	-0.8734606377429832	0.05502573742439168	0.8682843362963807	0.4711236355360795	-0.15532170286737856
18														9.440990161073016	0.9746998938678578	-1.3246901208665565	0.10646954773554446	0.12147210266093314	0.9868681592189106	0.48526204052167066	-0.8726335809282519	0.05505801908061339	0.8678623090293378	0.47302765427770543	-0.15185470310398191
19														9.502387268434834	0.8191764503302751	-1.3797257345556424	0.10390287960610789	0.1203262736655244	0.9872820161814602	0.48614515992205054	-0.8721373363757126	0.055130300052167264	0.867679131415481	0.4742341767157313	-0.1491136162153881
20														9.524106528999376	0.8121940776000265	-1.3844184624088132	0.1020701791511694	0.11939975378382167	0.9875856303756203	0.4863022686006236	-0.8720472213488881	0.05517016668064953	0.8678086091310315	0.4746339036921472	-0.14707438724678884
21														9.523490660434282	0.5957660526675995	-1.4307635202875655	0.10075860641408113	0.11860602721060204	0.9878159310027403	0.48628143622604375	-0.8720628769340482	0.0551062923398738	0.8679735410802734	0.47480411643416637	-0.14554374944236576
22														9.617217687224157	0.45717187415657684	-1.4647251929211225	0.100011683452778	0.11806414281201255	0.9879567406293691	0.4862375143121224	-0.8720943315797522	0.05499596805252435	0.8680845251751182	0.4748813904634823	-0.14462683756122052
23														9.651693802426413	0.3346460783095122	-1.3966554382343257	0.09947559165117226	0.11764157866029717	0.98806126613483	0.48650541384840956	-0.8719548950571407	0.05483742592499635	0.8679960189781046	0.4752421697999924	-0.14397149399085296
24														9.629399313686722	0.42005196649171544	-1.4113124041249587	0.09897942704574825	0.11731460406394145	0.9881499667029374	0.48705122437716775	-0.8716588697591339	0.05469844241778138	0.8677466092439645	0.4758656306601163	-0.14341451705476893
25														9.645713191191062	0.424242857385333	-1.3754871409096083	0.0985794318706899	0.11703647792760771	0.9882229295287337	0.48773406204450187	-0.8712872756711052	0.054534099196682256	0.8674085429217433	0.476614043108178	-0.14297368141883254
26														9.672289421575757	0.3693840110008062	-1.3358516447131197	0.09808298498584361	0.11669068422653528	0.9883132156715352	0.48858873395374747	-0.8708210866893062	0.05432940300363007	0.8669837236706014	0.4775499127756173	-0.14242648524154272
27														9.748645128761996	0.314511922858879	-1.261752243393449	0.09751568564713547	0.11618999028213028	0.9884283369121951	0.4896683734256325	-0.8702357621226167	0.053987057611654926	0.8664384427756335	0.47873751104452567	-0.14175620056783517
28														9.757905712671793	0.38407691137830374	-1.2495065183533771	0.09684638544781576	0.11542820891343983	0.9885833835406742	0.4908388999738523	-0.8696091598533751	0.05345169194296148	0.8658509986701818	0.48005857734878765	-0.14087515897313618
29														9.756134330138552	0.39251839766996804	-1.1805855895156359	0.0960103072535477	0.11431561721577141	0.9887941952507899	0.4919711345637646	-0.8690151319631423	0.05269822743816974	0.8653013484660255	0.48139862907953956	-0.13967439372776363
30														9.808565403825332	0.5265517970156364	-1.1561849581326549	0.09508800474595785	0.11283380027206025	0.9890534893875045	0.49282598473093875	-0.8685899901176148	0.05171051964023435	0.8649166550179352	0.4825142097220012	-0.13819991783260738
31														9.840004894978259	0.4494003871452644	-1.1628549771269714	0.0940715933008694	0.11100411552232428	0.9893576813624799	0.4933045634794875	-0.8683879831905662	0.050526411910338964	0.8647549612370825	0.4833015590574144	-0.13644947793423184
32														9.834595954490979	0.3654150886529004	-1.1464332924591296	0.0927852846205709	0.10880404759953474	0.9897234816775026	0.4935000625692705	-0.8683532719972641	0.04919637441693886	0.8647823883509688	0.483863900531548	-0.13426520979163048
33														9.854162776395418	0.3109643322450437	-1.1633329843123008	0.09138454332142532	0.10616165153684046	0.9901406814109326	0.49351697758652124	-0.8684346257334423	0.04756357494009522	0.8649218797531952	0.48430466090074686	-0.13175407907921843
34														9.796844073970341	0.21257407880453952	-1.1515368198236953	0.08974424910723716	0.10322510076412564	0.9906011045443138	0.4937380995103937	-0.8684057804136804	0.04576122415289405	0.8649674322447308	0.4849907000307768	-0.12890058975665825
35														9.79040107160317	0.1534856782165045	-1.2457809748092976	0.08790653599490506	0.1000327938687027	0.9910932756709624	0.4941022668008874	-0.8682990848122258	0.04381380212302502	0.8649482012650244	0.485849914546738	-0.125755594958341
36														9.708317624323003	0.3383683648955127	-1.1457573108979444	0.08604705508658128	0.09672776685344325	0.9915844106431246	0.49474083748097936	-0.8680374262328525	0.041743626910754617	0.8647701475187184	0.4869853855903594	-0.12254724061301003
37														9.700577640965061	0.45526333423014975	-1.1685192436880223	0.08417331619509433	0.09348136535020207	0.9920564939422467	0.4951017213431313	-0.8679240340111856	0.03977633352659371	0.8647480201560389	0.4878207719214225	-0.11933882904653642
38														9.579927434558414	0.4509459466677774	-1.1002784734531554	0.08255961589349814	0.09041605738531783	0.9924761188010588	0.49505279620653725	-0.868035977471229	0.03789816332828527	0.8649315804106167	0.4881992199732233	-0.11642543891233414
39														9.645474736576677	0.3841268793265522	-1.0561585870616443	0.08119186163679876	0.08742634107458863	0.9928567452005653	0.4945669129130205	-0.868392721385576	0.036022910713013306	0.8653389221892399	0.48810932825634734	-0.11374459729368092
40														9.695796938582637	0.3126395095104654	-1.0447060808821633	0.07996155041762748	0.08458505693199442	0.9932026573658671	0.49405997666788165	-0.868754504369579	0.03421038720182393	0.8657429698875648	0.4879661661236133	-0.11125704835596173
41														9.711712295796662	0.24640049312509277	-1.0386698841909077	0.07884572496127035	0.08190159400373459	0.9935167238426235	0.4934556018870056	-0.8691639598448998	0.03248968871914773	0.8661898871619695	0.4876947198877404	-0.10894466288879756
42														9.692232905617333	0.2078014665054744	-1.0023259894211949	0.07781881161101784	0.07919710407362804	0.993816910333991	0.4928161375847222	-0.869591418180981	0.03070863009101099	0.8666466910428524	0.48737930211729474	-0.10670018168744416
43														9.737167703587373	0.2813584720755413	-0.9368224636393879	0.0769178701485122	0.076384497561159	0.9941071621229501	0.491952225377924	-0.8701458679353145	0.028795424303286965	0.8672177634236539	0.48683834796308656	-0.10450729043969975
44														9.781742065844531	0.2761106250200731	-0.9554774018302334	0.07602674723815539	0.07348422682786948	0.9943942890583672	0.49120093454377767	-0.8706344118760371	0.026783628592600056	0.8677220612659937	0.48641113192933516	-0.102287023260616
45														9.720622553717224	0.2763935210344189	-0.9643360720764776	0.07506337455954226	0.07066014407335594	0.9946721237871635	0.4903436368306111	-0.8711738943591515	0.024882998349067903	0.8682906239384734	0.485863344806585	-0.10004100436268037
46														9.664047242057876	0.36423745974602467	-0.9120883319575775	0.07422845366576786	0.06799118672394364	0.9949207682997978	0.48927900381589184	-0.8718220008566138	0.02307499181581596	0.8689627109901314	0.4850810214286283	-0.0979806591039335
47														9.761091877923091	0.4466772195815701	-0.9691632856347705	0.0736274206893674	0.06556826194524737	0.9951280349523424	0.48774649030717465	-0.8727225950688389	0.021415724347894072	0.8698749129131522	0.4837934219083505	-0.09623700329158574
48														9.634485387484533	0.33951361756866094	-0.8816109672068632	0.07318291341708016	0.06356767499461327	0.9952906167946961	0.48617649971826515	-0.8736306071519437	0.020049273528514294	0.8707908315465219	0.48241964402696613	-0.09483994280582125
49														9.664430330247761	0.08351188820424771	-0.9633789781157762	0.07299440990076345	0.0620647962025529	0.9953993054023976	0.484419625019459	-0.8746291787600156	0.019011221885725488	0.8717852046342877	0.48080324534461816	-0.09390844608892651
50														9.746353064579173	0.16929102926368247	-0.9276736804452863	0.0728040591614294	0.060952423476136386	0.995481979265323	0.4836290014973711	-0.8750836321977083	0.018210589510552017	0.8722399657664598	0.48011815080462406	-0.09318800023432927
51														9.744073680882067	0.13245363881064404	-0.9344520550478184	0.07255809834124533	0.06022727781570139	0.9955440710345338	0.4831627791377826	-0.8753507649828236	0.017741676917370608	0.8725187970588124	0.4797225377766781	-0.09261336581804563
52														9.87705688378625	0.07760232719773741	-0.9234425978506693	0.07212399009391751	0.05968039396586183	0.9956085478886831	0.48318257114356883	-0.8753453321644902	0.01746861187755408	0.8725438286963141	0.4798007920313576	-0.09196992426907485
53														9.791926168828542	0.1501180155780652	-0.8489655929278073	0.07143705184626092	0.05911114835028741	0.9956920305818586	0.48355724648614806	-0.875142526992773	0.0172611360992872	0.8723927653266326	0.480241011981915	-0.0911012262065497
54														9.72343750743768	0.10540418956842469	-0.8989493326625757	0.0707717925585799	0.058635704814398504	0.9957676473449838	0.4841970663167531	-0.8747918770537189	0.017098912570127356	0.8720920561203932	0.480937652884186	-0.09030182550732341
55														9.760973664763576	0.13080947302231558	-0.8730134162923976	0.07020180250371955	0.05808908117670125	0.9958400301119028	0.48495240253801924	-0.8743788343955899	0.016817289722561773	0.8717183456815807	0.48175441109454953	-0.08955340972353898
56														9.76259255866994	0.28285389041312653	-0.8294074739080439	0.06964951499344108	0.05744097973172968	0.9959164015662347	0.48553875755244125	-0.8740602366141765	0.016456539259565806	0.8714362053389855	0.48240982226466844	-0.08876769348676872
57														9.773707838617035	0.27472674562161065	-0.902466984034382	0.06937681415828073	0.05669728450322861	0.9959780497517039	0.48568224805341353	-0.8739904170852804	0.015921833087943288	0.8713779958106758	0.48262425216006066	-0.08817153533829575
58														9.652093843255773	0.14067028114714394	-0.9197893136655735	0.06921799739716028	0.055880436763019375	0.9960352632429749	0.4857152571929455	-0.8739835487438374	0.01527892192271163	0.8713722268734062	0.4827319476814267	-0.08763737171651576
59														9.755088367385891	0.27306694322323716	-0.8652322224066271	0.06926604224248123	0.05493893012126139	0.9960842983147533	0.48552111875572057	-0.874105527549345	0.014448873654209049	0.8714765967220559	0.4826191465998971	-0.08721984121133636
60														9.798837041355728	0.2554747540041612	-0.8028361349503844	0.06938877908302477	0.053910300724673926	0.9961319575302976	0.4851696812161207	-0.8743154735529477	0.013521580326749522	0.8716625366310147	0.4823547783340185	-0.08682332666009085
61														9.699736449932631	0.14115289811533244	-0.8355653590283265	0.06946893779597907	0.052985409642649306	0.9961759950161918	0.4846188799269242	-0.874632839142833	0.012725482753968426	0.8719625037235675	0.48188166914497665	-0.08643754417022398
62														9.866032487858897	0.0765806313347119	-0.8214530430265627	0.06950595913391644	0.052154667173895386	0.9962172515756065	0.48439071585509297	-0.8747694658845655	0.012000664540906952	0.8720863237307794	0.48172426993874096	-0.08606492731491777
63														9.857037237278904	0.17524736498208407	-0.8836634216849149	0.06939573341678673	0.05132266132681121	0.9962681449378376	0.48414313472597037	-0.8749152251541473	0.011347858440210995	0.8722325706377042	0.4815488897586636	-0.08556289786432686
64														9.803955020321077	0.1850523422268308	-0.8559185962692758	0.06908398056645265	0.05054402763260388	0.9963296165927062	0.4842220044627762	-0.8748784183927314	0.010807563309299578	0.8722135369410093	0.4816980945585191	-0.0849146140281336
65														9.807637132503332	0.23567236035837516	-0.9338849777475698	0.06872973019167439	0.04984414198404244	0.9963893745407236	0.48398846690586617	-0.8750127236318764	0.010387366578451657	0.872371129789317	0.48152704492292064	-0.084263378272596
66														9.81292208255565	0.24192642688662241	-0.9497125625743745	0.0683759335987239	0.04926253118500895	0.9964426399576395	0.4838092986958022	-0.875115565057882	0.010065301232500073	0.8724983061301496	0.48139999045977444	-0.08367051443220674
67														9.773655609808886	0.18180982772960969	-0.9754307658480214	0.06802137908680617	0.04864115138354297	0.9964974311954917	0.4832747058975365	-0.8754145569734144	0.009742283032815408	0.8728222331189668	0.4809193194613054	-0.08305394356739632
68														9.805053860474	0.06529166629808318	-1.0628507396117854	0.06774260833690215	0.04794319284798185	0.9965502442301918	0.4826946090274473	-0.8757391579425684	0.009318887373574475	0.8731648489440887	0.4803981447774157	-0.08246677550907605
69														9.746041666149411	0.21309935605462893	-1.0890645412031768	0.0676744484704736	0.04723418244208252	0.9965887321424245	0.4817415848330807	-0.8762689555378511	0.008818333352459962	0.8736962941816389	0.4795014594030257	-0.08205568818576581
70														9.708117850538544	-0.047719083836837956	-1.224610125179773	0.06771556976593596	0.04658292999801636	0.9966165923985386	0.48096785854002144	-0.876698955039911	0.008298269901281602	0.8741192828571516	0.47877862615694167	-0.08177106133939399
71														9.692966184589846	0.043641123657630426	-1.1333054287582478	0.06791523698906732	0.045993489858969505	0.996630382576867	0.48024973111613806	-0.8770975565204608	0.007750619892291477	0.8744985513696386	0.47810508806791685	-0.08165664955148177
72														9.653030188946982	-0.01794212830771204	-1.1651671249180753	0.06826559765712581	0.0455711448736392	0.9966258470115157	0.4797012506879722	-0.8774018344129045	0.007261615334424015	0.8747722665156403	0.47758694676862323	-0.08175689580282297
73														9.677502423174257	-0.022036530343464703	-1.2155066077381922	0.06872127628588703	0.04519304231390095	0.9966117474282817	0.47947078789768205	-0.8775320239677468	0.006731304765531854	0.8748629319718692	0.47738363591296723	-0.08197386427454051
74														9.653238166600756	0.2513036801208389	-1.1106520694688913	0.06933522682005716	0.045019020812204824	0.9965770989175508	0.47900259126509254	-0.8777906836718946	0.0063271810591203625	0.8750709364863732	0.4769243162430895	-0.08242604377818702
75														9.67727498069272	0.2485269774637752	-1.1650753515849617	0.0701781824056884	0.04501874670385725	0.9965181057860654	0.4780871722388384	-0.878291833542596	0.00600923231836295	0.875504242396863	0.47600080627830743	-0.0831598098091626
76														9.584595972332892	0.35821813912934636	-1.1473846206086344	0.07134184750307637	0.04520979391532626	0.9964268238706652	0.4766561905104965	-0.8790709444886883	0.005757656101831626	0.8761901716196486	0.4745422521650726	-0.08426407340754138
77														9.558070282344142	0.5804669514252498	-1.0996116054824658	0.07294100198707143	0.045678560471392654	0.9962896563461773	0.47405325664309605	-0.8804779673578098	0.005662054709660441	0.8774697260277403	0.47188136020690796	-0.0858770155168509
78														9.516859079529123	0.7006958560205854	-1.0742364460224143	0.07499918923548404	0.046464051288764685	0.9961005037403884	0.47037975998517506	-0.8824453872579667	0.0057462947563271805	0.879271290905321	0.4681145484226831	-0.08803843788208826
79														9.459833985494438	0.8420580763503995	-1.0477425945092151	0.07747773652667234	0.04768145510645175	0.9958532417889876	0.46518551186065926	-0.8851915648178688	0.006191375471581828	0.8818161032197365	0.46277680626218193	-0.0907633609345474
80														9.521365946086881	0.7822398536832925	-0.9797019679473005	0.08058052970253232	0.04932221653789021	0.9955270449307987	0.4583469236839835	-0.8887463324401399	0.0069321081662492845	0.8851129169672578	0.4557381655402469	-0.0942223364586266
81														9.572642215495382	0.6306339935831916	-0.9605984121409504	0.0840189332543832	0.05130619609701931	0.9951424486458459	0.4502443746914892	-0.892869356921062	0.008019634034007517	0.8889436550836424	0.4473834884228784	-0.09811825708353611
82														9.668356624491883	0.3469046199387667	-0.917309489164614	0.08755915038343914	0.05347526392564489	0.9947229721546667	0.44167465633638386	-0.8971265580307843	0.00935076606358301	0.8928924308864246	0.43852518174435695	-0.1021703080244512
83														9.74010299954778	0.06857121244009304	-0.9638274996891988	0.09081747242800742	0.05554081510439257	0.9943175572015853	0.43354733901052506	-0.9010668682037866	0.010733306215382987	0.8965427438436392	0.43010895931491594	-0.10591218805387348
84														9.72190203293266	-0.019860404122258146	-1.0221966513709888	0.0936668462549552	0.05742622554464308	0.9939460501115472	0.4260460689912705	-0.9046203360172198	0.012115888790252605	0.8998395795972393	0.4223319503468664	-0.10919915158313204
85														9.798018598033318	-0.0658593768207335	-1.0671588663144531	0.09607414892870864	0.059148727994195544	0.9936152101715702	0.41930934863776326	-0.9077431372964884	0.013493214446675394	0.9027454946177241	0.41533579747933835	-0.11201226396963432
86														9.780552667713682	-0.15403842102018273	-1.1190008566109808	0.09803105053076983	0.06068592377692217	0.9933313303159097	0.41345936133429306	-0.9104020301603342	0.014815532558107247	0.9052299540210056	0.4092497552049157	-0.114338830708751
87														9.78183267852744	-0.1100581821726463	-1.12469487983068	0.09943493545911208	0.06194508875225899	0.9931140415831998	0.4083788460052902	-0.9126716132653797	0.016038842693831934	0.9073805220223929	0.40397194496529676	-0.11604850682074963
88														9.74983407441573	-0.062080873948603774	-1.1274410895163804	0.10040341820548992	0.06287968317902856	0.9929578536151263	0.4041310238832492	-0.9145421866346245	0.01705005573704907	0.9091739487841314	0.3995731901778006	-0.11723479237583445
89														9.801652257356746	-0.06502051779650553	-1.1622241477569433	0.10096767185317962	0.0635144267168028	0.9928602352997048	0.40062351225420917	-0.9160686564823348	0.017861076108464463	0.9106625778353094	0.395959763371844	-0.11793869221278946
90														9.748023426822094	-0.04407791708418218	-1.1438192937080458	0.10132025995968236	0.06404564974986218	0.9927901891486544	0.39801237750231055	-0.9171924957364559	0.01854920806099572	0.9117677074105341	0.39326337296123803	-0.11842114342671045
91														9.702025610498621	0.017026175517003455	-1.1282784114241513	0.10143864995153934	0.06449753006340378	0.9927488448302165	0.39630357942957173	-0.9179199647577474	0.019141871132283106	0.912498588068671	0.39148819511558214	-0.11867316401708389
92														9.72448848362708	0.02767785926931065	-1.1804503174740297	0.10152811566785558	0.06495725344417738	0.9927097244179303	0.3953718457004677	-0.9183108778491682	0.01965286878028938	0.912892734857902	0.39049415725318937	-0.11891664221117781
93														9.73508600684938	0.10499448991813014	-1.17127642987367	0.10148517960786918	0.06544234709836172	0.9926822540602885	0.395231038309284	-0.9183610014858433	0.02013696369573595	0.9129584791637148	0.39029523460602955	-0.11906487797373544
94														9.776101219885195	0.14623960110995257	-1.174581750649908	0.10135840372844596	0.06596657140025866	0.9926605086590866	0.39579787274026945	-0.9181066184499841	0.020598084683133788	0.9127269678977933	0.3908051286971944	-0.1191672499308033
95														9.741079066112546	0.2772158142720005	-1.1441797256134338	0.10111061653714476	0.06654395976874133	0.9926472407868645	0.3966848838833986	-0.9177119840331003	0.021114385154347604	0.9123693035837483	0.3916332669479544	-0.1191874074631179
96														9.797822297260009	0.2626345265204534	-1.228854717598595	0.10090405053045942	0.06712426128489224	0.9926291886366753	0.3976651218745912	-0.9172762327968851	0.021604712227230538	0.9119653630654035	0.39255400430120746	-0.11924986488912487
97														9.659583821530477	0.5304748090817274	-1.1743599018280753	0.10081344498787154	0.06778564987651756	0.992593448991326	0.3983029519296303	-0.916985998230755	0.022168390399145782	0.9116969934105412	0.39311802899328396	-0.11944374193156998
98														9.615608561012024	0.7222961347812408	-1.1453049901095826	0.10105494001689636	0.06859643050121103	0.9925131882351361	0.3976589983668303	-0.9172473151660561	0.022905978227349882	0.9119513255191154	0.39236703804366013	-0.11997036025941649
99														9.647881531021145	0.3740714472755477	-1.191600620608949	0.10173067577772843	0.06951318247743105	0.9923803641082718	0.39585455164452954	-0.9180067298082984	0.02372378487893745	0.912660968568348	0.39042484742717515	-0.12090655467488876
100														9.67760178559886	0.26590808750474937	-1.1735902567107477	0.10266670817354379	0.07053274167736093	0.9922120133239083	0.39372780868916324	-0.9188983519572766	0.02458111948287206	0.9134757575861763	0.3881377991405581	-0.12211097076301419
101														9.739984428929718	-0.07933509227249769	-1.1653881971545752	0.10370370513181404	0.07153594568965513	0.992032333150599	0.39173154384900344	-0.9197296698333779	0.025371873834274195	0.9142165712212892	0.38597920009046177	-0.12340226092708828
102														9.836060025042157	-0.3683536756786124	-1.2340695137444602	0.10461301931965955	0.07243469122718108	0.9918716306537092	0.3907096103940064	-0.9201470525015312	0.025988499735631554	0.9145502263597056	0.3848150429486459	-0.12456029136865238
103														9.857332010376181	-0.3385118819650377	-1.2557463065111107	0.10512779928520505	0.07317576298967673	0.9917628010408176	0.3910091241875653	-0.9200071230682039	0.02643403688126436	0.9143631721693098	0.3850093521132254	-0.12533071517322342
104														9.76183968506365	-0.2766844686849415	-1.2745868177958286	0.10529984230459205	0.07369515988194458	0.9917060888290457	0.3925119056988946	-0.9193609785354846	0.026641978734668864	0.9136992651278923	0.38645105066004304	-0.12573479370682866
105														9.679011849204135	0.004810947040532929	-1.227888071066831	0.10531007346343796	0.07415512864028079	0.9916707141604357	0.39448721485910904	-0.9185107663804399	0.026791964390839335	0.9128469892264686	0.3883799543482648	-0.12598168644930613
106														9.63825850958215	0.2215713698215461	-1.1809861004226063	0.10545928780062874	0.07466049493891205	0.9916169366807231	0.39637184244846135	-0.9176947113382118	0.02694029131038994	0.91201299394833	0.3902079282605022	-0.12637274861318193
107														9.610470681363037	0.29002217556062826	-1.1556380940902446	0.10575248242000607	0.07516618956311011	0.9915475058758246	0.3976588958514423	-0.9171326409267568	0.02711312407163116	0.9114185728918506	0.3914304061940954	-0.1268795574334472
108														9.62113027704525	0.3019480204200953	-1.072225587105204	0.10644585673929102	0.07568865717778867	0.9914335614440638	0.3981638339181211	-0.9169094766123841	0.027250193724543903	0.9111173584904745	0.3918523176823451	-0.12773770071640272
109														9.636871326859108	0.16632575881903175	-1.1224608790630377	0.10750455527962577	0.07618414330412285	0.9912813661635869	0.3980570387300413	-0.9169542894400152	0.02730247232445615	0.9110397162097823	0.3916513850180721	-0.12890239757981836
110														9.757775886246435	0.04373043666004122	-1.1502909232699883	0.10873203004713544	0.07655820436658631	0.9911186543426537	0.3979117994992716	-0.9170209301713138	0.02718112298985567	0.9109574882842119	0.39142234858513403	-0.13017296019918095
111														9.875145658210455	-0.09165240015584972	-1.1572962535420037	0.10990240344409818	0.07677154643715453	0.9909730527995493	0.3979672471436736	-0.9170050054506156	0.026905207291572142	0.9107928040548501	0.3914178708696935	-0.1313336150638481
112														9.797518172439759	0.014549788907622664	-1.0969711766455463	0.1110029355280664	0.07696727128428277	0.9908351969198529	0.39843031933697465	-0.9168133480576119	0.02658129899814521	0.9104568243124923	0.39182818170014777	-0.13243506744200206
113														9.760856337418833	0.09882850000847115	-1.150792841171318	0.11193043639015132	0.07702681918488058	0.9907262217867107	0.3989639397795971	-0.9165925582196092	0.02618887114740201	0.9101095275652556	0.3923327049108867	-0.13332552828417665
114														9.8112977142526	0.22346111640113925	-1.1137553015069606	0.11285998346909198	0.07714033806767209	0.9906119282414088	0.3991384407793398	-0.9165248656798972	0.025897406871813577	0.9099181991935288	0.3924685195442458	-0.13422865544716678
115														9.73336226545046	0.059564185970819396	-1.1342681610193972	0.11372477433430389	0.07711362749724651	0.9905151004183775	0.3990685891871376	-0.9165653690688569	0.025537919802889802	0.9098411602179802	0.3923791695259664	-0.1350098162924222
116														9.873106603205109	-0.07395902655595457	-1.1869086613693882	0.1146066953494333	0.07696349775120453	0.9904251235681492	0.39916967466007086	-0.9165353095418762	0.025031923512813387	0.9096861415965709	0.3924788483178151	-0.13576257735571357
117														9.794016183534183	-0.12033354449233251	-1.1713763129387451	0.11534973960185524	0.07664439441267118	0.9903636071559274	0.39948109529729514	-0.9164168399407648	0.024393236215336067	0.9094554920796611	0.39281778508374426	-0.13632643048229398
118														9.844689334158398	-0.03791899769053076	-1.2053051225293472	0.11593756265165789	0.07615081672511959	0.9903330423036938	0.40011419711910984	-0.9161612134105277	0.02360636155529236	0.9091023654298358	0.39350944608007354	-0.1366865209727377
119														9.815297809329612	-0.11018497330786171	-1.1894991885242208	0.11633922475899172	0.07546310484265653	0.9903385807843619	0.4010529848690181	-0.9157743530291015	0.022667987598877476	0.9086372698223033	0.3945410677504154	-0.13680518173020395
120														9.760635868313463	0.11382040677522745	-1.1343266988253498	0.1166481597529167	0.07462415863996721	0.9903658120985068	0.40227874535166175	-0.9152627820001753	0.021583579953110416	0.9080556248735816	0.3958854314477567	-0.13678343212126481
121														9.713590087654145	0.22004524333189013	-1.193124475054302	0.11696414853821768	0.07377875179715906	0.9903918839227137	0.40333626202937334	-0.9148218230791983	0.020515646473449084	0.9075457276021421	0.3970613652841385	-0.1367590015676977
122														9.665209318804191	0.273627927882339	-1.11449566945997	0.11745241072286333	0.07306346815150463	0.9903871267524946	0.40400319572498533	-0.9145484919837041	0.01955693366383801	0.9071859506514566	0.39782255520772913	-0.13693379973040382
123														9.709264608546155	0.29327644939468345	-1.1790232499442856	0.11810289089883341	0.0724607361796624	0.9903540522831419	0.4037418470581646	-0.9146802535134285	0.018776441800091692	0.9072178504060645	0.39762982225294924	-0.1372818136523849
124														9.653651636685566	0.16820249048037414	-1.1684749416160576	0.11884445105167668	0.07195838732117807	0.9903019675575531	0.4035809000125893	-0.9147661645279844	0.01803666764646447	0.9071926221036268	0.3975234014858696	-0.13775591338251153
125														9.721137749599183	0.15134774577027266	-1.1683131906122004	0.11962886726146055	0.07154424750852434	0.9902375244183482	0.40324801859021386	-0.914925525594322	0.017387297634195997	0.9072375486171228	0.3972312969346607	-0.1383015803047854
126														9.75152023160334	0.009913195197617703	-1.1826826855234231	0.1203962258832551	0.07122932401161133	0.9901672243585511	0.40296241157716184	-0.9150617797581846	0.016829559759592744	0.9072629407448463	0.39697395711385464	-0.13887272491162966
127														9.717359296960542	0.0305031850067687	-1.1529300417578856	0.12111866140393446	0.07093866540588459	0.9900999826331437	0.4026123175534482	-0.9152250517665766	0.016322572502792565	0.9073222093688443	0.39664948048535176	-0.1394116136365261
128														9.762467862554194	-0.008137994771784677	-1.1407746330487722	0.12181083815268057	0.07069167885382349	0.9900327298879417	0.40262263143353794	-0.9152294620811534	0.015812918648268753	0.9072249645849013	0.3966833980386263	-0.13994693763871324
129														9.70617138485489	-0.01070354986646809	-1.098106284445314	0.12246313305330098	0.07038586110882103	0.9899740459217801	0.40264974629253447	-0.9152268811358515	0.015262301821780067	0.90712510871066	0.39674372912789846	-0.1404224004365459
130														9.769748472045965	0.06292986382665623	-1.0800882980734263	0.12300882913018069	0.0700081823657085	0.9899331706523786	0.4029771455667939	-0.9150929147019652	0.014641639699857018	0.9069058650746837	0.3971193924553561	-0.14077620547886588
131														9.704868825142784	0.08014068025085141	-1.1091333043022449	0.12347267244756688	0.06958089781841417	0.9899055499477917	0.4030631219657239	-0.9150643931229979	0.014045502827745832	0.9068046200091288	0.397260185643142	-0.14103093998437555
132														9.702572505112986	0.10350081398097606	-1.0138348551481187	0.12376612660442726	0.06912458271835964	0.9899008727995698	0.4033777846823821	-0.9149345893046386	0.013455858154961697	0.9066246790872566	0.39763864168106866	-0.14112123125867343
133														9.705351322166424	0.09025354673768402	-1.0731888595004915	0.12395397538942349	0.06862597577877938	0.9899120604546489	0.40352394193977453	-0.9148781988291048	0.012896107497943093	0.9065339708287513	0.39785469301696497	-0.14109501400769947
134														9.698151022350428	0.04420861265892771	-1.0670017095288693	0.1241282933056081	0.06808149960822696	0.9899278136370002	0.40384572681086167	-0.9147447862281116	0.012272123088236109	0.9063668108098637	0.3982547996943426	-0.1410401318163566
135														9.690013817594705	0.07894352958313573	-1.1023114959951057	0.12424404273167367	0.06748950538450524	0.989953829483297	0.4040916971156915	-0.9146444195589352	0.011639849305687539	0.9062413134302862	0.3985859410875573	-0.1409110691162906
136														9.64866247763568	0.1385135051655805	-1.1017461178937684	0.12429190048282213	0.06679492466883172	0.989994930044015	0.4043972630567433	-0.914518103602525	0.010931231195858787	0.9060984367642315	0.3989925766499012	-0.140678877844861
137														9.674765136577193	0.1667995164575172	-1.133289442601092	0.12422650393299228	0.06607971852008793	0.9900511332859997	0.4045523935017866	-0.9144571194917802	0.010273145709654985	0.9060381540710977	0.39925135868410283	-0.1403325192403243
138														9.69696875842066	0.1646688571586344	-1.1803215229939519	0.12422012346696037	0.06533611201916009	0.990101284410879	0.40460587810257	-0.9144409736666366	0.009580662005380797	0.9060151457512731	0.39941068857234263	-0.14002734562743718
139														9.667675135903663	0.09474445665870276	-1.1586962610813647	0.12415205833214349	0.06460932680070414	0.9901575133796902	0.4046024142239486	-0.9144490167567204	0.008937681848166928	0.9060260221517061	0.3995104887772367	-0.1396718172751007
140														9.724528142445429	0.1071315882452896	-1.1648803647886254	0.12401192052466053	0.06395694679031133	0.9902174268942382	0.4048308871702603	-0.9143533840084619	0.008357149347330173	0.9059431529410246	0.3998342132803731	-0.13928246669893468
141														9.735982505174038	0.15491195698948892	-1.1879379075610206	0.12369373905863312	0.06334488932656457	0.9902965636181418	0.40513562760124283	-0.9142226793782289	0.007875008485026647	0.90585041931096	0.40023033056815854	-0.13874689303714394
142														9.661781705409535	0.2418823131557944	-1.1501824871756352	0.12347212202027469	0.06280045599372547	0.9903588934375209	0.40534426456305606	-0.9141339114863911	0.007430952592126477	0.9057873162446282	0.4005187818287319	-0.13832585851091983
143														9.707199550393714	0.18457183875108657	-1.166166127324266	0.12321236239425659	0.062309575834920944	0.990422248595264	0.4053725826440979	-0.9141241429806976	0.007079580514363942	0.9058100148451002	0.40061773298130177	-0.13788998885793713
144														9.737582699525985	0.14566012129861503	-1.1759312539689655	0.12306988241473221	0.061833022959599665	0.9904698285733404	0.4053344022129105	-0.914143906961582	0.006703711488222602	0.9058464695659674	0.40064647089010086	-0.13756663453825219
145														9.782392744193237	0.069039639522047	-1.2294824426280964	0.12277490390658496	0.06132602862590514	0.9905379554483029	0.40536902245445006	-0.9141310741362542	0.006350978886933006	0.9058710054997086	0.40075366188155204	-0.13709202706019863
146														9.783542324371467	0.08653058266418967	-1.1872338345684408	0.12239662512236948	0.060868819565073395	0.9906129682996329	0.4054929218483933	-0.9140780646695598	0.006064818282990242	0.9058667432296582	0.40094423364690934	-0.13656194570884528
147														9.73889525862227	0.11934712620738262	-1.1989742456800874	0.12193434961233846	0.06035568048554066	0.9907013708569007	0.4057551448791483	-0.9139637879259186	0.005740798220348425	0.9058116673948929	0.401282177766759	-0.1359332079296663
148														9.731821213295222	0.15730005002674333	-1.2290389267403103	0.12139320993217528	0.05988409635042907	0.9907964390260267	0.40596648609368147	-0.9138714423286649	0.005495367583143451	0.9057896559086502	0.40156304847485363	-0.13524872401790256
149														9.732287345340902	0.13656876533609089	-1.2592215555578083	0.12077944545463903	0.05942385343869502	0.990899152890024	0.40598722854967106	-0.9138632725624461	0.005318770159900343	0.9058624044578887	0.40165000274362406	-0.13450122484877147
150														9.646019510362505	0.11577687859819505	-1.303754612157182	0.12016422727913478	0.059008292598626916	0.9909987789533362	0.40596668323598994	-0.9138731392080037	0.005190138387171278	0.9059534262779615	0.40168881841383564	-0.13377026043377027
151														9.612613931290506	0.10183628983012029	-1.3370336214572092	0.11959371673648289	0.05863788463431316	0.9910897746434311	0.4058287563250721	-0.9139348932563265	0.005102100370672491	0.906090703769109	0.4016025515035483	-0.1330978105343612
152														9.643721844571594	0.0856921620315709	-1.307070351204268	0.11917161454169756	0.058402486453134145	0.9911545166439062	0.4056207301095195	-0.9140273166581828	0.005087996468266354	0.9062394548864798	0.40142647393854364	-0.13261537025670267
153														9.624990079708603	0.054506023818549444	-1.349450837433991	0.11884458547321453	0.05817737855774838	0.9912070203180808	0.4051473959711812	-0.914237250480826	0.005083047415719355	0.9064940992866256	0.40098085048716225	-0.13222256048466652
154														9.663143395734846	-0.020653820112045147	-1.3228236945907883	0.11866819165444531	0.05803759074674866	0.99123634838003	0.4048500496240037	-0.9143690385810017	0.005069379044444322	0.9066500414211126	0.4007005107867564	-0.1320030418071002
155														9.727648018274872	-0.04274255319220809	-1.2937023905836214	0.1185321388166834	0.057837943130718134	0.9912642959382478	0.40461487921768646	-0.9144736465404664	0.004974866695621083	0.9067728114490416	0.4004906017840993	-0.13179660958996836
156														9.705165611225217	0.014897746447932177	-1.321887668063122	0.11840285268603157	0.05763758543000383	0.9912914169010083	0.40457360883249827	-0.9144925834262433	0.004848700304609321	0.9068081161480959	0.40047624599243614	-0.13159717657969405
157														9.735757342849963	-0.0022095790631266837	-1.2953723493853775	0.11822606950396641	0.05740024880980482	0.9913262873172568	0.40467495696903866	-0.9144485826359777	0.0046871011466028956	0.906785959139063	0.4006107851164572	-0.13134010490564452
158														9.661115442651242	0.08778814235777833	-1.2606537476667397	0.11812293236744481	0.05719011101768606	0.9913507270641915	0.4047695564240343	-0.9144075465720716	0.004521610812012494	0.9067571775515244	0.4007344881262773	-0.1311613166484839
159														9.702802867767346	0.12253971915636912	-1.262172051425751	0.11802664433447962	0.056987698718288377	0.9913738514919264	0.40481833628536557	-0.9143867031562701	0.004367115541865918	0.906747939525804	0.40081087720494923	-0.13099165958147163
160														9.684328299822148	0.12988163148321408	-1.2329803208558388	0.11798360077227577	0.05686963876882992	0.9913857544543958	0.40449108153781166	-0.9145317252592233	0.004323014082830229	0.9068995726678781	0.40049665127275624	-0.13090300765883345
161														9.695131836322371	0.06209141140740121	-1.2921278916759802	0.1180002875465252	0.056730111796880034	0.9913917623999359	0.40397499133158876	-0.9147601008064097	0.004261965660388278	0.9071274102999977	0.3999945654482833	-0.13085950135262953
162														9.69899661450298	-0.007261509414738005	-1.2706441599640228	0.11793120337682755	0.05665291981416676	0.9914043967759186	0.4034625661835093	-0.9149860820621161	0.0042927055845823625	0.9073644190504225	0.39948831811349395	-0.13076274214064626
163														9.661034926868082	-0.05037124053705974	-1.3252583181583744	0.11774099602836235	0.05650438161563323	0.9914354808622116	0.40320537505673437	-0.9150995538550444	0.004269901598105308	0.9075034343624314	0.3992493724384976	-0.13052760331768315
164														9.638782960310103	-0.07292901587253703	-1.3107521225138132	0.11755588467161715	0.056304164680075514	0.9914688371395002	0.4029741923411825	-0.9152017347169907	0.004193456567423204	0.9076301087370588	0.399043388381126	-0.1302764748650529
165														9.710644206421419	-0.07367002314665416	-1.3238715410505761	0.11727762182209445	0.05607649255176836	0.991514692983844	0.40293807320431607	-0.9152180547122842	0.004101401108943942	0.9076821407200585	0.39903801737648337	-0.12992995076616587
166														9.66221177634081	-0.050045030524967275	-1.316663477108812	0.11700332290894938	0.0557902579217526	0.9915632453602182	0.4030963427878951	-0.9151491275263639	0.003925916295455134	0.9076472667613161	0.3992361725955696	-0.1295643378092624
167														9.678145554083237	0.050957883130474634	-1.2868626621539667	0.11681559434993966	0.05545929107961195	0.9916039451059165	0.40296515868002064	-0.915207778065674	0.0037153543677674594	0.9077296942408882	0.3991478297586487	-0.12925870257860678
168														9.723775832955273	0.0959288583619787	-1.3079053016035307	0.11661406799566382	0.055155707524855324	0.991644597158143	0.40306946794267623	-0.9151626844721936	0.0035021367844074724	0.9077092944097856	0.3992932617476551	-0.12895242520017997
169														9.739167027379994	0.07643666766164074	-1.311560040092783	0.11650138033569113	0.054806564790740864	0.99167719991725	0.4029212946857048	-0.915228872646169	0.003246685019862555	0.9077895453620703	0.3991896180146236	-0.12870815902911836
170														9.788516557509618	0.05090871662325443	-1.3119383807004337	0.1162483588996629	0.05441831544266468	0.9917282722588467	0.40286628948506553	-0.9152539318510347	0.0029988377342509698	0.9078463922105271	0.3991852792571435	-0.12832007237656085
171														9.758881044668964	-0.015061059789106287	-1.2896848811677528	0.11591279788956438	0.05396077521412154	0.9917925478766736	0.40294470376075575	-0.9152203376194157	0.0027017251820650456	0.9078544977013496	0.3993243898713096	-0.12782895860225313
172														9.75199564498741	0.022390009587490878	-1.3211729295143793	0.11554385751798879	0.05341614257361765	0.9918650778721958	0.4030393481472329	-0.9151796701183901	0.002335647029758442	0.907859516023771	0.3994907847679956	-0.12727219669092982
173														9.72635367795176	0.047044654277976085	-1.3614093115890626	0.11515184789109628	0.052796675679792515	0.9919438305491035	0.4030166662098163	-0.9151906116397158	0.0019264276908761424	0.9079193899704925	0.39954806394686165	-0.1266638303223267
174														9.719637953936433	0.022360256281868093	-1.3128141962297077	0.1148894052796588	0.05220450911822991	0.9920056016889273	0.4029323938676306	-0.915228518380203	0.0014983710083404933	0.9079900387815864	0.39953904486458225	-0.12618494800137775
175														9.671202814921624	0.023703420061245276	-1.342358137233382	0.1146464032971134	0.05164512267363497	0.9920629937232113	0.402752059363657	-0.9153084483494114	0.0011059197647857733	0.908100754811584	0.3994286240171303	-0.12573700102361707
176														9.667713637108175	-0.009421311212635564	-1.3551736780909975	0.11461345653970895	0.05119256933982813	0.9920902561886231	0.40241128642269747	-0.9154586805384419	0.0007488567588293249	0.9082559728070334	0.3991424871787046	-0.1255243513791155
177														9.68260152466022	-0.11111077582296598	-1.3179608765301511	0.11474185064298537	0.05078636108625656	0.9920962923217884	0.40201254681270926	-0.9156340808676819	0.0003770394605177585	0.9084163252144812	0.398791894954263	-0.12547830331418264
178														9.738750552314915	-0.19729368388438823	-1.321769842867568	0.11485754213270755	0.050418114268702297	0.9921016877159426	0.4019675831643129	-0.9156538986280998	-3.493318987662919e-06	0.9084216020660644	0.39879311889844615	-0.12543620378094728
179														9.708804249050832	-0.16367899527921903	-1.308497903034824	0.11494315380020148	0.05009030887748597	0.9921083773212596	0.40210596073865923	-0.9155930683784956	-0.00035982730935249507	0.9083495294945136	0.3989740519053975	-0.12538276665190562
180														9.712728493284237	-0.1360953954299149	-1.2924577151007834	0.11509072771729306	0.04975393312736415	0.9921081949726365	0.4023030038636459	-0.9155062640979916	-0.0007572843765555615	0.9082435892841703	0.39921526340521785	-0.12538243891594752
181														9.72760583215222	-0.1573666117878558	-1.2991954476508956	0.11533177916181647	0.049432640204195605	0.9920962628685849	0.4024366012453747	-0.915447111010248	-0.00117000900050504	0.9081538210531522	0.3993907873567347	-0.1254736477557188
182														9.720577823465176	-0.06193595643484517	-1.2246681672048474	0.11564757281980337	0.04915255496362067	0.9920734172637808	0.4026518294689546	-0.9153518381258936	-0.0015863999655836847	0.9080182504367362	0.39964363973432027	-0.12564958453458036
183														9.719962344083324	-0.1462189416796507	-1.1837442790632449	0.11602028464676417	0.04878767725074093	0.9920479101832539	0.40254891524571135	-0.915396158247243	-0.0020601700633000597	0.9080163348668265	0.3995868316332085	-0.1258439493990433
184														9.775735827210468	-0.23397166930771818	-1.1889615842881083	0.11631689091814379	0.04829967685303077	0.9920370568194666	0.40262584656688427	-0.9153608303193006	-0.002641589192245636	0.9079442761334181	0.3997270212695829	-0.12591862413285004
185														9.753118674493896	-0.24233890023267926	-1.139124562299799	0.11645785555787802	0.04772326395168633	0.9920484151273358	0.4030541844076827	-0.9151702026492133	-0.0032900781839186877	0.9077361358403216	0.4002324203019994	-0.12581382050031553
186														9.74275132679144	-0.11839509381316862	-1.1580952430071494	0.11658160209417884	0.047128709959488924	0.992062303865392	0.40370859935663983	-0.9148789702704505	-0.003979517857799569	0.9074293894616017	0.4009680217354432	-0.12568432156363235
187														9.668534701936725	-0.013445609412370196	-1.0869994933903027	0.11671080950885243	0.04645149714260552	0.99207905196965	0.40407943183383654	-0.9147117838573973	-0.0047079975852444556	0.9072477058183354	0.4014282138634869	-0.12552684733449831
188														9.676307941904765	0.0017904231195466065	-1.1289643214108749	0.11693553406550983	0.045765590901244324	0.9920844679573784	0.4042671889586524	-0.9146246494881647	-0.005458065602540696	0.9071351171706912	0.40170544088686716	-0.12545364864205588
189														9.6720587898029	-0.05432900453916922	-1.1815856644782874	0.11720903632358315	0.045149645094824414	0.9920804157687566	0.40417276312820427	-0.9146621603927603	-0.006124531897336055	0.9071418959288617	0.40168973336825575	-0.12545492719351503
190														9.703257772771245	0.04394322229147591	-1.1248730150227955	0.11750027160692245	0.04461900562813079	0.9920699725871441	0.4040519785101925	-0.9147113722378866	-0.006715963123941127	0.9071580263847633	0.401636962735553	-0.12550723218309612
191														9.705784807402264	-0.06997413970612548	-1.1791317847473946	0.11771409163250302	0.04416885213625929	0.992064768617503	0.40383030533473097	-0.9148056746512394	-0.0071876365481756965	0.9072290102969551	0.40147190452988857	-0.12552224005629986
192														9.704931461106154	-0.15388404112836684	-1.1369976453370618	0.11790081618192483	0.04387399340554482	0.9920556790051078	0.4037765446208719	-0.9148266649095245	-0.0075282922728197865	0.9072286919832642	0.401456405943617	-0.12557409991383106
193														9.742594109431456	-0.15167446825116218	-1.1555335690115387	0.11802713343065735	0.04355150744415176	0.9920548684289012	0.4036999887728315	-0.9148576038154674	-0.007866626077141198	0.9072463363601742	0.40142101457243595	-0.12555976354182358
194														9.689885644718762	-0.15987753306087338	-1.1666040243007192	0.11795511657413482	0.04324843655539662	0.9920766922015133	0.4041399410534339	-0.9146606125350625	-0.008177525439364952	0.9070598097806503	0.40190239687329354	-0.12536731977749405
195														9.638912427966789	-0.027511727127550834	-1.1075244594848206	0.11787941806856078	0.0430082107467592	0.9920961327432842	0.40450708425323295	-0.9144961144196659	-0.00841875883260726	0.9069059827704113	0.40230231234694147	-0.12519739572187044
196														9.658065842819513	-0.01629198179378576	-1.0966355167475337	0.11784037698318234	0.04285947620224878	0.9921072073380628	0.4048129107774307	-0.9143592593216141	-0.008582083705768268	0.9067745876569133	0.40262912238497817	-0.12509850913235082
197														9.658165564919909	-0.016608087965833546	-1.0957521154213095	0.11784721143118426	0.04273416364866858	0.9921118011671581	0.40460457948131334	-0.9144506202508583	-0.008671642610854874	0.9068666765410689	0.40243490700990336	-0.12505589390063576
198														9.676375693282566	-0.08516918931583918	-1.042965695201905	0.11784664468900147	0.042625284349944226	0.992116552361481	0.4045713654659433	-0.9144644042570134	-0.008767188368491663	0.9068815681116069	0.40241513202283147	-0.1250115312220466
199														9.720818313436716	-0.15965740878437434	-1.0983863661771336	0.11774797597111758	0.04250683787885634	0.9921333493478816	0.40450572373770954	-0.9144928671585886	-0.008826968873612506	0.9069236647139255	0.4023629762411106	-0.12487394336793606
200														9.69539865906155	-0.09239215439058016	-1.0682600738007961	0.11761634809614419	0.04236698704021158	0.9921549440836653	0.4046494504893418	-0.9144283588973444	-0.008921808279892751	0.9068766271545431	0.40252430343203377	-0.12469550219376668
201														9.654068812156872	-0.1074107673146039	-1.0257507480761325	0.11739715969063641	0.042212317336842636	0.9921874959712127	0.4048995556086872	-0.914316787333852	-0.009009010344735419	0.9067933925456555	0.4027939084253356	-0.12442994242136235
202														9.61057616687113	0.02869193537412824	-1.047225846343253	0.11722480194795626	0.04213405406567375	0.9922112009528278	0.40499871966589684	-0.9142727172439595	-0.009024166018570173	0.9067714060761104	0.40290212209832954	-0.12423967615627474
203														9.636590822757418	-0.0171216896875623	-1.0368842232881206	0.11711228508818056	0.04217943939572935	0.99222255949645	0.4045679477672496	-0.9144648539454052	-0.008877304658758967	0.9069782182174058	0.40246108605785774	-0.12415951791267915
204														9.673542180092474	-0.09079508014655722	-1.0120253505464551	0.11701202885276629	0.04232865284481732	0.9922280333935853	0.40432587403397435	-0.9145739412274685	-0.008665657177455294	0.907099097502815	0.40219745297054954	-0.12413072195705821
205														9.706252288616788	-0.21430309023767427	-1.0402686616287364	0.11690049654689694	0.04244903233778291	0.992236037221323	0.4041250306677379	-0.9146644309450107	-0.00848164794362008	0.9072029726003374	0.40197892782784705	-0.124079442646579
206														9.744564507863691	-0.16741339433151606	-0.9827518824524999	0.11666661632502673	0.04253264394141215	0.9922599834895197	0.40421184752138345	-0.9146275443407983	-0.008320904786783934	0.9071944019660939	0.40205401295407306	-0.12389869938343656
207														9.755697896967593	-0.21394893156361916	-1.0022653797452503	0.11626920875893221	0.042522404467590896	0.9923070675012183	0.40481335424953024	-0.9143621203140243	-0.008249918550333413	0.9069771878695833	0.4026583639428559	-0.12352579743133185
208														9.71852250863105	-0.19717069497180617	-0.9428731433512124	0.11590580361676356	0.04245679371628941	0.9923523897060382	0.40543949888382214	-0.914084680864198	-0.008246754163468178	0.9067439867089209	0.40329470226712616	-0.12316138067788401
209														9.709828256460227	0.03375875555482973	-0.9649627890501711	0.11547321382770598	0.04228715432310995	0.992410063163184	0.40580611947182577	-0.9139217204946049	-0.008275397718547517	0.9066351693418471	0.40368166342730427	-0.12269386425182588
210														9.70241126461747	-0.006362895535068004	-0.9539058636437603	0.11496937026810117	0.042107017639160416	0.992476217833804	0.4060230251203858	-0.9138254815164282	-0.008263921790503892	0.9066020885549777	0.403918294209119	-0.12215835882553727
211														9.714907982337868	0.06672122575859339	-0.9383125268241973	0.11435672942581593	0.04191709054577522	0.9925550342198706	0.40588357409697406	-0.9138882836766278	-0.008168796536473344	0.9067420044937244	0.4037959416323614	-0.12152273370829719
212														9.71449779260744	-0.0716133129296919	-1.000784112902252	0.11370840345906869	0.04172410228550974	0.9926376470148905	0.40568193180069767	-0.9139788326997628	-0.008053793344362764	0.906913760615222	0.4036109422020765	-0.12085378827950882
213														9.714365670041579	-0.19012971612969878	-1.0249891778783664	0.11291678226591723	0.04143482032180629	0.9927401250818928	0.4053810867245975	-0.9141131642344242	-0.007955972556160734	0.9071471627077368	0.40333643356164794	-0.12001560962255936
214														9.677500984517351	-0.19309309856106013	-0.9980176310275768	0.11207805101336171	0.04114701065797918	0.9928471352604885	0.4055479493929859	-0.9140396370942647	-0.007899529335944039	0.9071765931857979	0.40353248361748695	-0.11913086687048052
215														9.693508758417796	-0.22991353430646214	-1.0319700730399775	0.11113185861107217	0.04078548686396821	0.9929684053699382	0.40597995458019304	-0.9138478256957638	-0.0079011360062681	0.9070997665531136	0.40400333604116967	-0.1181156974618221
216														9.694788170456714	-0.24871529506417236	-1.0582867634714113	0.11003582327934508	0.04043058638859462	0.9931049719337381	0.4069041716224612	-0.9134367089809772	-0.007897708670249026	0.9068192282431351	0.4049675868143966	-0.11696213454895893
217														9.651190260187436	-0.19307029787421812	-1.0278030013000934	0.10883497910354312	0.04001170358643544	0.9932542528978383	0.40810452287568777	-0.9129006564064752	-0.007942917665060445	0.9064246497817339	0.40621602025121795	-0.11568448106519502
218														9.656555632395735	-0.18206237377739715	-1.0370769151520698	0.10767360391996972	0.03961003510079644	0.9933969197346038	0.40956960872524106	-0.9122436268548517	-0.008018782411232217	0.9059023847123586	0.4077285989258289	-0.11444762553431231
219														9.632179131907254	-0.15501261538895297	-1.071603358932812	0.1065603014135521	0.039171175978352624	0.9935343583063072	0.4110999044401038	-0.9115538366016405	-0.008153008412072726	0.9053406931824011	0.40931066679150047	-0.11323871828445786
220														9.603908333872692	0.0018209680291836733	-1.0175904273044667	0.1056061075939011	0.03878871389532279	0.993651239476514	0.4126796227142001	-0.9108383903116002	-0.008303958757038654	0.9047335956154889	0.41093656737861617	-0.11219740886379326
221														9.602327286383312	0.1925679596032565	-0.9997838054543303	0.1047860315278783	0.038532878188901665	0.9937480087502654	0.41366584856885796	-0.9103907784074972	-0.008318432448345958	0.9043784900827999	0.41195126882808636	-0.11133597256271005
222														9.527902016407433	0.28578081563860736	-0.9630041940501269	0.10414072196645202	0.03842443291798442	0.9938200405421687	0.41382347702624084	-0.9103205022690777	-0.008167803284030967	0.9043809152620474	0.4121166656463987	-0.1107023667600468
223														9.568878637438557	0.24423374444799584	-0.9170625791570187	0.10368679276639309	0.03854646025729208	0.9938627769503455	0.41312761557933064	-0.9106398950915275	-0.007781690910619921	0.9047511382980161	0.41139901782736993	-0.11034593730228365
224														9.693257113560778	-0.007172807001143644	-1.013840359675191	0.10333606241569193	0.03874992417167733	0.993891393252356	0.41184355944223594	-0.9112253814300861	-0.007292926953095746	0.905376463550036	0.4100813914508716	-0.11012134958920228
225														9.71934327347749	-0.16885791217229165	-1.0318043991550823	0.1027233013152582	0.03895249605124784	0.9939469937669071	0.41091947759538633	-0.9116467206645618	-0.006740892692001288	0.9058659427860335	0.40912462618733647	-0.109653700108308
226														9.75423686990434	-0.18840251280773884	-1.0606521180993063	0.1019859226523151	0.03916903683846876	0.9940144154557831	0.4102460181544928	-0.9119541165598184	-0.006155800352848878	0.9062544213239123	0.4084182609075495	-0.10907542339185838
227														9.755121987378296	-0.18160232635203852	-1.0536764015038658	0.10098592423994118	0.03933670938984493	0.9941098864812602	0.40996424302839407	-0.9120846793046617	-0.0055549271704351255	0.9064938844490685	0.4081104765527245	-0.10823435861290737
228														9.654170603243205	-0.1368424767447559	-1.0186545019850848	0.09987118016475399	0.039537107343820876	0.9942145465217164	0.40996848198850583	-0.9120864673913918	-0.004911189014008499	0.9066154593588943	0.40808711465124003	-0.10730011979064241
229														9.686741739821878	-0.20641675855709127	-1.095085729707118	0.09868412941599208	0.039661496448403444	0.9943281190335919	0.41006372847845074	-0.9120466502660813	-0.004318139040298236	0.9067023663737505	0.4081640276137686	-0.10626827077894724
230														9.589789509695315	-0.031043585570927637	-1.0493243987379641	0.09750811155953348	0.03983959882290605	0.9944370138654952	0.4105131152238748	-0.9118470996423187	-0.003721438308028735	0.9066262462609842	0.40859230687755327	-0.1052671665392208
231														9.666192606913487	0.005384166712707202	-1.0385544465073988	0.09637720867744104	0.04007028938322932	0.9945379859795653	0.41095774514053257	-0.9116491430506302	-0.0030938138375653512	0.9065457326338009	0.4090112613166008	-0.10432939547246134
232														9.668547251358172	-0.027589668127933935	-1.1048465080278556	0.09542809135888991	0.040369755976714605	0.994617394872008	0.4110525008579144	-0.911608413364006	-0.0024376674124589603	0.9066031772049189	0.4090725895074614	-0.10358714010728526
233														9.644170244887064	0.11826236803824224	-0.981320965903688	0.0945868128340353	0.04085918511705908	0.9946777678371368	0.41087032574184223	-0.9116923545244522	-0.0016205327683011805	0.9067739025041974	0.4088368595090597	-0.10302190079821766
234														9.709549793256299	-0.03534766753422728	-1.0160810025962053	0.09396429332481904	0.041438563341282375	0.994712801288984	0.41032262051751156	-0.9119401042784885	-0.0007702598142129147	0.907086577274523	0.40822554020632973	-0.10269298735376586
235														9.750524469305416	-0.0708879780372487	-0.9719785240479937	0.09335079181029776	0.042078331844449285	0.9947437075234902	0.41005554913747	-0.9120605444385297	9.949904902706308e-05	0.9072706742146792	0.40789088892457653	-0.10239602747353244
236														9.791341324755376	-0.005281256288594058	-0.9345158311348895	0.0927812613502475	0.0428362515683354	0.9947646420605389	0.4096079377456193	-0.912261021802611	0.0010795533510184196	0.9075312528381811	0.40736333125507396	-0.10218679694917038
237														9.816980974865931	-0.021242995441737904	-0.8853264894122376	0.09219398558058012	0.04363688444537006	0.9947844446605856	0.40915777194209774	-0.9124612222752215	0.0021060634813281354	0.9077941323241445	0.40682962055375277	-0.10197780718344263
238														9.925660150849898	-0.06596649905150265	-0.834274893451249	0.09157178877519212	0.04446661454292966	0.994805170720178	0.408588129799894	-0.9127133094580915	0.0031866792564949897	0.9081136204722057	0.40617377430005164	-0.10174732126063124
239														9.97791003887824	-0.12752297875322674	-0.7743445370123491	0.09076779180096572	0.04529205972628286	0.9948416141765121	0.40808727499364367	-0.9129326531671005	0.004329753981629714	0.9084194977871399	0.4055892011716165	-0.1013479942235227
240														10.017694723990955	-0.3114267216968531	-0.7754628908875599	0.08981148923322502	0.04598766130759868	0.994896492811774	0.40785971238246316	-0.9130287269567054	0.005385050335183744	0.9086167241565638	0.4052945580183327	-0.10075698399475652
241														9.971788438325325	-0.14562253932884553	-0.756275140252599	0.08860165879835813	0.04654703433630927	0.9949789543767612	0.4081089715044264	-0.91291102508414	0.006366133632213722	0.9086235818180034	0.40549578773930356	-0.09988169346733666
242														9.976532135197017	-0.20493772875086771	-0.7254442012097676	0.08730164515986932	0.04698315924773838	0.9950733668928549	0.408117671696317	-0.9129001653685479	0.00729754200091573	0.9087455027682709	0.40546993824102373	-0.09887234386451532
243														10.0013939591748	-0.19182512881807257	-0.7632512594017116	0.08589112519582537	0.04724887021490251	0.9951835302475672	0.4078984798259542	-0.9129909832836633	0.008142149495392492	0.9089782971932118	0.4052345107541372	-0.0976905651820294
244														9.991827139185661	-0.08348289365142478	-0.6758369298981503	0.08434335451873148	0.04745295929144608	0.9953061916832486	0.4078831804833888	-0.9129901199777058	0.008963922235797395	0.9091300839963896	0.4052126077475607	-0.0963599133205228
245														10.061364659341363	-0.25630092828503104	-0.7378136183095014	0.08260471582709766	0.047506215270496865	0.9954494564937981	0.4080512654032664	-0.9129074206377077	0.009705985132942602	0.909214290322099	0.4053926502235593	-0.09479542931387258
246														10.094083062350737	-0.13288085174752617	-0.6859927318071612	0.08078843295544053	0.04748606007023015	0.9955994692644285	0.40817710458919676	-0.9128433236528387	0.010417185398159834	0.9093209996419225	0.4055393206107716	-0.09312990415956396
247														10.079738276060022	-0.2579387455850787	-0.7092851042493394	0.07878726579609024	0.0473417834564091	0.9957667007324272	0.40867305534272796	-0.9126139149378008	0.011053329758072411	0.9092738314639967	0.4060721583672877	-0.09124966637591952
248														10.11542715049313	-0.17513694963037515	-0.7287489587368791	0.07677311080930704	0.0471517496931797	0.9959330308597732	0.4090934226688924	-0.9124179774506445	0.011662159059395522	0.909257092898215	0.4065343121136855	-0.0893386371540319
249														10.066557089177692	-0.19555930004577216	-0.7592096177142836	0.07456118181547172	0.046799793286692704	0.9961176685083964	0.409548797933101	-0.9122066065599633	0.012202010486335846	0.9092361696929091	0.4070489974151508	-0.08718200172907437
250														10.01804350727527	-0.21676362256111106	-0.7877492521569859	0.07221536746350699	0.04634267589563809	0.9963118473113438	0.41026541671809313	-0.9118780357693669	0.012678159429933694	0.9091024301734322	0.40783673727636816	-0.08486440467314127
251														9.99476716399869	-0.26535908651818857	-0.767137636255655	0.0696432374808642	0.04572142113739161	0.9965236430322971	0.41124340295131634	-0.9114317600025142	0.01307709400976989	0.9088612011755178	0.40890304291836277	-0.08227769132576834
252														9.883731605216227	-0.26743659497737127	-0.8227197706758482	0.0669697191666217	0.044999391862974025	0.9967397410792379	0.4125000330551001	-0.9108589246157992	0.013406795936803023	0.9084925863452519	0.41025732678370563	-0.07956221701286742
253														9.832061416604036	-0.2511617084001983	-0.7723822296215219	0.0642465057950728	0.04417822133820437	0.996955701750342	0.41379911358355154	-0.9102655734514455	0.01367038355637662	0.9080983867899949	0.41166111128998334	-0.07676229126925055
254														9.744600921724487	-0.18094126045522532	-0.7859502273755491	0.06155397965307258	0.04331788840067813	0.9971633106634917	0.4155467277551933	-0.9094662737321562	0.013856911477591494	0.9074866525965107	0.4135150027366032	-0.07398187528663142
255														9.685445159082862	-0.30927047259466184	-0.8351560546263573	0.058896461719617765	0.04241621172221066	0.9973625578394482	0.41725632036833993	-0.9086809275913754	0.014004818611865921	0.9068783655538285	0.4153309966939797	-0.07121652389440619
256														9.658819169790522	-0.29238577725534276	-0.8337879879509668	0.056298981934564674	0.04143763454115992	0.9975536813007936	0.4196437478775221	-0.9075806603504741	0.014016769424663927	0.9059412505788874	0.4178280356814641	-0.06848491146326302
257														9.673087315539586	-0.24063895246177788	-0.8336130281760886	0.05373075930129878	0.04035215215570381	0.9977398004095608	0.4222814213861737	-0.9063579654573712	0.013915444802402338	0.9048709337010334	0.4205792936752579	-0.06573926585110668
258														9.698914687753037	-0.08740121387861788	-0.8096432015237428	0.05128144346257324	0.039175062136459465	0.9979155916524202	0.4253493030110328	-0.9049260728534578	0.013666495455941785	0.9035752232019335	0.4237618637591439	-0.06306900061799992
259														9.683761753508286	0.02850591950243119	-0.7858095757217848	0.04890718530153065	0.03790167362576238	0.9980839395372759	0.4281386413352294	-0.9036146753358076	0.013335003314119881	0.9023887139262693	0.42666612433392215	-0.06042042141829601
260														9.661371326802673	0.10217705758618117	-0.7570413640108882	0.04670854197163632	0.0365582563804801	0.9982393530598278	0.43114776053830123	-0.9021895880469465	0.0128668489728134	0.9010715402728532	0.4297876697976579	-0.057901970607293074
261														9.658860442946075	0.21895585835743644	-0.7050474593398305	0.044631847875393704	0.03517712885305729	0.9983839781170786	0.434048980257679	-0.9008048202942454	0.012335253216744946	0.8997830187842494	0.4327970024622486	-0.05547318061185663
262														9.634012264329218	0.26003476368268613	-0.6957971961586342	0.04288871632271585	0.03384330914581382	0.9985064789165118	0.43673802136636064	-0.8995122759721854	0.011728856224511697	0.8985657787302975	0.43558270833608603	-0.053359586705804374
263														9.66058453349459	0.3086133942995474	-0.6738062230694617	0.04139449062435324	0.03257898544895091	0.9986115890840976	0.4395637892348804	-0.8981430279966751	0.01108045371077715	0.8972570263527744	0.4384948243344271	-0.051498715445105536
264														9.61948616675878	0.5031037418286075	-0.5503827777997619	0.040367841046098474	0.03153652114335839	0.998687080743238	0.4420763034014026	-0.8969165303524529	0.010453686023016912	0.8960686242583362	0.44107390017398584	-0.050148132618081986
265														9.681187600837424	0.578378607864576	-0.5165533515388513	0.03962718221723904	0.030645015744085152	0.9987444965753587	0.44436740386482554	-0.8957904287195406	0.009854856513259985	0.8949677630015267	0.44341897887269854	-0.049115296634923755
266														9.776371378666257	0.6494960318329421	-0.47962219617539936	0.03907897246529307	0.029937643402348613	0.9987875506926241	0.44604744302258964	-0.8949602337657183	0.009373289231703247	0.8941557540406856	0.44514033459744506	-0.0483277356226024
267														9.856216412757073	0.37195777980423816	-0.5495180351309565	0.03856279826687076	0.02941427766694049	0.9988231629568675	0.4474338045122239	-0.8942711525221259	0.00906070342005888	0.8934852551494882	0.4465578417585805	-0.047646540214090816
268														9.996559971226668	0.26728117190035017	-0.41676575489282647	0.03749704130084264	0.02907047765666826	0.9988738054541707	0.44939855498920434	-0.8932847417033243	0.009127377150124155	0.892544066512852	0.4485501951497053	-0.04655976550481472
269														10.154077787436343	0.19235338060740234	-0.4534849443094937	0.03517165374355152	0.029057601896241986	0.9989587631854402	0.4520312249815619	-0.8919457267920037	0.010029561264273595	0.8913084350630893	0.45120779717279347	-0.04450614964095351
270														10.014019491604135	0.4018396121628633	-0.37536161756046516	0.03125327593655142	0.029331278207400197	0.9990810321800497	0.4556463412805547	-0.8900816433120602	0.01187770670400054	0.889612075244529	0.4548563997105264	-0.0411826568047749
271														9.775637018681527	0.526214370262137	-0.4088815178858522	0.02631146784339139	0.029768902963864696	0.9992104478418223	0.45987063342692425	-0.8878700901028318	0.014342371223409284	0.8875960270142306	0.4591301727365765	-0.03705100958726676
272														9.675819509274156	0.6842681523143785	-0.31075712506519304	0.020923838584119503	0.03051694087761614	0.9993152201874932	0.4639891811539013	-0.8856713058004191	0.017331412346167335	0.8855937176555838	0.4633088110550595	-0.032691173850281474
273														9.640614801111985	0.674448017880448	-0.21471958805541752	0.01524450085988266	0.03145455808198894	0.9993889212760966	0.46795145348278605	-0.8835124286302858	0.020669437320890632	0.8836226809995774	0.4673504030507314	-0.028187912151096894
274														9.642715101932438	0.7002262457356216	-0.2856924268713653	0.00967357745871611	0.03253232942770384	0.9994238687569741	0.47174001551034733	-0.8814075988299352	0.02412472779421332	0.881684625966364	0.47123485892583855	-0.023873166268795043
275														9.673933061755614	0.9068994033090844	-0.3019262147903881	0.0043300715248073	0.033594598221024785	0.9994261620804998	0.47484353284773434	-0.8796401384327717	0.02751083733107046	0.8800595830926861	0.47445192572940614	-0.019761082419376963
276														9.6987977270473	0.9071293002753114	-0.32665706871166844	-0.00043456874507363796	0.034485242142897915	0.9994051126667061	0.4772850797766487	-0.8782186644116496	0.03051114716978459	0.8787484075505365	0.4770144081192557	-0.01607764516439647
277														9.634945643025008	0.9065737366383487	-0.26831961528154963	-0.00452145932240694	0.03519242795049454	0.9993703264658927	0.47907536252951993	-0.8771511255676969	0.03305601204821082	0.877762128040852	0.4789231628667292	-0.012893822044819425
278														9.658407635049052	0.7908000214868323	-0.2651912081432571	-0.008006746987248348	0.03594224026509679	0.9993217937018128	0.48024537428076614	-0.8764207685814105	0.035369717006175	0.8770976413630409	0.48020286521833266	-0.010243815280199575
279														9.60919475691231	0.6391611720912502	-0.2724965810555494	-0.010934405103108058	0.03668943912938186	0.9992668931979147	0.4810941522675537	-0.8758698129936578	0.03742308566137706	0.8766007388994177	0.4811506580509126	-0.00807395926226584
280														9.533482154593813	0.5483119734714658	-0.21020689888909255	-0.013463571446612976	0.037400185973067934	0.9992096668532994	0.48194102027599983	-0.8753237944648093	0.03925694612493558	0.8761002141417554	0.48208866501185	-0.006239699340675198
281														9.60266491292501	0.36406183316762447	-0.20430956951207246	-0.01572578349549797	0.038165215720090434	0.9991476948091766	0.4830819199735563	-0.8746141460658401	0.041011633668799174	0.8754339257351837	0.4833151268174422	-0.004682932983134991
282														9.538860789779099	0.22674533876842348	-0.21585841768879177	-0.01822287504465675	0.03913726575246784	0.9990676660039243	0.4849730754721368	-0.8734682031149139	0.043062909960917106	0.8743392035658731	0.4853056486139695	-0.0030634182167006974
283														9.501025395827753	0.3820927990669658	-0.20873447113573343	-0.02086325844795317	0.040131016444401174	0.9989765892983045	0.48725749808601193	-0.8720872690958965	0.0452097958391951	0.873009080712162	0.4877020572029616	-0.0013595565840301416
284														9.46717471474175	0.4712313352375181	-0.17390126229545524	-0.023646759741695556	0.04129795121819327	0.9988670131598594	0.49014064267605617	-0.8703433663183593	0.04758755197243397	0.8713225471378676	0.4907106111862736	0.0003389961248190798
285														9.477003301560819	0.627961816049799	-0.07452104992125796	-0.026244592378645015	0.04255245065338184	0.9987494732485572	0.492866870594601	-0.8686691484371911	0.049961569467846106	0.8697088416482633	0.49356174841330347	0.0018251745229752037
286														9.508907924157317	0.6799879459043118	-0.041388924974579	-0.028529314181158394	0.043883784295259326	0.9986292063164789	0.4955388288248169	-0.8670123965969903	0.05225680122312232	0.8681171276730361	0.49635039802852104	0.0029891499874009075
287														9.552218035428014	0.8126578810616792	-0.030791907917170735	-0.03027572467384343	0.04530804085771395	0.9985141771297542	0.49755006614423397	-0.8657297180538903	0.05436898893855527	0.8669067494115746	0.4984568554167633	0.0036675758601424358
288														9.6112455877661	0.8498830640270095	0.023745923789285056	-0.03145007642911163	0.046684561687004994	0.9984144652361034	0.4990556969179031	-0.8647485483186046	0.0561547821173857	0.8659990208229963	0.5000304989507712	0.0038982114685683356
289														9.666120617009456	0.8548069432754866	0.006820946142044276	-0.03189453047152657	0.0480350844293673	0.9983363008474969	0.4997392480048569	-0.8642619560672481	0.05754958990604267	0.8655884835934108	0.500743349390361	0.003560212322586076
290														9.744360011214122	0.7075103298815298	-0.012356134913589722	-0.03188982687012387	0.049226201140661036	0.9982784281268691	0.5001403517810113	-0.8639606718768132	0.05857974027367843	0.8653569595620987	0.5011474219941918	0.002931546693414444
291														9.766035594941895	0.6331024566790604	0.007797188583643784	-0.03158259668174895	0.05032974512969157	0.9982331673221537	0.5000773277764965	-0.8639424768776335	0.05938066091295072	0.8654046486070878	0.5010691702766402	0.002116782351329227
292														9.79940115608141	0.6065768671682986	-0.004376116147789785	-0.031241616555229723	0.051314982210963644	0.9981937357024966	0.5002167259459734	-0.8638146208149112	0.0600627001581113	0.8653364596958273	0.5011896581804943	0.0013183527647565585
293														9.771486452939605	0.5172500196085116	-0.0032761768220086356	-0.030861001160616908	0.05220378860182695	0.9981594877888904	0.5003942466177633	-0.8636713745873337	0.06064119614805008	0.8652474770602947	0.5013447129212005	0.0005312878255271936
294														9.804222787598905	0.5532811528767094	0.009685611104138236	-0.03050188446723623	0.05305536383305251	0.9981256250655474	0.5007605024047892	-0.8634197915928061	0.06119789797973518	0.8650482959206672	0.5016885406847335	-0.00023209991841921518
295														9.878956474827486	0.40230109192311986	-0.06588656707906897	-0.03025968134364465	0.05381635896946571	0.9980922558522592	0.5014324875763002	-0.8629915242758686	0.061734021665996286	0.8646674575164869	0.5023439345063139	-0.0008714222235043367
296														9.832562114029372	0.45864671000166074	-0.010328087944240005	-0.03010298109028614	0.05462613298702665	0.9980530026628657	0.5024241876291691	-0.8623699547001284	0.06235380433997881	0.8640970699028251	0.5033230044666969	-0.0014855840501609152
297														9.827299129964688	0.46802170624878187	-0.06988895730922458	-0.029922480098063087	0.0553758936340748	0.9980171118718402	0.5032875281055477	-0.8618260581257019	0.06290874016321157	0.8636007811704371	0.5041719507665441	-0.002082023551470691
298														9.76860862080312	0.6152619844236343	-0.008918358054475805	-0.029790777444131777	0.056225436534718926	0.9979735516864934	0.504226258252007	-0.8612283937821053	0.06357306216216951	0.8630575821278985	0.5050983607476617	-0.002693678074757233
299														9.786205964130975	0.5403546041731061	-0.042560615795334794	-0.02936167655044758	0.057058337059872816	0.9979389951906421	0.5045863790645781	-0.8609803432946048	0.06407366481482077	0.8628617954299775	0.5054277343322843	-0.0035110333363778667
300														9.677353941471127	0.6741109887794746	-0.002387081944526612	-0.02881975862287761	0.05795632122799768	0.99790304456026	0.5046445402632008	-0.8609088533653548	0.06457425322597751	0.8628460520251929	0.505447337540586	-0.004436155731161351
301														9.723416846993427	0.5547331066654028	-0.022219850721931462	-0.02796591451647451	0.05899784977834813	0.9978663043448197	0.5040910605315848	-0.8611976286616578	0.06504496198537499	0.8631976079191825	0.5048345254725237	-0.0056561093989082045
302														9.731910923050616	0.37498627547688923	-0.1313661555700181	-0.02689258912002701	0.060037215694881046	0.9978338145112282	0.503410677048234	-0.8615682007520599	0.06540585361186954	0.863628669559007	0.5040791288919478	-0.007053575779344845
303														9.838605918853268	0.30513567034053785	-0.09279294490608862	-0.025731886902183587	0.060985220692878706	0.9978069316523582	0.502918724348277	-0.8618373257408349	0.06564434979331876	0.8639505927403227	0.5035049421971215	-0.008493908800917216
304														9.815700560511418	0.31694832677918333	-0.0824643767305973	-0.024524712064091736	0.06187471364829575	0.9977825706581139	0.5026163996021756	-0.862001156125056	0.06580852292835906	0.8641616129805344	0.503115818326166	-0.009958915647440836
305														9.843037432260896	0.3403365011302608	-0.054564103823323426	-0.023259579208932013	0.06267378420557271	0.9977629922724015	0.5023879624511622	-0.8621299525821555	0.06586562111495867	0.8643294089403603	0.5027961233283755	-0.011433774825664045
306														9.934202016179324	0.23188512712857365	-0.1150368711608949	-0.022138811311088025	0.06337255562300662	0.9977443521401365	0.5026780596566396	-0.8619580714261319	0.06590183186512194	0.8641901650525582	0.5030031831878918	-0.012773266194682942
307														9.92157013865458	0.3123389905081588	-0.04592348166680836	-0.021070811465072448	0.0639609990921012	0.9977299291388149	0.5032978584975274	-0.8615992745772894	0.0658631587436588	0.8638560566066589	0.5035431268948368	-0.0140368379973555
308														9.931204422754066	0.4158040095438779	0.012095616942435458	-0.020134338424763143	0.06440903520441041	0.9977204441125955	0.5042842857169462	-0.8610300751846243	0.06576145380472237	0.863302940800706	0.504458804870723	-0.015144193384107274
309														9.936687201387857	0.424185145771522	-0.020052097622998328	-0.019259151413041964	0.06472854025920963	0.9977170446387899	0.5053057219128506	-0.8604451216757729	0.06557682507179566	0.8627254560339471	0.5054150855092039	-0.01613625888307796
310														9.883817369375029	0.6041473177404554	0.027705046415247365	-0.01843891593085739	0.06493684643393352	0.9977190047074931	0.506308418056236	-0.8598748616414338	0.06532234014880892	0.862155317900833	0.5063580040765039	-0.017022911706661648
311														9.797886559587786	0.7536473645376541	0.05567320226675883	-0.017432782070417374	0.06518491512086355	0.9977209153615909	0.506498620899805	-0.8597855354133687	0.06502291996321258	0.8620645249259946	0.5064777980668378	-0.0180276157460299
312														9.793092011452302	0.6892200919720871	-0.03228392907404186	-0.01645215883822959	0.06539496501635395	0.9977238220169306	0.5063484733112984	-0.8598975157858569	0.06471078674092515	0.8621719956278325	0.506260566206595	-0.018965470183968658
313														9.782415497274663	0.6700916808267995	0.0028930888362767313	-0.015309151577583169	0.0656450814154742	0.9977255901117958	0.5054417011282601	-0.8604564579938704	0.06436901938987652	0.8627249368359222	0.5052775546000431	-0.020006903280001986
314														9.845998878123265	0.5258253356852668	-0.019008928181032402	-0.014285820504213675	0.06590984592948804	0.9977233121171789	0.5045921267778493	-0.8609749269675873	0.06410117570657939	0.8632396543986667	0.5043590658873002	-0.02095785606787337
315														9.835803606347701	0.4210749434652144	-0.09663422408321312	-0.0133171436292161	0.06613331050122934	0.9977219246502037	0.5034813205935391	-0.8616448275465711	0.06383377613478419	0.8639034746422455	0.5031844357731943	-0.02182223858057264
316														9.847812808418004	0.3612598467337179	-0.09638326451263965	-0.012595181975210201	0.0662022017968838	0.9977267310582872	0.5029402107771794	-0.8619821806117285	0.06354419478800247	0.86422942889861	0.5025972431133043	-0.022438926901444944
317														9.858883285021795	0.39751351837115795	-0.05681406929451654	-0.012064216938762251	0.06607609469561918	0.9977416521221459	0.5026560396247371	-0.8621749829907992	0.06317598066978278	0.8644023140288487	0.5022830361604795	-0.022812082039594284
318														9.857961347048931	0.43775462155316747	-0.12333236298469251	-0.011717373425403188	0.06580202553419812	0.9977638982222224	0.5026829807177112	-0.8621893448974383	0.0627642767988498	0.8643914183150859	0.5022943628798976	-0.022974963815226623
319														9.800779902989612	0.5209201621825957	-0.15767346239861554	-0.011464480311067449	0.06537387694051972	0.997794979895651	0.5026115266633353	-0.862266894972398	0.062269214703660564	0.8644363591128893	0.5022171423283209	-0.02297222225267931
320														9.818004033936056	0.49932808543598567	-0.15960986005029265	-0.011217315118703053	0.0648232177747799	0.9978337147435197	0.5027503197799443	-0.8622293620233292	0.06166557569671238	0.8643588883112685	0.5023529413690805	-0.02291799500702152
321														9.784050289850148	0.5612416447063794	-0.14068407632406107	-0.011022919913188212	0.06418451384569629	0.997877168502707	0.5027621176761212	-0.8622687131174118	0.06101573082955941	0.8643545269543107	0.5023674099314512	-0.022764823134733547
322														9.733726564633901	0.5756030774198599	-0.143783810509341	-0.010747974503139857	0.06353587696267823	0.9979216769780399	0.5028769610411591	-0.8622511040524188	0.06031414108145411	0.8642911795790169	0.5024800751263361	-0.022683275842416972
323														9.750625607846803	0.5310557526000071	-0.23414088320800502	-0.010447589346010033	0.06285744279461197	0.9979678300236833	0.5029757044966048	-0.8622449329116919	0.059574460587201894	0.8642374028951775	0.5025759818708353	-0.02260738559773573
324														9.711690933523208	0.5516105727535273	-0.20564154107921417	-0.01019684247546776	0.06222913076562764	0.9980097993946179	0.5031779584934624	-0.8621732377619662	0.058900341029573505	0.8641226570862973	0.5027771309150835	-0.022520882285448518
325														9.68349184192738	0.5897004680224852	-0.22189013058766985	-0.009874685646747428	0.06167127778444512	0.9980476662363434	0.5032019733992037	-0.8622030091793336	0.05825585746728737	0.8641124143018227	0.5027948134761691	-0.022519125003857665
326														9.678030045873149	0.6409982619302503	-0.17452396074203141	-0.009616499158590808	0.06117782169257474	0.9980805564065877	0.5033157637093753	-0.8621741813537862	0.0576968197440382	0.864049052395511	0.5029045189097819	-0.022500664757726774
327														9.728133678549698	0.6599184417930591	-0.23356567923218366	-0.009335816590025525	0.0606685087881825	0.9981143093704327	0.5032127880718422	-0.862272797101042	0.057118414723348915	0.8641121064130283	0.5027971314764669	-0.022479148771158808
328														9.744978495079845	0.7033350478210919	-0.21128476143192676	-0.009039933918993937	0.060297170091539315	0.998139534771413	0.5029076790208578	-0.8624812282808186	0.056656837584398906	0.8642928589179681	0.5024842108386721	-0.022527136552230598
329														9.77874053426868	0.7296018404848195	-0.19201979471806443	-0.008698711381177338	0.059925351211741223	0.998164958662874	0.5022540171489948	-0.8628931402074165	0.05618123210362852	0.8646763756909315	0.501821064588897	-0.022591689995699216
330														9.845696499393501	0.732272507281716	-0.254689835334296	-0.008330400015943096	0.059675115526542144	0.9981830919337742	0.5012465591798467	-0.8635030443794652	0.055806623780343984	0.8652644054541594	0.5008007317629342	-0.022718620551673507
331														9.914006682807075	0.5308004066607387	-0.31568378423385796	-0.007922326239190425	0.059348703997276236	0.9982058745974214	0.5000580678630931	-0.8642211282735073	0.055351334317212286	0.8659556371500734	0.49959941230901117	-0.022831156530072616
332														9.880968341428185	0.5514894954552932	-0.23524717827561364	-0.007475278249801154	0.0590904488295341	0.9982246435909161	0.49891829470516513	-0.8649061830893257	0.05493477643845643	0.8666167869500205	0.4984431896525193	-0.023015891584827808
333														9.859117848133497	0.4606198030791358	-0.24993203600498692	-0.0069844319674245425	0.0588849005958737	0.9982403449029232	0.49788618188087863	-0.8655257119470054	0.05453981894644275	0.8672142570335047	0.4973910035781147	-0.02327277287696411
334														9.864571121987046	0.4661113252514917	-0.27492593413578303	-0.0064351191644135275	0.05867596077787776	0.9982563402594207	0.4970874247889592	-0.8660118353247637	0.0541072379087576	0.8676765995219764	0.49656885998240663	-0.023594192881985943
335														9.837094708757581	0.43058561193557593	-0.2434780298143802	-0.0058062099241977805	0.05839525373968918	0.9982766561765296	0.4963657541165379	-0.8664589669593595	0.05357141696875173	0.8680940767374447	0.4958213921528563	-0.023954561506457805
336														9.83717478445123	0.4269787442173218	-0.2465747705524253	-0.005264770858745549	0.05815984421843931	0.9982934011142676	0.495949376862883	-0.8667257399186802	0.05311033187369926	0.8683354753648632	0.495382603936496	-0.02428122608052874
337														9.792782813660994	0.47297669804468756	-0.18679563849711836	-0.004784833941180566	0.057819623273731	0.9983155796283251	0.4956905244862414	-0.8669058598973274	0.05258454155196193	0.8684860443891483	0.49510718156794997	-0.024512638803907638
338														9.769972639630494	0.521254404881279	-0.2272740601507173	-0.004388608478340605	0.05742150728677922	0.9983403781359029	0.49538185324019945	-0.867114448579227	0.052051441338813315	0.8686642386998148	0.4947881400822546	-0.024640146874843893
339														9.809258187762387	0.4905930474521043	-0.2551708857018597	-0.0041203190873720374	0.05690811906776008	0.9983709175225346	0.4949478044418175	-0.8673960778135807	0.05148509562815626	0.8689129380144147	0.49435362866857324	-0.024592599971774487
340														9.742191402372804	0.5235061412691379	-0.2550783505013446	-0.004005671673712463	0.05626745691656193	0.9984076962276414	0.49457661447307527	-0.8676433440736118	0.0508822159610999	0.8691248051981915	0.49399291571530035	-0.024353073980561968
341														9.702767700570053	0.4918408594781991	-0.32593606919669244	-0.003944431291943551	0.055505308760287475	0.9984506007616046	0.49412548217021923	-0.8679399500094974	0.05020210202332537	0.8693816476851995	0.4935579032666149	-0.02400305795583857
342														9.697142226193249	0.5213420426390597	-0.36390935645344885	-0.0038875657283910514	0.05474618144968896	0.9984927353012564	0.49371991237126184	-0.868209597412331	0.04952517631701725	0.8696122900240203	0.49316827815442044	-0.023654058032041292
343														9.697614664265748	0.5480705014749347	-0.3477199965105258	-0.003851804911080947	0.05398540954533729	0.9985342954326352	0.4934322252648011	-0.8684111646813472	0.04885374220070288	0.8697757197514503	0.49289717448267883	-0.02329319037483024
344														9.652966297291343	0.5719752002660079	-0.3714108004323994	-0.0036842604753168917	0.05333822148199574	0.9985697073083519	0.4930845883248408	-0.8686441483762828	0.048217551246043266	0.8699735714268981	0.49255697906006785	-0.02309994367845103
345														9.636436178045948	0.5524425899130027	-0.3799766201787523	-0.0033424723007402513	0.052825814225058276	0.9985981480207035	0.4924715637058853	-0.8690248076467895	0.04761977147720445	0.8703221167016263	0.491940359236687	-0.023110519987235456
346														9.726313991154667	0.565482331122483	-0.3782743432619592	-0.0029414997989061775	0.05242500853277057	0.9986205315630514	0.4922637415139909	-0.8691719907561457	0.04707928711912318	0.870441127457555	0.49172316293351176	-0.02325026161322047
347														9.748910684324294	0.6172074116298724	-0.3790931473528358	-0.0025555423596470006	0.05210532459529427	0.9986383250967625	0.492084727212451	-0.8692983155259864	0.04661609022569818	0.8705435603388816	0.4915337971823522	-0.02341870577129518
348														9.749057787684322	0.6140176953554348	-0.38048735458084787	-0.002203545698648335	0.051809403727335696	0.998654559931397	0.4920442487007638	-0.8693441531650254	0.04618658547983129	0.870567402161863	0.49148400690480537	-0.02357687956329957
349														9.698914920491857	0.6634948435353033	-0.373395880325504	-0.0017908943269138167	0.05154369110561738	0.9986691347011375	0.491696458513577	-0.8695633579302611	0.04576198455328537	0.8707648278282237	0.4911240316378924	-0.02378655429074039
350														9.755250259074028	0.7126338697428348	-0.3668247645766395	-0.00146550033109627	0.051175053446219504	0.9986886232522907	0.4915400309946445	-0.8696767342893983	0.04528549177728863	0.8708537479040686	0.49096180273062334	-0.023880075815059465
351														9.777679546555737	0.7003300590647601	-0.39206843811766634	-0.0011120798610773641	0.05077691624211164	0.9987094012050379	0.49099001604313264	-0.8700135162111085	0.044780417103339576	0.8711644893040282	0.49040614432012	-0.02396343441009169
352														9.755574030536199	0.6737663526489355	-0.37944965309456574	-0.0009218685835969964	0.05038382216524914	0.9987295032301466	0.49069481385540503	-0.8702019468048077	0.0443528063659161	0.871331021950742	0.490112275138201	-0.023920868402556472
353														9.710680363369747	0.6680295186621441	-0.4176563372881633	-0.0007816012758624646	0.0499664691278017	0.9987505900185221	0.4904308036431979	-0.8703723281117367	0.043927637032308675	0.871479785157024	0.48985238839905193	-0.023824811487433317
354														9.72740478305226	0.616207722460365	-0.4325484954917788	-0.0006469376391231019	0.04973273696034444	0.9987623522871316	0.4903918520799564	-0.8704077888249255	0.04365904907913368	0.8715018146196147	0.48981316440795797	-0.02382542942701188
355														9.688546153446675	0.6416351257340296	-0.4048919182020228	-0.00043840056688554396	0.049631808171194	0.9987674861661252	0.4901838406487023	-0.8705341784441885	0.04347466535109676	0.8716189592774074	0.48959874160189587	-0.023947067670372413
356														9.654624674092933	0.6128662112731104	-0.4259728763336116	-0.00024010437190358225	0.04973318192353163	0.998762510793057	0.49032025522185285	-0.87045797614776	0.04346215687149632	0.871542305151659	0.4897239246519475	-0.02417618568810942
357														9.626985637424523	0.6464881632391402	-0.3690412466907279	6.999263764845276e-05	0.050019909895457126	0.9987482183789274	0.4903501315430536	-0.8704362880026297	0.04355935059104546	0.8715255266466619	0.48973327142665524	-0.024588193528711277
358														9.665840362776246	0.5465853268121813	-0.35024907660459653	0.00043516381015762384	0.05041279283821379	0.9987283719564146	0.49042230446337076	-0.8703875290147165	0.04372084880802074	0.8714848099177037	0.4897796439766645	-0.025102319191591116
359														9.69375634392247	0.5375348577003535	-0.3262406460122612	0.000921978675906876	0.05086003936429023	0.9987053651358764	0.490285357706909	-0.8704568590561208	0.04387624118313796	0.8715614826124027	0.48961016423070247	-0.02573847525505507
360														9.659374804628658	0.4790019655823544	-0.3643594077091765	0.0013661578286048859	0.051297449939689765	0.9986824846979503	0.49041737593513857	-0.870374417385029	0.044036018695650436	0.8714866212361954	0.48971108338627145	-0.026346229615714756
361														9.704094844256419	0.4519570792706364	-0.34368644287425276	0.001865131757597227	0.051651646409917595	0.9986634211318007	0.4904567878439319	-0.8703490136460895	0.04409913494720785	0.8714635164717682	0.48971900296846205	-0.026956216170603453
362														9.670953671402382	0.4452796857573642	-0.2799748343446836	0.0023128904995059485	0.052048252710459514	0.9986418927359921	0.4907521254797341	-0.8701765809844046	0.04421616495597877	0.8712961619763167	0.48998336430544165	-0.027555413792215766
363														9.687633164445828	0.4617456614553498	-0.27592347648268634	0.0027684799612984756	0.05244371926681127	0.9986200437744913	0.4911467801773043	-0.8699483637662035	0.04432476398099927	0.8710724285845407	0.49034630689948955	-0.028165998470867926
364														9.710206636174663	0.4111067711520434	-0.24322593333278814	0.0032345141753575835	0.052847203192829345	0.998597371833486	0.49155006767236	-0.8697149618338778	0.044434402590730504	0.8708433090340351	0.4907168819971375	-0.028790151678302456
365														9.733019513620775	0.3929407008208747	-0.19772989276399502	0.0036625120665964017	0.053259216676364435	0.9985740041901668	0.49206745511792505	-0.869415616508918	0.04456574227125551	0.87054937000674	0.491202546419946	-0.0293913723978641
366														9.732813257987562	0.3951505360987658	-0.2033969277494773	0.004094664653539304	0.0536490685504207	0.9985514564433059	0.4926631257959647	-0.8690727383312338	0.04467236248958187	0.8702104792533382	0.49176656345579606	-0.029989479231091798
367														9.771608913103528	0.4030414360795033	-0.22419860163778624	0.004549690224245173	0.053977041522330266	0.9985318118654813	0.49323268872839554	-0.8687474730807676	0.04471401106520703	0.8698855183807936	0.49230509544821743	-0.030575773205276435
368														9.75574227058544	0.41126767639721207	-0.15031239982560918	0.00494226780547441	0.05433985176815398	0.9985102675980622	0.4938984936348277	-0.8683640440690096	0.04481255352423971	0.869505521531742	0.4929412414050277	-0.031130058591064824
369														9.727130801054834	0.42484593001050663	-0.18444652024924177	0.005339942584845048	0.054624476969955094	0.9984926897724141	0.494465338572186	-0.8680398025048677	0.044843396593084506	0.8691809443170536	0.49348056474705265	-0.03164519320601361
370														9.766929026883119	0.38916277826235424	-0.14063655633085154	0.005678428530389579	0.05494103355813898	0.9984734539691029	0.49491568794192575	-0.8677783802482795	0.04493489293015274	0.8689224460666194	0.49390501678484433	-0.03211879693212377
371														9.750874511781126	0.3331093845127388	-0.09075591256126003	0.006037699490629933	0.055243487130601315	0.9984546576157138	0.4950933064118185	-0.8676729753589233	0.04501361769516865	0.8688188327442461	0.49405643904461427	-0.03258942938256604
372														9.801276108877135	0.31449014559484695	-0.09043223108502155	0.006308621586531116	0.05545265585319037	0.9984413874897743	0.495437622536391	-0.8674746099008364	0.04504845561037962	0.8686206096272219	0.4943812336003658	-0.03294590102902134
373														9.834934718729631	0.312866199873471	-0.08658075901037542	0.006612492323547714	0.055579573161908036	0.998432364255292	0.4956004813058566	-0.8673839765486793	0.045002223900650534	0.8685254388183891	0.49452598341618115	-0.03328083309631208
374														9.823332455257885	0.3399103004157067	-0.10812203070389756	0.006758449306026426	0.055651326565681225	0.9984273900562117	0.4960209175849258	-0.8671449670366531	0.04497616547918329	0.8682842695115391	0.49493690102323407	-0.0334647773686208
375														9.806527385626161	0.35795324583624766	-0.10624034012744839	0.006891107716901712	0.05559002495625573	0.9984298982701771	0.49622793509111995	-0.8670330912412577	0.044849248910447975	0.8681649319510876	0.49513974574658315	-0.033560141721568404
376														9.796087459609224	0.3407820342821121	-0.061818435223506746	0.006941283239136009	0.05547861900791384	0.9984357472666774	0.4965854618570186	-0.8668353662965652	0.04471383242074736	0.8679600783787496	0.4954983053154409	-0.033566825442399195
377														9.801143066672752	0.3170141581564448	-0.09587002992742377	0.006953294501130858	0.055309194267051276	0.9984450634487153	0.49679379537915236	-0.8667242801556562	0.0445527447127074	0.8678407553050022	0.4957115241934449	-0.03350385371049419
378														9.834892249115066	0.31401519381923104	-0.0872418213521095	0.0068047203832915515	0.05507628597347211	0.9984589618526514	0.49718777404515235	-0.8665057106725617	0.044409128699697015	0.8676162821896167	0.4961193970156862	-0.03327958509747697
379														9.794891917586362	0.351046142636584	-0.13326204237626113	0.006747540780106309	0.0548118179290957	0.9984739031685949	0.4972232019860784	-0.86649573611978	0.04420663629990343	0.8675964258225896	0.49616610515184145	-0.03310042293263932
380														9.82850715080811	0.3154468819311237	-0.1357143355600758	0.006520250561032281	0.054498539345451014	0.9984925615856303	0.4975319115622655	-0.8663272101560588	0.04403591625500422	0.8674211683546923	0.49649478763873445	-0.03276343293595113
381														9.739113521990191	0.32941003589145634	-0.12084241406194603	0.006305973641804019	0.05416605906250341	0.9985120293426952	0.49777089824740584	-0.8661996046414604	0.04384492874837037	0.8672856320465598	0.4967537447917391	-0.03242451974947441
382														9.783409302316578	0.3429319924572948	-0.1551987153951103	0.006137585617299324	0.05386911251952728	0.9985291426689303	0.4979518006964563	-0.8661047473706049	0.04366429622995677	0.8671829877401581	0.49695139128335203	-0.032140013621555164
383														9.73282603273611	0.33026089838014533	-0.1690744840353904	0.00604554775597993	0.05361058404823146	0.9985436177905985	0.49799414441766365	-0.8660894599533129	0.043484244083311335	0.8671593183942893	0.49700598853110955	-0.031933742125928866
384														9.771874107817158	0.33503464727446536	-0.18244186278595764	0.006013158218240999	0.05335318584870488	0.9985575994843938	0.4980271344745274	-0.8660809265759399	0.043275881833321844	0.8671405971671102	0.497048555154478	-0.031779215904619296
385														9.749731048035613	0.31061718414292966	-0.16829424648050353	0.006042931938039842	0.05306965885902948	0.998572528303367	0.49803913563355084	-0.866087035146382	0.043014729206814095	0.8671334974218087	0.49706826378268837	-0.03166447203232681
386														9.788626212660185	0.28246430215867696	-0.1946255431127769	0.00607220554290161	0.052754289549583666	0.9985890612529076	0.49815405223525294	-0.8660354097786476	0.04272246775558103	0.8670672802968875	0.49719176777542123	-0.031538508127523956
387														9.771939760819196	0.2981779386071555	-0.19043816085205914	0.006127331233132471	0.052410087346867335	0.9986068488430536	0.49828764495273525	-0.8659748071790117	0.04239169988016864	0.8669901260680056	0.4973337069569759	-0.03142141347897148
388														9.778566488415434	0.32623187751109967	-0.12230939404319775	0.006130842713481133	0.0520629136899714	0.9986249875632661	0.4986048268205361	-0.865807550566435	0.04207745302906771	0.8668077292219342	0.4976612687363371	-0.031266949976827885
389														9.761015976097603	0.38480877692958904	-0.18197976643998384	0.0061169612637815285	0.05171082094236282	0.9986433666641783	0.49898183793706763	-0.8656054309653254	0.04176557544533205	0.8665908539754177	0.4980494241345939	-0.031097635365988696
390														9.811957432040183	0.4269553652280539	-0.1511802923572501	0.0060873646179100405	0.051345164989286374	0.998662414444557	0.49927163475459896	-0.8654533378301912	0.04145304292873908	0.8664241332750834	0.4983514764408795	-0.0309035144881053
391														9.783496187833359	0.40416947429636185	-0.19036961198219013	0.0060621947634894036	0.05099980831529957	0.9986802638214358	0.49919962443940447	-0.8655084405408544	0.041168851236051185	0.8664658012606195	0.498291239040324	-0.03070596589348179
392														9.778316028362681	0.3937161852792881	-0.16523213183072866	0.005963137200568902	0.05055493101287803	0.9987034794897888	0.49934868146984435	-0.8654386255219682	0.04082743892255769	0.8663805949518121	0.4984578060427285	-0.030405267405738845
393														9.749903262990056	0.37056844681033235	-0.2033434362430451	0.00579534954085259	0.050090573409044825	0.9987278650259306	0.49947805444821164	-0.8653791548748752	0.040504214998902	0.8663071551409061	0.49860791486257117	-0.030034316840412578
394														9.795357797342936	0.3717239496005022	-0.1608544895949809	0.005666858851474166	0.04962049081312461	0.9987520681341405	0.49971461626866476	-0.8652589493040976	0.04015286959397679	0.8661715701858491	0.4988634658307164	-0.029699384861424538
395														9.733682104918842	0.4156183661169678	-0.18136921029836753	0.005531308163957471	0.049127406922857136	0.9987772036440514	0.5000848112914368	-0.8650622351353181	0.03978078503870375	0.8659587670008331	0.49925326962547123	-0.029352795823789912
396														9.711739029322548	0.4224857927940648	-0.15324945026864745	0.005410163594044115	0.048726690930547406	0.9987974968535137	0.5004747719388128	-0.8648504168013944	0.03948112474649018	0.8657342160170632	0.499659350107064	-0.029065461770071577
397														9.711415307426323	0.4960133563427715	-0.20227720331337526	0.005324604899580698	0.0483188234967743	0.9988177711066974	0.5006493958199303	-0.8647637206230667	0.03916490724219013	0.8656337742069693	0.4998489759817841	-0.028795314934199123
398														9.717094990840819	0.5356646769152631	-0.20984860008268116	0.005244896301375757	0.04806643503277275	0.998830370426344	0.5007608855268506	-0.8647074046503911	0.038982558524919636	0.8655697699141022	0.49997072130878284	-0.028605091239553182
399														9.700828045160282	0.47763071179357575	-0.15340575960193026	0.005229734138997522	0.04784273469249581	0.9988411898885525	0.5005636127134924	-0.8648296938021994	0.03880296825258861	0.865683960523731	0.49978062532989215	-0.02847116149386497
400														9.734336681652723	0.4423200642428137	-0.1570343164791908	0.005176262251049224	0.04769006625708666	0.9988487692786644	0.5003784414910211	-0.8649412977835467	0.038703574505855654	0.8657913268219569	0.4996020506051873	-0.02834024401741503
401														9.767642149588768	0.3748242336117468	-0.17295610045915735	0.005179304882152624	0.04754148137666439	0.9988558366198048	0.49996180533584733	-0.8651874003510271	0.03858698587804099	0.8660319670810415	0.49918991358234	-0.02824999418403268
402														9.733805875234234	0.34515353509958535	-0.19080829218753081	0.005147916386314455	0.04735338097856884	0.9988649339459154	0.4999729528567272	-0.865187529659543	0.03843936697374242	0.8660257186530919	0.4992075678828555	-0.02812932277677388
403														9.795048729381575	0.3411185710926299	-0.2292432801715935	0.005034493528568718	0.047149445226585485	0.9988751592114684	0.5002320503286076	-0.8650434459078338	0.0383109973237252	0.8658767520259154	0.4994764924465678	-0.027940719287905036
404														9.773169675040938	0.38224534306548	-0.18997062099930315	0.004887167835221806	0.04691466394278082	0.9988869455036872	0.5005522809907617	-0.864864374830612	0.03817102492467772	0.8656925144561988	0.4998085908185159	-0.02770997940297537
405														9.779020001537727	0.45495269293633905	-0.1851523565613638	0.004694041077195954	0.04666090873683443	0.9988997575203522	0.5008373963968442	-0.8647051231351204	0.03803882745704262	0.8655286640827073	0.5001077979993205	-0.027428489412924917
406														9.75101409981598	0.4984486562484374	-0.1992128678116141	0.004443166272844745	0.04641552717538436	0.9989123370499051	0.5011327258348389	-0.8645382272520986	0.037942650370566766	0.8653590291727569	0.5004190768314394	-0.02710162674737293
407														9.78455966727612	0.463375887012619	-0.20089864900636614	0.004247816983241115	0.046133210962022275	0.9989262649951751	0.5010622733411232	-0.8645853858561877	0.037798264485725014	0.865400805572252	0.5003637051288201	-0.02678821204665849
408														9.734205487466747	0.4843582216437445	-0.2017705983006513	0.003913785468342368	0.04593251447843136	0.9989368780843947	0.5011080522898176	-0.8645592005866678	0.03779032430725576	0.8653758733715734	0.5004274101152242	-0.02640085210283838
409														9.72257889248839	0.44694178546187924	-0.24204642003474217	0.003614362501015267	0.04581130512362361	0.9989435723335837	0.5007887479885977	-0.8647418074192073	0.037844899119637426	0.8655619944704852	0.5001229157159599	-0.02606727649837931
410														9.73920453932587	0.3984322657694941	-0.25282613160433315	0.0032657733206117867	0.045627312950892035	0.9989531936169479	0.5005758578005824	-0.864864124647728	0.03786629747585388	0.8656865167667965	0.4999281890533881	-0.025664381503757272
411														9.761314466942059	0.35811042484834216	-0.2858243838495551	0.0029619081252329482	0.04537045241217988	0.9989658398304581	0.50041383663949	-0.8649607556373315	0.03780057284014235	0.865781276766831	0.4997843667575159	-0.02526593645177827
412														9.761119016283507	0.2944480397220146	-0.30606608701175303	0.0025993447224242905	0.045126940707226365	0.9989778789489894	0.5003823704689004	-0.8649802139491491	0.03777185195895763	0.8658006275875176	0.49977273705044356	-0.0248291073172216
413														9.755428424058593	0.329299245097855	-0.34355469870366845	0.002219747445192932	0.044788213080695416	0.9989940383657538	0.5005963745503543	-0.8648611581174047	0.037662275115322774	0.8656779669763579	0.5000091930643467	-0.024340590436962573
414														9.738812170233055	0.3470246534637366	-0.3368408149048437	0.0019327178400062595	0.04451855944320138	0.9990066878989616	0.5008768963684262	-0.8647029757245048	0.0375645904745352	0.8655163772489136	0.5003067675319702	-0.023969544752193206
415														9.70577245433201	0.4789940055305552	-0.2922663522875019	0.0018376813176902984	0.04425156819621809	0.999018729373754	0.500925942291159	-0.864682576767017	0.037379697367236814	0.8654881993806092	0.5003657064065515	-0.023755769513609082
416														9.72282740933186	0.5258831516226632	-0.26893111214888227	0.0018575577912505192	0.04413452444606125	0.9990238702007939	0.5008976962240858	-0.8647037083002785	0.03726922013070075	0.8655045045500664	0.50033952532622	-0.02371311872945403
417														9.778484337139652	0.4490708852428126	-0.3107505451143666	0.001997341593564239	0.04400815052916612	0.9990291754065852	0.500713338192335	-0.8648179676466667	0.03709495641968191	0.8656108615208382	0.5001531420699985	-0.023762804856771902
418														9.750583944658326	0.4178509128157913	-0.27681377965228526	0.002155557698065358	0.044054614149311555	0.9990267987112086	0.5004749257073904	-0.8649573459272453	0.0370626289499002	0.8657483481411862	0.49990797222954064	-0.02391269520895606
419														9.784030355044338	0.383627982563374	-0.2830498585250308	0.00230964937379613	0.04412403832578618	0.9990233904977373	0.5001696400688088	-0.8651342775726572	0.03705418899766427	0.8659243596719104	0.49959558746115934	-0.024067661210236013
420														9.82340777237825	0.3474429950027115	-0.23473547028723524	0.002390710772255167	0.04414985285561357	0.9990220593134226	0.5000970723658417	-0.8651769182015028	0.03703806720746561	0.8659660517093716	0.49951945978528034	-0.024147599936725994
421														9.77866693790688	0.44188591384226245	-0.23765731648482322	0.0024457577163403688	0.04416220787986136	0.999021379983616	0.49986931224424125	-0.8653089767070811	0.0370276316635704	0.8660973899889445	0.49928956951384407	-0.024191668586893367
422														9.778497339944165	0.4108401178201638	-0.2498591112529674	0.0024472214783154977	0.044193517295887885	0.9990199918600502	0.4997817887976636	-0.8653582968521811	0.03705646576915192	0.8661478942381862	0.4992013131975024	-0.024204838537894513
423														9.778330614524243	0.37999907029717467	-0.2619597482146265	0.0024255209053652416	0.04428555122956743	0.9990159692420495	0.49962352469507987	-0.8654456098308149	0.03715144675291379	0.8662392570298365	0.49904176816862034	-0.02422525961748212
424														9.744535597832925	0.3519384298732789	-0.2810353213582805	0.00238546141371615	0.044283577335810204	0.9990161531988292	0.49961842808825196	-0.8654477609554252	0.03716987183008727	0.8662423078379787	0.49903821280096805	-0.02418938353798833
425														9.761278046921035	0.3356916621141196	-0.2829809970813423	0.0024036399690314236	0.044314582422335436	0.999014734776036	0.49930194289663066	-0.8656292450276755	0.037196504842075484	0.8664247182153503	0.4987205910502902	-0.024207018153835913
426														9.794807323517382	0.30174196893642735	-0.28739351297038274	0.0023659988475615568	0.044286510346180835	0.9990160694657573	0.4994777420855896	-0.8655282680235619	0.037186051325927755	0.8663234887791826	0.49889830852939443	-0.02416796507723623
427														9.811673293383745	0.31715570925588593	-0.2770472997741864	0.0023970077456397787	0.044208184473979534	0.9990194646649191	0.49949613679610083	-0.8655212507840313	0.037102207037001844	0.8663127978274578	0.49891742890658797	-0.0241564785016673
428														9.789349366465494	0.2941972988869243	-0.2634521494024158	0.002328728638484434	0.044053899945618175	0.9990264415532303	0.4999742272221227	-0.865249998875509	0.03698934386513203	0.8660371522842248	0.4994013349456659	-0.0240407470332612
429														9.806097629257797	0.24400627445547052	-0.27638116793852313	0.0022113358628860214	0.043847120417630475	0.9990358051765632	0.5006619059218289	-0.8648582183121977	0.036849941337447956	0.8656400903102998	0.5000976827070223	-0.02386507487194034
430														9.800945669101372	0.33190571745734787	-0.21520472388210346	0.0020231595110989375	0.043538076575070445	0.9990497198406778	0.5016023607336987	-0.8643215737228798	0.036650905904025866	0.8650959360278916	0.501051547333554	-0.023587462404385307
431														9.783908023879068	0.3587568907558565	-0.28618552136271264	0.00173570157529368	0.04327084627706096	0.9990618705578292	0.5027573230675979	-0.8636552748131104	0.03653273038514926	0.8644258565324993	0.5022222617028819	-0.02325378266212852
432														9.711648560196519	0.5168130330247628	-0.2152052653293923	0.0015702622433496627	0.04295726173577563	0.999075676783622	0.5036996735969078	-0.8631150091897092	0.036319687909148024	0.8638774062879853	0.503177060859906	-0.0229928756255261
433														9.722749346409872	0.5328271098293291	-0.2578573233912183	0.00147407301268071	0.04276485697009144	0.9990840776016202	0.5042563929350581	-0.862795444936282	0.03618715768510672	0.8635527298856028	0.5037411906976936	-0.022836276000966438
434														9.762069919908113	0.4636871439868342	-0.21938978002078452	0.0014732468427235412	0.042676542339803	0.9990878551347022	0.5044493525801637	-0.8626860333199893	0.03610621270746098	0.863440026999672	0.5039360283295309	-0.022799103628523942
435														9.817780147506772	0.3546878224829052	-0.27225054250310177	0.0015442279812930004	0.04253743265471205	0.9990936803839208	0.5043349369949268	-0.8627593108396231	0.03595334318060325	0.8635067380665107	0.5038223281898937	-0.02278541048675975
436														9.862540326638547	0.2615943773125997	-0.2682342292321348	0.0014940495410764032	0.04243471782747105	0.999098124579799	0.5046721002063912	-0.8625651398932511	0.035881063448650774	0.8633098163980524	0.504163340757575	-0.022704333219061512
437														9.800826808280593	0.27554384031504436	-0.3040000458622145	0.0014464161992101543	0.042297964446646935	0.9991039936282153	0.5051275680059295	-0.8623028952608074	0.035775087215046825	0.8630434797393431	0.5046232248207561	-0.02261311678886707
438														9.82330600896922	0.3308929916222897	-0.30359245156904413	0.0013995867008499974	0.0421579745150476	0.999109977100547	0.5058435142034681	-0.8618879043109788	0.03565921396658642	0.8626241245730105	0.5053433937306568	-0.022531624828889096
439														9.689109339705265	0.5039439885664599	-0.27336068930928603	0.0015432465179410215	0.0421653170824825	0.9991094556781647	0.5061980938908418	-0.8616828273893122	0.03558362999525752	0.8624158556818534	0.5056923877395175	-0.022673792158393657
440														9.666720422360624	0.5136362939557331	-0.25121002982472307	0.0019221165745940683	0.04231212539348955	0.9991025920857975	0.5060660696363899	-0.8617629070021116	0.03552218008578231	0.8624925730872414	0.5055436441692802	-0.02306913976276448
441														9.756169195196357	0.35997068262082993	-0.23708740555565558	0.0024897699021261266	0.04259531564689217	0.9990893053830456	0.5056982727308013	-0.8619801319238265	0.03548956361618616	0.8627068204221635	0.5051493751886909	-0.02368650973775127
442														9.750562721889748	0.21324714211689	-0.19207013358357244	0.003093766500710249	0.042930185367241996	0.9990732844957739	0.5052814206119652	-0.8622247337939707	0.03548512953718702	0.8629490799538486	0.5047033857804513	-0.02435934704699061
443														9.851277961206788	0.17348020441118409	-0.18836582915703598	0.003717403203843339	0.04320101071889615	0.9990594845084483	0.5047780786388308	-0.8625222364632255	0.035418680553723325	0.8632411437362743	0.5041716615195089	-0.025013266111154453
444														9.851003195882381	0.1094525139965699	-0.2169979448484413	0.004072097674305386	0.043372066589811215	0.9990506903357108	0.5049517443507385	-0.8624220668620446	0.03538240334609838	0.8631379692133105	0.5043283081774497	-0.02541266757336008
445														9.806533667820702	0.16103914352098386	-0.15857557505632894	0.004322594778665423	0.04342912548247224	0.9990471591642747	0.5052821354437123	-0.8622320987956837	0.03529548707459271	0.8629433809792053	0.5046481139033597	-0.025671041232488423
446														9.778750438415955	0.3339028563357374	-0.13048635279000026	0.004560701841874959	0.04339844431854947	0.9990474338235593	0.5057151313253975	-0.8619847318924453	0.03513584968156144	0.8626884756082265	0.5050731600620241	-0.025878505322283085
447														9.801072119218379	0.35629506362067676	-0.1452197522666637	0.004795279726171775	0.04332791032801625	0.9990493969163661	0.506116527596616	-0.8617568980018555	0.03494437350652027	0.8624517759190315	0.5054678436189851	-0.02606133690511009
448														9.839978705646631	0.2961408653342998	-0.18620102454640103	0.00508206949997303	0.04328574610650848	0.999049806943378	0.506108331426933	-0.8617690363039949	0.034763269810677705	0.8624549434201438	0.5054507614512883	-0.026286846871956537
449														9.806650762863258	0.22348163928540482	-0.14246676169603487	0.00540303274303966	0.043200268351705484	0.9990518225054787	0.5058772861953631	-0.8619138864222484	0.0345343843742798	0.8625885337452572	0.5052110343280682	-0.026510983466692173
450														9.789662884112653	0.17522930610986137	-0.1653006038059929	0.0056198224847776035	0.04308448620634467	0.9990556264010406	0.5060191499975774	-0.8618391487233723	0.03432057055911278	0.8625039347336161	0.5053484033576331	-0.026644958114474038
451														9.80633517294138	0.12363160646608881	-0.1803761919402738	0.005877123832337017	0.042820424708592125	0.9990654986752547	0.5063210569310082	-0.861676363990753	0.03395336578223923	0.8623250238301834	0.5056483510973329	-0.026745061391260594
452														9.762059679022139	0.17249115358803357	-0.11933089518836454	0.006053593182713035	0.04249941469801949	0.9990781519780647	0.5071113344613156	-0.8612268212418178	0.033562729843959	0.861859297374254	0.5064406797681646	-0.026765451715176636
453														9.77300505452088	0.18591784316395774	-0.16393658695450664	0.006252711901396535	0.042159840531602794	0.9990913128639582	0.5079659752968216	-0.8607392968511676	0.033142582833962625	0.8613544401317188	0.5072971621273936	-0.026797719359415106
454														9.678801595111906	0.49134149859732607	-0.10170359173671047	0.006440872815790366	0.04181496923374392	0.9991046108918483	0.5088793649446728	-0.8602157235827941	0.03272156528096279	0.8608137470387408	0.50821296446363	-0.026819315058588422
455														9.645714235278865	0.5888445634552986	-0.07479006224554176	0.006774472308801127	0.04166453122911151	0.9991086894639621	0.5092385340061215	-0.8600149014104331	0.032411183799723464	0.8605987578472524	0.5085650756682587	-0.027043331937926296
456														9.701943104324258	0.49970236289216674	-0.042262678996595984	0.007357812101788985	0.04156539121146646	0.9991086932133625	0.5089699677519408	-0.8601878620533154	0.0320376950284357	0.8607528301014545	0.5082805920252951	-0.02748463648572469
457														9.780311250158798	0.4013858031243266	-0.03540552218095906	0.007876630044099608	0.04156681460088946	0.999104678511258	0.5084683847617093	-0.8604935834123084	0.03179142343562519	0.8610446332200016	0.5077627328095085	-0.027913200691663975
458														9.863877371739225	0.27921027254052805	-0.06214470373272603	0.008280983723708113	0.04148592893002814	0.9991047707870182	0.5080823079826644	-0.860731251875748	0.03152903993807282	0.8612687116246454	0.5073663663914079	-0.02820596800684344
459														9.852229341720726	0.23835759698049963	-0.10710863795627797	0.008436446599239256	0.041264494665129686	0.9991126402207162	0.5079486558317511	-0.8608198073187671	0.03126375483525351	0.8613460334891525	0.5072341676264653	-0.02822250493474121
460														9.824444300429171	0.3125003387241252	-0.11178747508205407	0.008368723017879331	0.0409187144746089	0.9991274309520264	0.5082041916004044	-0.8606788031720387	0.030991892651581643	0.8611959498945814	0.5075013857873624	-0.027997844722003007
461														9.791270961873558	0.37849070530593404	-0.09196829856952937	0.008191573309223987	0.04046431680744053	0.9991474051370132	0.5083101440482	-0.8606271584558776	0.03068699375729092	0.8611351203988941	0.5076253866715779	-0.027618313165602537
462														9.746459079551393	0.4052346868214687	-0.11427756852440767	0.007847622690367984	0.039939380533816154	0.9991712869676977	0.5086692764778641	-0.8604251953771879	0.030398196124358623	0.8609262349270096	0.5080091820456631	-0.02706822808571674
463														9.735337472086202	0.42931908922939627	-0.12849180041830507	0.007413426384099808	0.03936916712913202	0.9991972326767159	0.5090048110963141	-0.8602366174860512	0.03011750681852504	0.8607317487986917	0.5083729247468995	-0.02641639631422299
464														9.724249497906301	0.45338335565721	-0.14248122632334456	0.007033903894868632	0.03881711031903484	0.9992215750985759	0.5092043824342891	-0.8601285450224372	0.029829229747023595	0.8606168840463876	0.5085981891277891	-0.02581590421080876
465														9.735443417244063	0.39377331411228506	-0.12762166077900428	0.006569627294586711	0.03825458281212016	0.9992464295112996	0.5091477566061595	-0.8601705743823983	0.029582848232883013	0.8606540547398386	0.5085697295951908	-0.025128235102158447
466														9.77420221895607	0.37496562284156315	-0.22367964340657523	0.005974962247660642	0.0376987298944122	0.9992712872841324	0.5092881999393724	-0.860093599423526	0.02940288477678349	0.8605752896921063	0.5087413940255217	-0.024338545073935958
467														9.780083721105273	0.34020601599468514	-0.17211623721554403	0.005254453372292356	0.036974772033492975	0.9993023851431707	0.5092324667849311	-0.8601352769233499	0.029147901538986387	0.8606129707899438	0.5087240623609852	-0.023348295077883607
468														9.82475705487343	0.28702772006341265	-0.2214814285854227	0.004272925278016704	0.03608235799473694	0.9993396847674508	0.5096641739561917	-0.8598889817976529	0.02886812720888704	0.8603628141052594	0.509204283588164	-0.02206412654839046
469														9.819622416903298	0.3185208753852721	-0.24962551186677526	0.003070633932769795	0.034929971523428915	0.9993850450635249	0.5101336220442725	-0.8596235850110381	0.028477706241240075	0.860089680711984	0.5097324682440225	-0.020458542240694266
470														9.809240211625344	0.3732058205896844	-0.24045456028268178	0.0016172534889594692	0.033471521712521046	0.9994383631447222	0.5109118436098505	-0.8591786942302433	0.027947440669925244	0.8596315911774864	0.5105796985927501	-0.01849050660745477
471														9.66990059536114	0.371920771883769	-0.22813209832288986	7.977911886408728e-05	0.03185126094555124	0.9994926166868222	0.511758673372514	-0.8586946396896107	0.027323542894988978	0.8591292416530222	0.5114968357130943	-0.01636866494846484
