// Start Time: 1748432634.6645443
// Update Rate: 100Hz 
// Filter Profile: 46.1 human
// Option Flags: AHS Disabled ICC Disabled 
// Firmware Version: 4.0.2 
PacketCounter	SampleTimeFine	Year	Month	Day	Second	UTC_Nano	UTC_Year	UTC_Month	UTC_Day	UTC_Hour	UTC_Minute	UTC_Second	UTC_Valid	Acc_X	Acc_Y	Acc_Z	Mat[1][1]	Mat[2][1]	Mat[3][1]	Mat[1][2]	Mat[2][2]	Mat[3][2]	Mat[1][3]	Mat[2][3]	Mat[3][3]
0														9.44293291896194	2.1018922740561314	0.8573421728623215	0.15187541738550575	0.19171249950403718	0.9696288852586299	-0.8592747496016953	-0.4591852396021092	0.22537928127602563	0.4884472973524603	-0.8674071900010216	0.0949947600850129
1														9.465463817198842	2.0711672030721795	0.8623209470966056	0.15125911911094164	0.19189361887481382	0.9696893924968503	-0.8591275979455891	-0.4596583314414889	0.22497552930189824	0.488897176647631	-0.8671165189128591	0.09533358953916032
2														9.468382509775221	2.1151999713847953	0.8767221869185639	0.15072282610472348	0.19207044527831496	0.9697378891956299	-0.858857067954054	-0.46031705860902383	0.22466139494559895	0.48953770694030424	-0.8667278405613419	0.09558077149459743
3														9.449482851671677	2.185959498758992	0.8886216336153442	0.15015884762770543	0.19213062957783222	0.9698134571437671	-0.8586291814140672	-0.46093722107367785	0.22426057846417075	0.49011044602551435	-0.8663848448622018	0.09575516325384309
4														9.452671482098966	2.22983826970819	0.9012114338513045	0.14966285948176694	0.19213012655811712	0.9698902221182057	-0.8583809595512667	-0.46157818970466835	0.2238921683954297	0.4906966035867653	-0.8660436416588501	0.09583973064804474
5														9.463630463029943	2.2785802075831687	0.8907421184759666	0.14917819244935554	0.19207402495436937	0.9699759975563166	-0.8581911745154525	-0.4621230194765632	0.22349546495097483	0.49117591032269836	-0.8657654900766676	0.0958975563347485
6														9.424688820081636	2.2441336945442174	0.9240490825968077	0.1487395740868418	0.19198128615648669	0.9700617118854689	-0.8581114108349952	-0.462462816888448	0.2230985199197345	0.4914482126279831	-0.8656046030153163	0.09595480990267091
7														9.411378326655456	2.2718194862202394	0.900486135322288	0.14830567514654525	0.19184158576798588	0.97015577753748	-0.8581558966239802	-0.4625921321409781	0.2226588789398638	0.4915016620610967	-0.8655664765061599	0.09602494956984448
8														9.432806351363634	2.2176227527849357	0.8970900012640087	0.14795467036803672	0.1916915223843022	0.9702390302200148	-0.858188977832257	-0.4627100229568895	0.22228610613905053	0.4915496860374462	-0.8655367091586722	0.09604744273152027
9														9.425892839753706	2.2092264880796386	0.9200833507815926	0.1476398392764306	0.1915457183574531	0.9703157814017858	-0.8582845190940451	-0.4627020651436342	0.2219335107533802	0.49147752964091285	-0.8655732416674768	0.09608746623427133
10														9.41893621293847	2.2010257695768254	0.9429969450119331	0.14734922978037768	0.19138617490236787	0.9703914347001271	-0.8583529938812507	-0.4627349024695845	0.22159997276976107	0.4914451570401567	-0.8655909785185527	0.09609326474353663
11														9.450523652072937	2.199803394438532	0.9273944871952832	0.14710882920195356	0.19113073952189552	0.9704782495144564	-0.8583935862966916	-0.462818308324326	0.22126830881197895	0.4914462772018266	-0.8656028268724765	0.09598074147891833
12														9.41276885500423	2.1899475627892535	0.9647007426895395	0.1469028148569338	0.19087979688367068	0.9705588421774117	-0.8584580220871285	-0.46284465717735523	0.22096300060560287	0.4913953472524589	-0.8656441107429917	0.09586910990830283
13														9.398142166897989	2.1947907939882416	0.9339295250478635	0.14668206025487446	0.19060355643341137	0.9706465152022752	-0.858553139432922	-0.46282839058800856	0.2206272595025085	0.4912951047682632	-0.8657136738787536	0.09575465988708859
14														9.423460546383994	2.2122973305715075	0.9456849360586936	0.14647284845173741	0.19029792881740654	0.9707380712397344	-0.8586559121926214	-0.46280041562974583	0.22028572298174914	0.49117789966883874	-0.865795861378847	0.09561274651513985
15														9.43207885892695	2.2138088104423965	0.9217922663841028	0.14624713137378353	0.18995100209876714	0.9708400452013783	-0.8588454635045684	-0.4626350605425933	0.21989377111317876	0.49091368526713874	-0.8659604018420393	0.09547950596338195
16														9.449774642180186	2.2262819808217924	0.9559188853311537	0.1460889402780785	0.18961454117450272	0.9709296304591861	-0.8590188619898007	-0.46246840456721583	0.21956677691035736	0.49065733080651786	-0.8661231439883348	0.0953209482411212
17														9.433857309395796	2.2074138603964477	0.9189244667140993	0.14598526683705382	0.18923534297076033	0.9710192000353308	-0.8592613238795739	-0.46216723447773533	0.21925196614836806	0.4902634793162115	-0.8663668001175608	0.09513300427728527
18														9.456453574211707	2.177810801318228	0.9188137426829484	0.14591122379347382	0.1888721943755169	0.9711010292255221	-0.8594983651227894	-0.4618596025028131	0.2189709294111804	0.4898698552905082	-0.8666100632739739	0.09494484246095758
19														9.50977425315852	2.150475567256714	0.9030551371749211	0.14588619773080724	0.18847229690516643	0.9711824805930853	-0.85971691447681	-0.4615728708998589	0.21871742457274718	0.48949366111740505	-0.8668498590578144	0.09469571044839376
20														9.511788586659673	2.1721863624041267	0.9067650805779108	0.14590707543974996	0.18813962118742822	0.9712438459398702	-0.8599544705189126	-0.46121849392234093	0.21853102639795652	0.4890699683799405	-0.8671107102345459	0.09449646673492873
21														9.544625372698382	2.1783334631118585	0.9703651080145097	0.1459488020807566	0.18783555579112565	0.9712964280547061	-0.8602530765969186	-0.46074041860691695	0.21836417029233218	0.48853207814505684	-0.8674307295931829	0.09434160259774216
22														9.556227194501417	2.115902058079608	0.9065328802401367	0.14602234811348702	0.1875586262793506	0.9713388881124992	-0.8604804483427108	-0.4603693399629102	0.21825093090761793	0.4881094875858806	-0.8676876353448384	0.09416631881055831
23														9.548914054977578	2.10998968080825	0.927760528294646	0.14608574157476756	0.18731177376466995	0.971376989390671	-0.8607063019763062	-0.45999774398534765	0.21814384535590853	0.48769213428844865	-0.867938001782111	0.09402131256079199
24														9.50291979850633	2.115442355033137	0.9120449022675426	0.14619107520697827	0.18707087261744954	0.9714075654162745	-0.8608845919624031	-0.459692271569586	0.2180842378094323	0.4873457590372102	-0.868151774793636	0.09384352439622767
25														9.478629145621559	2.0943880844069387	0.8976381036414185	0.14628884436441264	0.18682557265963035	0.9714400544629227	-0.8610178093550842	-0.45947082520624616	0.21802498195771808	0.48708100557083595	-0.8683218102666159	0.09364468926431924
26														9.525105470486073	2.088047214133936	0.9103928788056967	0.14640360570041083	0.18663995004471223	0.9714584465046492	-0.8611261562909163	-0.4592733433916125	0.21801316245016628	0.4868549344410009	-0.8684661911077469	0.09348126931771666
27														9.495867627456622	2.1097506593742357	0.9302060764839254	0.14650761851729321	0.18644807021354576	0.9714796111242048	-0.8612531586957892	-0.4590481198884141	0.21798582583149323	0.48659892555668177	-0.8686264679023759	0.09332494257445811
28														9.508721508653295	2.054236242489706	0.9473443810817734	0.146604361046473	0.1863043248283699	0.9714925938330152	-0.861344091273584	-0.4588792474582739	0.21798209256774076	0.4864087969498889	-0.8687465308145828	0.09319843049852428
29														9.524070763929602	2.064254338573683	0.9011204367881205	0.14665955116947438	0.18619919140127839	0.9715044195330652	-0.8613756602563714	-0.4588243279775134	0.21797295239061926	0.4863362499019256	-0.8687980761819705	0.09309648142566085
30														9.50241772194444	2.0908602316842075	0.8990400759204162	0.14666322251983732	0.18611183778961005	0.9715206034843881	-0.8613858262405816	-0.45882429259764484	0.2179328494607929	0.48631713676563615	-0.868816811736999	0.09302144984480104
31														9.497773129152476	2.13267829257799	0.9324745257498762	0.1466233149879106	0.18596089821466355	0.9715555299812522	-0.8614053240519285	-0.4588392974110095	0.21782416497341056	0.4862946341436931	-0.8688412072908185	0.09291116895446383
32														9.497970057852953	2.1320529093336362	0.9318985776397875	0.14661924192094	0.1858709350582326	0.971573359761942	-0.8614399818746679	-0.45879916926532205	0.21777162328738614	0.48623446558867234	-0.8688816477415262	0.0928478685359529
33														9.524085077854416	2.1758135997318178	0.9500455093682101	0.1465907632652143	0.1857488647832885	0.9716010021387598	-0.8614685576323251	-0.45878686268822577	0.21768449378763022	0.4861924231579547	-0.8689142500019292	0.09276289024918127
34														9.490719243381076	2.1258340510943063	0.9535282262167415	0.14658944949957015	0.18560487951531796	0.971628716123354	-0.8615098126019975	-0.4587459041590703	0.21760753251610537	0.48611971373920204	-0.868966641544646	0.09265311541839721
35														9.551052760295507	2.1052885420349035	0.9163551938798085	0.14655550758289615	0.1855756679260676	0.9716394159722593	-0.861519833235965	-0.45874812021892514	0.2175631842400671	0.4861121888393608	-0.8689717105115655	0.0926450548729345
36														9.514213777138462	2.121308835194724	0.96041738082327	0.14647631299513092	0.1855409691982582	0.9716579843135765	-0.8615159206198431	-0.4587945733932588	0.2174807070602841	0.486142991567189	-0.8689545950012968	0.09264396135871689
37														9.545134946031999	2.1223702294653175	0.9453105740988882	0.14636055024570993	0.18556698001364846	0.9716704612472213	-0.8615821618845049	-0.45871664550743363	0.21738265215244468	0.4860604567892726	-0.8689901812235983	0.09274317917120362
38														9.501761722488409	2.175112109882394	0.9433350849737859	0.14624835946826775	0.18560302456280875	0.9716804694064701	-0.8615751063231883	-0.4587660584522057	0.2173063270510418	0.48610673058190346	-0.8689563975743346	0.09281716219324881
39														9.501804692426898	2.1744906546495923	0.9443344688493666	0.14615233592053312	0.1856614483302269	0.9716837558119897	-0.861596746398324	-0.45875269351562875	0.21724873483631196	0.48609725498175177	-0.8689509726078213	0.09291752204577852
40														9.538914084245187	2.156951326100697	0.9010524792113657	0.14606226019349894	0.18560347585195602	0.9717083749247191	-0.8616206184438948	-0.4587589690204444	0.21714077971596824	0.4860820157334833	-0.8689600440152417	0.09291240974973342
41														9.529996663196853	2.127500225495145	0.9184107123290343	0.14599267090642654	0.1856134993961761	0.9717169180803191	-0.8616457375518044	-0.45873961965661825	0.21708197602774032	0.48605839464041245	-0.8689681180568176	0.09296045826252164
42														9.520956217955082	2.0983957394529353	0.9361834517787725	0.14593458205954635	0.1856563038058492	0.9717174664563029	-0.8616881075247229	-0.45867750393884366	0.2170450476995358	0.48600072336321404	-0.868991763043576	0.0930409192390661
43														9.502792940792961	2.040861463036641	0.9709551549296632	0.1459317699171308	0.1857432693124328	0.9717012691326402	-0.8616818789928811	-0.45867033705779936	0.21708491729870016	0.486012610890039	-0.8689769616096934	0.09311703521608622
44														9.488545042525741	2.0730344163382948	0.9476276242944506	0.14595300231900876	0.1858124930789749	0.9716848452712659	-0.86163023574258	-0.4587387141377623	0.21714540981890224	0.4860977864259968	-0.8689260668014331	0.09314736960718567
45														9.488302256240708	2.073927625520784	0.9481041107384283	0.14599578013101694	0.1859118212323016	0.9716594191948252	-0.8615295991159624	-0.4588792754989728	0.21724769357723378	0.48626328468333446	-0.8688305964016387	0.09317409900475482
46														9.558820934932147	2.0895448982709164	0.9758111057631558	0.14604322487079674	0.18605035790570879	0.9716257719886273	-0.861426000231227	-0.4590143986419134	0.21737301572419987	0.48643254680887515	-0.8687295587019938	0.0932326726125084
47														9.498283832841958	2.110607318982894	1.013592986134949	0.146058295432699	0.1862053511583593	0.9715938150972795	-0.8613622398718737	-0.45908754656326967	0.2174711850186749	0.48654091920228393	-0.8686576954074084	0.09333671384448217
48														9.465609683813623	2.103884505042412	0.9492462900001443	0.14607160026414984	0.18625504201242005	0.9715822903497275	-0.8613524613458676	-0.45908856403325016	0.21750776470577832	0.486554236370095	-0.8686465044532443	0.09337143766416856
49														9.467476255884652	2.0146819495426347	0.9042515445755269	0.14613758563707396	0.18630780948186498	0.9715622502908581	-0.8613018522621786	-0.4591407164801707	0.2175980738881107	0.4866240081971984	-0.8686076229208126	0.09336954562355099
50														9.464442477909616	1.9681692917936242	0.8933637062313181	0.14618318510261996	0.18641052813071401	0.9715356871444717	-0.8612259610050337	-0.4592349151947466	0.217699648040665	0.48674461525959234	-0.8685357837579875	0.09340916361733048
51														9.485914443792705	1.94257692750726	0.8951126864284501	0.14623417353342905	0.18650407672940983	0.9715100595744268	-0.8610555230904661	-0.45949757002459696	0.217819579691302	0.4870307512328147	-0.8683767687500639	0.09339611795358044
52														9.539530840339989	1.942890821279931	0.8869350602497225	0.14626586620927418	0.1866657502215	0.9714742374743118	-0.860762031225771	-0.45997157922372034	0.2179790630003764	0.48753976451376346	-0.8680910343971315	0.09339664885413551
53														9.520189881878586	2.0186169141899812	0.8973459015566483	0.14623177808171672	0.18682543602171797	0.971448672619586	-0.8604746456533329	-0.46046070066347733	0.21808101093921917	0.48805701640979604	-0.8677973263382387	0.09342456386504372
54														9.494632311845809	2.112764496502441	0.9359575611155909	0.14619970667286508	0.18695888260914778	0.9714278264401881	-0.8601658963039407	-0.4609920983978428	0.2181763416376611	0.4886105571970462	-0.8674864041748976	0.09341874526720756
55														9.489522236561989	2.1561615152471902	0.9700269464224228	0.146162630728157	0.1870576457868765	0.9714143927960384	-0.8599226811005709	-0.4614162434607117	0.21823847689949422	0.4890495556765493	-0.8672395790225884	0.09341330028049027
56														9.464861184930964	2.136128206143311	0.9571890887152908	0.14612367564154866	0.18710557535263328	0.9714110227339217	-0.8597326053473869	-0.4617578961644745	0.2182647306193849	0.48939525817032364	-0.8670473741392212	0.09338700272887968
57														9.472475460982457	2.1413126452871776	0.9344636534823865	0.1460558306200781	0.18712113624211746	0.9714182285263839	-0.8595272225194686	-0.46214507800001436	0.21825416520270285	0.48977612037526597	-0.8668377052550378	0.0933367272746014
58														9.437345120319819	2.0864019960722	0.857634392794469	0.14604398789488132	0.18713163944185496	0.9714179857916793	-0.8593367283239448	-0.4624844226745328	0.2182854693673003	0.4901138040835601	-0.8666544341911645	0.09326602137720902
59														9.432360834582596	2.1293927664505783	0.8912799134387569	0.1460281046616096	0.18716346763171887	0.9714142417285265	-0.8592179431005256	-0.46269356448138255	0.21830985236954925	0.4903267470810049	-0.8665359206470225	0.09324794542174675
60														9.392226118686539	2.1174536391982235	0.8483197396537236	0.14608864172550623	0.1871728859422757	0.9714033248485598	-0.8590595485141665	-0.4629472362403433	0.21839539501570115	0.49058618087491324	-0.8663983882865132	0.09316132195873628
61														9.393479151799989	2.142118793843058	0.8529589883934977	0.14619388375665715	0.18714306404672393	0.9713932375363488	-0.8588771400871336	-0.4632341814462519	0.2185043509305199	0.49087412499325306	-0.866251445435461	0.0930108955611299
62														9.417867257924458	2.163967488786047	0.8642269896018969	0.14635413026135935	0.18707329188342336	0.9713825466927749	-0.8587256334111265	-0.46345355963664187	0.21863459145978198	0.4910913917776417	-0.86614916817141	0.09281628842974543
63														9.494855151928508	2.1609205351491676	0.8612081209802305	0.14653102739296098	0.18694493051130362	0.9713805901742568	-0.8586188983409728	-0.46360044892114505	0.21874233968723872	0.49122524917078303	-0.8660982719739354	0.09258260020579195
64														9.44709312307745	2.144311272768281	0.83976716277277	0.1466773082942464	0.18689568454743338	0.9713679891416542	-0.858566544205746	-0.4636457532949746	0.2188517868835858	0.49127309757624377	-0.8660846486049052	0.09245607091349195
65														9.453368063052261	2.1260918695042967	0.8099810668426632	0.14679487458775264	0.18669048310542447	0.9713896892146989	-0.8585405729543977	-0.46369107472954957	0.21885765192766277	0.4912833697428611	-0.866104641907673	0.09221388116807988
66														9.357428588031244	2.2046201688495577	0.818478493418174	0.14697104317846127	0.18642418018209816	0.9714141946206403	-0.8585574315871282	-0.4636513660674767	0.21887564371184887	0.49120123079400807	-0.8661832576234634	0.09191254038082258
67														9.399265684863286	2.240712176641324	0.8628889542518563	0.1471670208237631	0.185871783442059	0.9714903746831081	-0.8587196999593133	-0.46341162569841216	0.2187467532772568	0.4908587830360626	-0.8664302310559243	0.09141285373913527
68														9.416910585733582	2.2552202959257404	0.893614766559809	0.14737017010150627	0.18527426494474375	0.9715737129592574	-0.8589817181278935	-0.46300251019174454	0.21858427088469828	0.49033910805309505	-0.8667768584274316	0.09091444774273671
69														9.474674761306517	2.2823436063852562	0.967188525950509	0.14763536610281314	0.18467895073964374	0.9716467896460074	-0.859328971424165	-0.46241643565439783	0.2184599709506721	0.48965040339692834	-0.8672166541242081	0.0904309530129972
70														9.48805437862997	2.2260277168969393	0.9819583186353957	0.14791110745564046	0.18420415460013406	0.9716949797746698	-0.8597047101766702	-0.46174712368935433	0.2183973559012462	0.4889070623250328	-0.8676741457440449	0.09006365091449786
71														9.521612517032764	2.1197530288452384	0.9932988509803125	0.14814285936087673	0.18384384711626095	0.9717279110419114	-0.8600445628360662	-0.4611318833065905	0.2183591906337748	0.4882387153396418	-0.8680776613158585	0.08980050538770079
72														9.474030363951396	2.102362610251422	0.9716402248438621	0.1483546854904938	0.18366494239691789	0.9717294254201393	-0.860262830222285	-0.46069908334493376	0.21841295186660165	0.48778965777367744	-0.8683452905034237	0.089653255543589
73														9.484256193847838	2.1557192059716006	0.9594721377156098	0.14856511293091706	0.18361520983983953	0.9717066748434409	-0.8604913816379598	-0.4602188760252692	0.21852498318689778	0.4873222643658095	-0.868610407988248	0.08962683631519347
74														9.499117319558263	2.167066198212075	0.913779494698799	0.14878337281099174	0.18356944819914828	0.9716819261789562	-0.860675048879417	-0.4598140642255063	0.21865380531066836	0.4869311739983375	-0.8688344399413981	0.08958095646016873
75														9.546029111753397	2.2041650130376853	0.8586211228703029	0.14897604498607825	0.18359980914886848	0.9716466683423584	-0.8608816062623725	-0.45936102715122096	0.21879283976787878	0.48650693522232896	-0.8690676365019435	0.0896239095638115
76														9.562977317952422	2.2813010411965404	0.7505242245960659	0.1491565494723483	0.18368346643772143	0.9716031638003891	-0.8611077656657427	-0.4588652608339937	0.2189431166077247	0.48605116979558416	-0.8693118292978497	0.08972850039519703
77														9.574241808796137	2.358588597338903	0.7468187606932756	0.14924015749868724	0.18377029825760322	0.9715739049954353	-0.8613787603590544	-0.4583269607892797	0.21900463058109382	0.4855450613404139	-0.8695774114430379	0.08989504388986114
78														9.574475731989535	2.3405313412686377	0.8245215286402133	0.14921693064621366	0.18386295711974082	0.9715599418500684	-0.8617928814350879	-0.4575730816661514	0.21895183132906398	0.48481680779066694	-0.869954762004167	0.09017413681284503
79														9.52713886403921	2.303994683343191	0.8827263866367314	0.14921949489600184	0.1839062142823118	0.9715513608097777	-0.8623804429748905	-0.45650650346760435	0.2188647615908374	0.483770104406436	-0.8705057820831121	0.09047745267443941
80														9.436960384178857	2.2075328065451023	0.8861934022163722	0.1493370673571544	0.183824118157087	0.9715488324818955	-0.8630222514562014	-0.4553205462583655	0.21880537846783565	0.48258785086721145	-0.871144014350528	0.09064806923819807
81														9.479079233057051	2.1302013164412092	0.8845450478709613	0.14954007564604493	0.18371195268339235	0.9715388228048485	-0.863714632311025	-0.4540110818723805	0.21879435885987142	0.4812845309249059	-0.8718508220896085	0.0907818501357382
82														9.505379898004986	2.062289166580205	0.8526321926907088	0.1498920213702667	0.18367624341195793	0.9714913378592769	-0.8642948007433566	-0.45282264721602017	0.21896608773113324	0.4801321477859384	-0.8724761817805389	0.09087592028758196
83														9.519049517608043	2.0326604767831467	0.8775235505471274	0.1502616102996736	0.18373051057923862	0.9714239795024835	-0.8647734325487508	-0.4517878453728358	0.21921371565488756	0.47915379454617724	-0.8730010551286081	0.09099889513800052
84														9.496342551422314	2.06285797639058	0.8778359231064112	0.1507153375305611	0.18392516166763395	0.9713168494052724	-0.8650999672105505	-0.450961435461941	0.21962657047454615	0.4784212931772103	-0.8733872672713068	0.09114684636895254
85														9.456381918560389	2.0789645728516235	0.8423979963115406	0.15125687111178465	0.18412032405554685	0.9711956884228605	-0.8653020639576525	-0.45032407336493024	0.22013760936887633	0.4778846064188509	-0.8736749597062388	0.0912050860983234
86														9.442063688490903	2.1403417576864423	0.8250619403329393	0.15192514100238114	0.18431072950903826	0.9710552541020786	-0.8654301766473367	-0.4497689786467046	0.2207679215720878	0.47744042652415375	-0.8739207177055285	0.09117685169760886
87														9.403096990620746	2.1817781435605315	0.7939679847440401	0.1526812097815105	0.1844550568336215	0.9709092543529287	-0.8655573413020788	-0.44918784665999134	0.22145150108101996	0.47696848648284007	-0.8741891159362863	0.09107388473543421
88														9.402842918369378	2.2125131495319783	0.7986193358286606	0.1535750222397751	0.18453853530057884	0.9707524100063671	-0.8656689393409136	-0.4485895092830979	0.22222677521290596	0.4764787508425014	-0.874478691078443	0.09085713425649627
89														9.41691653468537	2.2117854648716273	0.8261466833162033	0.15449112164609563	0.18456686515804221	0.9706016513576845	-0.8657590322375116	-0.44803172202523833	0.22299971784346934	0.47601868811182046	-0.8747586229039601	0.09057350729362718
90														9.411564070502605	2.2851898391291536	0.8639764642916071	0.15551027963977743	0.184531362546976	0.9704456343159644	-0.865874303126571	-0.4473964485083068	0.2238260687391636	0.4754768597013246	-0.8750911918758584	0.0902062181329894
91														9.42448990520225	2.260940263854791	0.8842542491588723	0.156480557606609	0.18446288147692286	0.9703026746579415	-0.8660644441410577	-0.44664902453363997	0.2245818948129797	0.47481176658310087	-0.8754873467048958	0.08986485449749704
92														9.452497120689404	2.2468742114942466	0.8597771466605211	0.1573571033693606	0.1844466367497482	0.9701639965546598	-0.8662470973906615	-0.44594069116754464	0.22528396796768652	0.47418847337473036	-0.8758517786433491	0.08960442827128368
93														9.451977155536895	2.2344639161862165	0.9322198731529374	0.15820638708958012	0.1844392470075405	0.970027269331823	-0.8664059746660366	-0.44528358382988653	0.22597171733340282	0.4736152722907665	-0.8761875907218177	0.08935255854221147
94														9.425286712772289	2.2397817936868383	0.8419794574434502	0.1590563199790151	0.18442986852635135	0.9698900508150836	-0.8664876792935373	-0.44476741701738864	0.22667387673082195	0.4731809259757125	-0.8764516919688344	0.0890631401744526
95														9.446029336495696	2.219979050275525	0.8396546357904434	0.1599072465360517	0.1843290964224456	0.9697692801472647	-0.8665123857720014	-0.444376116292093	0.22734588752135237	0.47284876843338985	-0.8766713474736367	0.08866448392555765
96														9.394424059776279	2.2977384913764123	0.8626994084537771	0.16076217108008056	0.1841813714981586	0.9696559940219397	-0.8665066280021614	-0.4440491794914798	0.22800567936186822	0.47256934726867594	-0.8768680337348377	0.08820806899630412
97														9.426206990962172	2.3538063124305575	0.8546738499684199	0.16161448595822153	0.18394762530490216	0.9695586774781338	-0.8664975499827159	-0.4437485225224801	0.2286246807172569	0.47229519773380224	-0.8770692788507668	0.08767397728964543
98														9.383180189989883	2.4598426317750275	0.8607357838455031	0.16243673770417277	0.18369591019750342	0.9694689880654961	-0.8666135202276634	-0.44323166847198575	0.2291870297860622	0.4718000771541304	-0.877383325941547	0.08719625311391627
99														9.383123784863685	2.4894458132732176	0.8624538721002248	0.1633965776019421	0.183446058190389	0.9693549928495651	-0.8667532755711793	-0.44260773845576024	0.22986332710049295	0.47121154242505914	-0.8777504962080541	0.08668188214333422
100														9.400833032757392	2.601623100844351	0.837117877770738	0.16444809491033796	0.18314544308405012	0.9692340123818951	-0.867017457607251	-0.4417206712039174	0.23057228115152878	0.4703589610973936	-0.8782599816163252	0.08615017357308657
101														9.4595797944944	2.547391071086353	0.8636108697124103	0.1655450426989894	0.18288503867336536	0.969096435586899	-0.8673952680743238	-0.4405873925972999	0.23131839184679198	0.46927634476933	-0.878883275591108	0.08569655842671037
102														9.410321290043187	2.5368111788835885	0.840062679408747	0.1666708853397349	0.18263659902404356	0.9689503024804729	-0.8678447812637018	-0.4392984593206639	0.2320825268559631	0.4680451384358424	-0.8795798635345297	0.08528195618741086
103														9.422467303368943	2.4888361755483883	0.8536959333090638	0.16783561091071042	0.18238939533007464	0.968795807268672	-0.8683624113958246	-0.43785694970129707	0.23286909213784523	0.4666668299601515	-0.8803495896911665	0.08489210649723256
104														9.434152999688042	2.4844108898878	0.7989596165885524	0.16903525005250836	0.18212832185174288	0.968636339716384	-0.868929888335598	-0.4363009918537446	0.23367133684841146	0.4651751642088935	-0.8811757593618351	0.08450649511322977
105														9.402838231006381	2.5129709168802434	0.81783288960469	0.17025936681222303	0.18181792765674848	0.9684802471890204	-0.8695583608044097	-0.4346211646120567	0.234462577880581	0.46355151296037084	-0.8820695462682434	0.08410297484801715
106														9.428605591530964	2.4527720747470294	0.7799428540049453	0.17143667585236472	0.18149709964493033	0.9683327263875623	-0.870259944264153	-0.4328161381653145	0.23519740634840525	0.4617976781904005	-0.8830226460086636	0.08374909583878315
107														9.433938919726389	2.3985106321848897	0.8164801233378749	0.17257772091567475	0.18122718153501494	0.9681805817699645	-0.8709485255900175	-0.4310298978577668	0.23592772818237806	0.46007129449263245	-0.8839513198279633	0.08345338913594624
108														9.419448340491208	2.258298894551257	0.7983185905641828	0.17365052210953463	0.18096128412813517	0.9680384857110709	-0.8716344576932862	-0.42926952741963914	0.23660313816737788	0.4583654309967296	-0.8848619589945184	0.08318921319237421
109														9.432407075733543	2.2090386721521353	0.8121389748452892	0.17465729350990383	0.18063472395818791	0.967918346930331	-0.872253890379502	-0.4276743352614491	0.23720837606733336	0.45680190514228286	-0.8857007166414776	0.0828628988097449
110														9.407918054547453	2.217845694221086	0.8024144526740173	0.17566323002018874	0.18027435327981478	0.967803485821589	-0.8728518965754388	-0.4261211537183288	0.23780313075823778	0.4552713435562724	-0.8865223741696002	0.082498992922106
111														9.429332018862711	2.1970972234165758	0.7990365125904725	0.17657989511087668	0.1798900799166186	0.9677081687111171	-0.8734390022098983	-0.42463007124681645	0.23831410367726957	0.45378833178168937	-0.887315536740181	0.0821418784681433
112														9.413140075598024	2.2343408724507676	0.772475690884429	0.17751257537251175	0.17940153880669757	0.9676282206810669	-0.8740203622727576	-0.42316083576514474	0.2387955472933731	0.4523026552179588	-0.8881159805725449	0.08168422818666471
113														9.412353207728824	2.239082987630597	0.7683215695236194	0.1784057905339564	0.17892764778360265	0.967551688935832	-0.8745829147640589	-0.4217369217099951	0.23925445464897843	0.4508615076791949	-0.8888885564148096	0.08124675481543123
114														9.451260404983808	2.232331926561848	0.7996136193534303	0.17936175144963168	0.17841404856834936	0.9674697873269069	-0.875135264914289	-0.4203053360257578	0.23975339958313668	0.4494080887348569	-0.8896695182941385	0.08074972444508738
115														9.511275827780569	2.244056718841513	0.7624574144482675	0.18031303231542312	0.17787613262539564	0.9673920052488805	-0.8756237303382497	-0.41900189129543	0.24025090626131018	0.4480739818888677	-0.8903917657599297	0.08020106122221393
116														9.495647633680116	2.2133306431752304	0.7957872154052843	0.1812460388393315	0.17740850765141086	0.9673035174225051	-0.8760579681608731	-0.41779198433732884	0.24077436376267214	0.44684707655628	-0.8910533537540702	0.07969699452758289
117														9.502716095880338	2.2479394018605023	0.7751699283242467	0.18208672339052046	0.17694443680248245	0.9672306299169582	-0.876408805659975	-0.41678867457116325	0.24123599671456275	0.44581613982286433	-0.891615313368868	0.07918397842729957
118														9.443931988248595	2.3157671182071873	0.823001412368143	0.18288293496658853	0.1765024138432829	0.9671611706460825	-0.8767408375970016	-0.4158359554823592	0.24167325424585456	0.44483630223680554	-0.8921476088829514	0.07869757414760298
119														9.497965623220118	2.343997504033959	0.8150521924882739	0.18364800919859509	0.1759486507637844	0.9671170978799808	-0.8770242564784028	-0.415021106793672	0.24204531489838876	0.4439615549413005	-0.8926362939126771	0.07809343457643075
120														9.534799654081352	2.3571632684157153	0.7710794872238881	0.18432143636147907	0.1754202392433496	0.9670849744264705	-0.8773363981501258	-0.41418550934457776	0.24234522551504262	0.4430648401516479	-0.8931282682307053	0.07755929285789023
121														9.482473861744804	2.4059442544474776	0.7896673881305227	0.18490997104873308	0.1748507531940846	0.9670757554164089	-0.8776575706237766	-0.4133822403044565	0.24255373039316308	0.44218264476743924	-0.893611961372681	0.0770205891833004
122														9.441437082229335	2.396598958782858	0.7430708566305358	0.18548823943851667	0.17431780812464281	0.9670612259834528	-0.878016538696579	-0.4124958954315082	0.24276345282483508	0.44122677933833204	-0.894125515810156	0.07654078110356843
123														9.45619489485592	2.342684960022198	0.7537370128016594	0.18607277227946772	0.17377228500558495	0.9670471117686931	-0.8783039487479716	-0.4117519481838043	0.24298663909886536	0.44040787575831775	-0.8945744944557605	0.07600905761333093
124														9.47354022185688	2.358794635417599	0.7851346886628682	0.18658798238430713	0.1732701658515759	0.967037938477866	-0.8786570312058037	-0.4108966175680876	0.24315795521370048	0.4394846372085795	-0.8950650363503605	0.07557667868311724
125														9.495187561322664	2.3110041110764823	0.7738598665180313	0.18706815521738318	0.1727888365790694	0.9670312938355285	-0.8789653845689683	-0.4101426758883533	0.2433163334933896	0.4386631487064878	-0.8955037707172384	0.07515077243859108
126														9.507406353163692	2.3672767611072763	0.842725298596279	0.18749915383238092	0.1723942316112002	0.9670182501997179	-0.8792941881691285	-0.40934823153594235	0.24346612904137	0.43781936682167644	-0.8959432204361946	0.07483279889384029
127														9.507327468338792	2.368636941530128	0.8397881751364817	0.18791054266684448	0.17197146583606204	0.9670136725470059	-0.879585616821307	-0.40864543047922053	0.24359403693344656	0.4370569420976319	-0.896345205312467	0.07447484325340034
128														9.498136801663716	2.4090611927873713	0.7926975894669844	0.18832855189786918	0.17162400000664346	0.9669940843468334	-0.8799163827510222	-0.40783752250060407	0.2437533889137241	0.4362104032533012	-0.8967796595944225	0.07420731925695373
129														9.47958508040068	2.3730141218989544	0.7477675209389307	0.18871485864513615	0.17129930977603924	0.9669763433491011	-0.8802203046956852	-0.40709339979677106	0.24389993653820669	0.4354295779204499	-0.8971797536236308	0.0739565572472102
130														9.443188132703973	2.3878245691793794	0.7915999719632695	0.1891531705416553	0.17100214877207381	0.9669432988491995	-0.8805451326415645	-0.4062701138816134	0.2441001105036003	0.43458180755214365	-0.8976095251733651	0.07372782963547175
131														9.501576819246647	2.350675069796879	0.7432536500483489	0.18956046911697383	0.17074293053302775	0.9669093443654098	-0.8808369614337839	-0.40551946110104126	0.24429534183119422	0.433812258840448	-0.8979982284733723	0.07352622483463606
132														9.52299726434512	2.303269223580355	0.7341558599195027	0.18994860963571197	0.17055688947863834	0.9668660057882019	-0.8811302515493468	-0.40475539425909246	0.24450470470473856	0.4330461932658509	-0.898378215602726	0.0734001105477177
133														9.516645258275902	2.3222247450456974	0.7627469109158541	0.19032064743034732	0.1704338096030506	0.9668145466974961	-0.8813343252931443	-0.40416738097893323	0.24474177251280227	0.4324671758894215	-0.898666258795122	0.07328776897550635
134														9.4633792002479	2.346452995871609	0.7791327997138351	0.1906387911258468	0.1703195787092776	0.966771996091307	-0.881525364406826	-0.4036314786400831	0.24493807657902633	0.4319373603029593	-0.8989287349724195	0.07319321153902947
135														9.469636320905627	2.3550453396639366	0.7560201681719484	0.19094375099847471	0.17020272546847715	0.9667323912012747	-0.8816737636277924	-0.4031910953366461	0.24512918057962613	0.431499546332364	-0.8991484709903796	0.07307645743073732
136														9.410530392500792	2.3955726011148673	0.8023790927934145	0.19120535984381404	0.170070778371189	0.9667039053977264	-0.8818858031265602	-0.4026439953123452	0.24526565858826455	0.4309500442172162	-0.8994185585049549	0.07299531495958725
137														9.399358110863872	2.3894347101011646	0.7437214879899725	0.19145567262414653	0.17001240007303897	0.9666646312146944	-0.8821260882679542	-0.40202418797103656	0.24541824847249322	0.4303467088489389	-0.8997068056359439	0.07300256211430523
138														9.392374831031775	2.3839542685425683	0.7662429301277046	0.19170035717065792	0.16989589710281877	0.966636621077575	-0.8824195195541196	-0.40130964826704824	0.24553280375065012	0.4296356183680765	-0.9000477489308036	0.07298825298686112
139														9.397258367078784	2.3447080420224435	0.7297498817284386	0.19186549650121754	0.1697878613441171	0.9666228392669662	-0.8827336433280826	-0.40059038235863115	0.2455782166611979	0.42891601297814685	-0.9003884870998493	0.07301798483232447
140														9.40142817697348	2.281848518151337	0.6861411697241468	0.19204534918044952	0.16965055919830513	0.9666112308585397	-0.8830698732402309	-0.3998226327653941	0.24562056368315527	0.4281427131619098	-0.9007555440252648	0.07302922068670481
141														9.463456984836778	2.2209323661521276	0.7129685759302068	0.19222259686206772	0.16956429070323398	0.9665911361966399	-0.8833526620359333	-0.39915418096391997	0.2456908917584284	0.4274792950888177	-0.9010681944988019	0.07305861436570024
142														9.516107623202124	2.199583483712816	0.6959653552149344	0.192358558496398	0.16953285798242945	0.9665696017553513	-0.8835646473161681	-0.3986421077863561	0.2457600128432364	0.4269797407210843	-0.9013007710880767	0.0731110186619981
143														9.491635990838743	2.1795837766063375	0.6835788467500529	0.19240043644240645	0.16957473909073895	0.9665539198198303	-0.8837229680984588	-0.39827460988194885	0.24578659601091152	0.4266330832366627	-0.9014553471945732	0.07322888297857352
144														9.496506577782151	2.2035795074401263	0.7729456240523518	0.19238614544062133	0.16964858215673334	0.9665438063609482	-0.8837827846028088	-0.3981371017662539	0.24579429984617818	0.4265156042657823	-0.9015021945449593	0.07333643397668621
145														9.545745536086892	2.267758779399341	0.808554965335016	0.19220889263439273	0.16974549097149738	0.9665620569250095	-0.8838698403750697	-0.3980236956172438	0.2456648998179028	0.4264151109747507	-0.9015340293200456	0.0735292262325262
146														9.635564141078618	2.2549883156547934	0.7549784512369241	0.19184372996568705	0.16993343312238257	0.9666015785110706	-0.8839153311199937	-0.3980758834356145	0.24541654067724805	0.4264852525983575	-0.9014755788895205	0.0738384045190538
147														9.772463248855898	2.2358875589807434	0.7149591297825373	0.19129977038298385	0.17030029031704896	0.9666448204844149	-0.8836738922139373	-0.39878401603098734	0.2451362086222032	0.42722927108390957	-0.9010932913278883	0.07420262969049807
148														9.580963263375363	2.3429256211256537	0.7235294633584883	0.19071332237065564	0.17138682698447888	0.9665686650241351	-0.8831032122418911	-0.4000226203956425	0.2451746718155382	0.4286690392346987	-0.9003379691582466	0.07506261448687002
149														9.332299064696793	2.4451836615173947	0.8468680917153885	0.19030534696774065	0.17257251262639772	0.9664381008638372	-0.8823478486725629	-0.40152112889515434	0.24544461084664598	0.430402310470551	-0.8994440010009368	0.07585736750664948
150														9.268754395771229	2.5101318667196395	0.8258812764393231	0.19020477742916603	0.17348408585350056	0.9662946831058823	-0.8815496163603926	-0.4030068002759109	0.24587759724346092	0.43207917855176375	-0.8986038008415879	0.0762810105798668
151														9.283715356574838	2.621705370988362	0.8119435111103571	0.19037932341524605	0.1741466131726464	0.9661411234061252	-0.8808134258242326	-0.40427368146399334	0.24643558867040427	0.4335013519053108	-0.8979063133735313	0.07642532499258034
152														9.3523070249483	2.735021563916114	0.7858395426158471	0.19072300018423333	0.17452387428030364	0.9660052559416628	-0.8803625187952677	-0.404928699374713	0.2469708159340997	0.43426555550858104	-0.8975378352631691	0.07641506114587199
153														9.340202921170265	2.732482461624148	0.7279124462342438	0.19111258655910152	0.17481919719820582	0.9658748508733752	-0.8802144096365696	-0.404953134716478	0.24745818182360285	0.4343944892915139	-0.8974693348378389	0.07648673544407539
154														9.336752887811512	2.6665295611170303	0.708201546306713	0.1914655527261227	0.175002915226178	0.9657716716603465	-0.8803737404082297	-0.40438952620689067	0.24781280897845082	0.43391591272838104	-0.8976876354035999	0.0766413069081574
155														9.267365039403485	2.5203720847829776	0.6186532039819668	0.19183678662038378	0.17492501293240587	0.9657121140121228	-0.8807644841490743	-0.40340262189448495	0.24803275612360265	0.4329579318603376	-0.8981467388457485	0.07668027608170488
156														9.350497741861286	2.3880346010524356	0.6306246990837595	0.19215812547211453	0.17457955343307963	0.9657107405109204	-0.8812394629853295	-0.40233297790803635	0.24808301788913434	0.43184750050494913	-0.8986935820460492	0.07653484106516373
157														9.474267228303553	2.242285319135458	0.6763486587430727	0.19234840667511477	0.17419090215854588	0.9657430403863839	-0.8817114703200077	-0.4013471964067692	0.24800264321687487	0.4307980658680758	-0.8992096293643759	0.07638762270621369
158														9.528617274153234	2.126647362252947	0.710661030792304	0.1923941462689865	0.17391512303836976	0.9657836312860024	-0.8821441472697558	-0.4004891497092552	0.2478510528581105	0.42989091164985566	-0.8996454695843842	0.07636643986169284
159														9.535785404493774	2.1315253797804976	0.6880244197244704	0.19227494121014316	0.17369685233419735	0.9658466495628739	-0.8824236096208957	-0.40002389567939334	0.24760746367812086	0.42937037644237414	-0.8998945973694223	0.07635963239212229
160														9.509632241469758	2.154843127685677	0.6075030172758492	0.19215309210210962	0.17347488343214112	0.9659107898837258	-0.8824786983163044	-0.4000307522518299	0.24739996821098437	0.429311700531862	-0.899934365423968	0.07622074334064644
161														9.533235620703673	2.2664733421445544	0.5673528237135196	0.19202828239018527	0.1733195700206293	0.9659634907231953	-0.8823207973448495	-0.4004682937683804	0.24725524515971825	0.42969192374889414	-0.8997696773808881	0.07602222261199792
162														9.55740048944518	2.402453593396721	0.533163830834593	0.19205758582426696	0.1731561767090517	0.9659869679218551	-0.8819387356707327	-0.40129359516019714	0.24728023982298764	0.430462484138705	-0.8994333710458537	0.07564166046715079
163														9.556362455689758	2.5834936432763422	0.6092752688492259	0.19219648206513518	0.1731182833723386	0.9659661341082312	-0.8814327702493787	-0.4022848233630927	0.24747361964910863	0.43143572384805184	-0.8989977646545849	0.07527440025511656
164														9.520940008249822	2.646062441988212	0.6657400016029522	0.1925194039844112	0.17325506165674803	0.9658773020936998	-0.8807555412051404	-0.40348619719757767	0.2479285487947654	0.4326730355891478	-0.8984328423879855	0.07491643339560478
165														9.462078503286959	2.736897308214771	0.7233653040277197	0.19300981727574823	0.17351546086927588	0.9657326727798461	-0.8800673390687757	-0.40458459526702256	0.24858154391873977	0.43385330370943015	-0.8978884619550151	0.0746164911294453
166														9.385090592113396	2.8156116910829225	0.7453276411637821	0.1937128658148194	0.17384015157580052	0.9655334936282183	-0.8794107080553246	-0.40548319353384393	0.24943974486682768	0.43487024751693765	-0.8974201811089932	0.07432957932653367
167														9.412782685356353	2.828695961174748	0.7261923207034515	0.19458983912021977	0.1741817876397418	0.9652955502672695	-0.8787761663738571	-0.4062346180896928	0.2504513615031633	0.4357605350699323	-0.8970140132239547	0.07401767461506042
168														9.444276483352594	2.755749256326284	0.6572953706808313	0.19548174182368644	0.1746174279396377	0.9650366016236497	-0.8783027811026323	-0.40661801070717785	0.2514876101837197	0.4363153828607912	-0.8967555671576745	0.07388057559845088
169														9.375440508300512	2.685551471428793	0.5875179443566335	0.1961992259052615	0.17506696725322918	0.9648095256219923	-0.8779503479628692	-0.40683981174761163	0.25235798796361814	0.4367024733912711	-0.8965673006271897	0.07387844868445301
170														9.270390196318434	2.6024709537184134	0.5574860221387856	0.19675233894444022	0.17532792709534567	0.9646494882082002	-0.8778755841844958	-0.4066275412441168	0.2529594856780335	0.4366039118155303	-0.8966126034593838	0.07391118660367646
171														9.214287678730692	2.558805275747032	0.5526354268639361	0.197262639624884	0.17514995403111694	0.9645775990614345	-0.8779486016054463	-0.4062490559645424	0.2533139503994203	0.4362266657911516	-0.8968189327455215	0.07363489608819443
172														9.32155594340161	2.5374091849854645	0.7073742679096876	0.19771226944349457	0.17486043865042739	0.96453806845893	-0.8781178830863896	-0.40573376680461093	0.2535529409776584	0.43568204222274454	-0.8971086542161557	0.07332953439847356
173														9.354288710152149	2.4975115108434602	0.7556167502073804	0.19800438505717288	0.17456176057117911	0.9645322468660238	-0.8783716182064139	-0.405131058095026	0.2536377852297442	0.43503742807668394	-0.8974391441836567	0.0731123700841998
174														9.401351372781347	2.492648511746523	0.7665047104539733	0.19810715329345352	0.17426736954989708	0.964564378216469	-0.8786285716843245	-0.4046221755602265	0.25356010740034185	0.43447139012129193	-0.8977258929957789	0.07295774263916988
175														9.417503150661597	2.435238544594534	0.7798750375194115	0.19805532885193916	0.17394670660979666	0.9646328990724686	-0.8789034867782106	-0.4041661105076025	0.253334593070627	0.43393864502076096	-0.8979934845959416	0.0728351150255443
176														9.448542641415246	2.436342343217489	0.7622965511370625	0.19787153818833064	0.17353684322683482	0.9647444316594156	-0.8792078541296634	-0.4037432028369844	0.2529525160966896	0.4334055878870233	-0.8982629849914769	0.07268566696746404
177														9.417177799916718	2.4975664925443133	0.7179821038177027	0.19768524202184562	0.1731112506556552	0.9648590777845227	-0.8796075592711174	-0.4031266729759232	0.25254589129200167	0.4326789650073976	-0.8986219340923071	0.07257777075888464
178														9.447800613621467	2.474507987549891	0.6935457651756648	0.19751644988115796	0.17264636225082114	0.964976935282861	-0.8800020466973839	-0.4025198670215453	0.2521391569379365	0.431953295895239	-0.8989833092190957	0.07242485699484921
179														9.495917867898916	2.4654418841484973	0.7045715417399084	0.1973477699239053	0.1721667031320125	0.9650971371000512	-0.8804150153771573	-0.4018764174635093	0.2517235503188673	0.4311881937211424	-0.8993630920931484	0.07226873581397325
180														9.500670750373109	2.438443039420124	0.7772367784810885	0.1971243636867157	0.1717096270491042	0.9652242170707102	-0.8808801827946521	-0.40114566987875355	0.2512613282962322	0.4303395041136339	-0.8997766142305457	0.07218002274208579
181														9.51680703405405	2.354459510691868	0.7839107415799285	0.19686851476961603	0.17127791227490163	0.9653531295122818	-0.8813296687026518	-0.4004563176572077	0.25078427525046953	0.42953556657962466	-0.9001658816102621	0.07211506519403693
182														9.51801822805268	2.3496922705864827	0.7835092933150319	0.19661571164340297	0.17085662704206062	0.9654792980332458	-0.8817819864895029	-0.3997542910099291	0.2503138732107667	0.4287222763486697	-0.9005578936497974	0.07206032158862308
183														9.522786986279193	2.322179610529036	0.856665559491401	0.19634174149319056	0.17044213937029618	0.9656083044766639	-0.8821520277212138	-0.3992328283397935	0.24984184750189398	0.4280861134570611	-0.9008677072149303	0.07196981007716141
184														9.537839155678137	2.354670227243105	0.8184931795972893	0.1960871685090223	0.1701196036038895	0.9657169061457767	-0.8824775568700318	-0.3987692195009936	0.24943229782702409	0.42753150055500605	-0.9011339689792106	0.07193320502355594
185														9.538698374905815	2.351037104809077	0.8189237430361026	0.19581578030346036	0.1699765559144122	0.9657971581153169	-0.8827082535547985	-0.3984673583338466	0.249098180339969	0.42717949305928166	-0.9012944772836018	0.07201351211886964
186														9.498930635453148	2.360227955286485	0.7856889386665281	0.1955455044835514	0.1699968402501199	0.9658483472995381	-0.882853831237655	-0.3983019396124924	0.24884669491460243	0.42700242194309407	-0.9013637663040945	0.07219620799481208
187														9.45232563694685	2.3634055457624443	0.7752337077608821	0.19530892139764455	0.17002429620388937	0.965891383087592	-0.8829000924585844	-0.39832582925068083	0.248644244832615	0.42701504886726493	-0.9013480307029746	0.07231787876284679
188														9.446482838519179	2.3789068795543162	0.8068519034234332	0.19517903883518128	0.1701978755788664	0.9658870668705608	-0.8828874652724834	-0.39837835940974775	0.24860492034295473	0.4271005343758116	-0.901292053611058	0.07251046568225594
189														9.459533566459076	2.3926846522790988	0.7642658048183075	0.1951092491078698	0.17047943128482118	0.9658515126153542	-0.882812931728918	-0.39850102286210154	0.24867300285727045	0.42728644781312264	-0.9011846083276519	0.07275021119268898
190														9.436910829276092	2.4431248398732284	0.7754842678493575	0.19509504189152843	0.17086819592758762	0.9657856823590804	-0.8826865671962033	-0.3986750148362118	0.2488426342826503	0.4275539132328522	-0.9010340127685513	0.07304354258575413
191														9.430198808440295	2.4615045599727696	0.8083092782883672	0.19511056252186648	0.17130093455456158	0.9657058859783006	-0.8825711426249361	-0.3987981988994934	0.24905456181374164	0.4277850471885566	-0.9008973228816111	0.07337552062255151
192														9.46623389621149	2.4743942754898067	0.772813522488121	0.19509405356219467	0.1717262813281794	0.9656336751407685	-0.8824538735472687	-0.3989442968435123	0.24923605091851642	0.42803442773460787	-0.9007516485231827	0.07370886213119954
193														9.454580182980873	2.469284782524542	0.7185859756985884	0.19504051411800477	0.1722824253928108	0.9655454229363604	-0.8822739667800203	-0.399208134039848	0.24945042244636567	0.4284295104154615	-0.9005285290412477	0.07413853915457672
194														9.424822929469032	2.513722453885365	0.7546111697061224	0.19492255891394333	0.17291845461292715	0.9654555422600868	-0.8821666415614711	-0.39933329683439966	0.2496295947108933	0.42870410838082235	-0.9003511126741872	0.07470382429138317
195														9.429870218125872	2.4991397778719713	0.7309319890947413	0.1948138701036778	0.17358666127280242	0.9653575643477337	-0.882076149679501	-0.3994094513952696	0.24982745306054044	0.428939648647469	-0.9001887364126988	0.07530615282893399
196														9.381319747399377	2.482850827253289	0.7175164183715036	0.19468779468152264	0.17422515414974377	0.965267972256173	-0.8820505003304635	-0.3993664577835567	0.24998669417429809	0.42904962121976614	-0.9000844560700474	0.0759236094522816
197														9.409385259916466	2.441810772201439	0.6931364535970332	0.1945184271042042	0.17485754209438975	0.9651877648880633	-0.8819723470604369	-0.39945853822914656	0.2501152839323061	0.42928703746748637	-0.8999209499775759	0.07651747025252986
198														9.455605870644435	2.4374957039935956	0.7119841412530742	0.1942834409195907	0.17545983568677181	0.965125790063251	-0.8819496404097356	-0.3994776670502457	0.2501647963028188	0.4294400730784001	-0.8997952209191065	0.07713484326524739
199														9.501218551326929	2.4097044347369034	0.7237446318354853	0.19403154613537105	0.17611131838314398	0.9650578027463788	-0.8818322051482026	-0.399691453124378	0.25023729590686883	0.42979497561951097	-0.8995729797168623	0.07774788161454887
200														9.483233637678772	2.3964260865133475	0.6947081641494062	0.19371924120652834	0.17684006947083397	0.9649872773337058	-0.8817375322847502	-0.3998699446938797	0.2502857396874891	0.43012995681162103	-0.8993506641794762	0.07846402419688203
201														9.452272839784369	2.392979416591045	0.7180284029604261	0.1934350162703115	0.17759956274295718	0.964904808669754	-0.8815697110924836	-0.4001776206819775	0.25038513611959134	0.43060160121023605	-0.8990641062898806	0.0791580306498273
202														9.466953977614818	2.4774257143630067	0.70164422068619	0.19316308691289796	0.17831232953584447	0.9648278266041982	-0.8814070128651981	-0.4004793565192589	0.25047547319841323	0.4310564922679264	-0.898788628175402	0.07980790898307244
203														9.421715441779085	2.5768773164442846	0.7243347832343803	0.19294864202757922	0.17905630744487583	0.9647329476616417	-0.8812101940071198	-0.4008122588170026	0.2506354467347894	0.43155464951457584	-0.8984922770654289	0.08045006237495023
204														9.398133163192224	2.6037173753222556	0.731423809964412	0.19274328167856736	0.179641972447316	0.9646651175941913	-0.8811891591818171	-0.40081493579125865	0.25070511160942105	0.43168934792072344	-0.8983741698100451	0.08104417258442204
205														9.396970476529681	2.580840570593534	0.7300576960449416	0.19254002193712416	0.18008447942363104	0.9646232011636315	-0.8812839036259973	-0.4006126854360159	0.25069534793742754	0.43158663227928634	-0.898375788041098	0.08157157776677243
206														9.41134150621534	2.501483480541769	0.7430769346838935	0.192321533955909	0.18053215571238368	0.9645831059741231	-0.8814717431275788	-0.40022343251783155	0.2506566778110511	0.4313003520106081	-0.8984594285873375	0.08216240951944567
207														9.438975088804959	2.411963895445969	0.7043761351459511	0.19205323783454303	0.1809316092893729	0.9645617173603901	-0.8817867507087513	-0.399608284698755	0.25053012807768305	0.43077567260903893	-0.8986528648816936	0.08279703091387772
208														9.435221068312224	2.2715392627730915	0.6671205279895727	0.1918264263820661	0.18135864045252914	0.9645266536880643	-0.8820124545514691	-0.399149248340292	0.2504673782460934	0.430414512020189	-0.8987707833939582	0.08339320571744657
209														9.421028162104694	2.2577835591803606	0.7177061976835407	0.19164758664610276	0.18183428796792545	0.9644726508574117	-0.882100906695998	-0.3989379945464927	0.25049244881497207	0.4303129011996078	-0.8987684730932772	0.08394068640865682
210														9.442849827598549	2.2089551758254022	0.7144999439909909	0.19152107373493765	0.1822172387039545	0.964425505798412	-0.8821211652980558	-0.3988648454441569	0.2505375915945729	0.4303276984445886	-0.89872337957122	0.08434665946834144
211														9.459928185023973	2.24706200640043	0.7619349737333904	0.1914598843939272	0.18264614651471256	0.9643565200853831	-0.8820421782535349	-0.39895150123561585	0.2506776724074316	0.43051679229691275	-0.8985978437683759	0.08471839661609668
212														9.497780281976567	2.3056317625837597	0.7420079936610415	0.19131785291633185	0.18302943681930695	0.964312036849635	-0.8819786779578583	-0.3990614059370196	0.25072615722990954	0.43070998454086573	-0.8984710454706797	0.08508048934762041
213														9.497453828025941	2.3057163971005505	0.7459133724510122	0.19106182986240922	0.18340792677909995	0.9642908843104449	-0.881842482662317	-0.3993857169302084	0.2506888208199644	0.43110232305287866	-0.898249732260876	0.08542953559323413
214														9.498345767683146	2.351772096515191	0.7647329442422699	0.19074304192586378	0.18383638108180372	0.9642724080609246	-0.8817531839167929	-0.39963289275782055	0.25060900558163296	0.4314260244925738	-0.8980521900294895	0.08587112072036213
215														9.467843153428507	2.3466646420011434	0.7850599732526529	0.19041834689986098	0.18421441427461088	0.964264436105255	-0.8816526950759112	-0.3999192636130342	0.25050570423962426	0.4317746847944028	-0.8978472209483469	0.08626116974643741
216														9.444330253919588	2.348314551158708	0.7827991641042763	0.1901027349868702	0.18460761491183592	0.9642515121414512	-0.8815600495633424	-0.40018007322454574	0.2504152311818805	0.4321027993017279	-0.8976502311649903	0.08666737174421635
217														9.475719064520824	2.3981985509434685	0.7852300011151738	0.18980721412377266	0.18492741257550283	0.9642484501126786	-0.881477158597772	-0.4004284896646255	0.25030989500078854	0.4324017117646174	-0.8974736078253429	0.08700507410485969
218														9.467907038887198	2.4834533630342386	0.7589990570681733	0.18955384174727147	0.18525027077963557	0.964236318676559	-0.8813721009654312	-0.4006990707276028	0.2502468268686302	0.4327268892946601	-0.8972862374371446	0.0873203721204836
219														9.470186607387959	2.459745874382388	0.8360476308413254	0.18927466251735858	0.18558017815787403	0.9642277218602628	-0.8812744803358961	-0.4009659346982317	0.2501631657943876	0.433047794634307	-0.8970988332878745	0.08765438309575835
220														9.468259079841811	2.505266042289271	0.7734877774538608	0.18902820897041228	0.18597115692042193	0.9642007389579819	-0.8812535272187036	-0.40104031937909546	0.25011773826921463	0.43319805744951395	-0.8969846102503618	0.08807980469991222
221														9.453361596992643	2.468093416046596	0.8155327709562364	0.18879421534022905	0.1863536285692205	0.9641727383478296	-0.8812832887783761	-0.40100515636295964	0.25006924938961894	0.43323955171941125	-0.8969209495208611	0.0885228848183357
222														9.49917261597047	2.439477826009053	0.8264057603644803	0.18857276374527804	0.18680487601859175	0.9641287523298673	-0.8813300633101272	-0.40091019158537533	0.2500566691547043	0.4332408478886024	-0.8968695315254369	0.08903601036720282
223														9.498727899066443	2.4393314743636356	0.8319312795465282	0.18832288154440002	0.1872502519137959	0.9640911966432608	-0.8814447919905302	-0.4006913222750707	0.25000308583340985	0.43311611717827553	-0.8968744658042598	0.0895914149276531
224														9.520064283590251	2.366391259877971	0.8230309427280992	0.1880046190780203	0.18778918888352303	0.9640484861996292	-0.8815431223883803	-0.4005188442608546	0.2499327484778543	0.4330542536161878	-0.8968388238309143	0.09024487517033133
225														9.495765880508314	2.344949308202121	0.8160062626238918	0.18762826354233936	0.18835510317884085	0.9640114054442379	-0.8816658604483643	-0.40031999400031903	0.24981835986058004	0.4329676029911847	-0.8968089303246667	0.09095491877845358
226														9.47928087296744	2.3529503068385047	0.7936909765019606	0.1871650640229341	0.18884665640224696	0.9640052796406164	-0.8817085396987115	-0.4003527590475314	0.24961514246013822	0.4330811584814754	-0.8966909214934213	0.09157565986452007
227														9.462976196330963	2.3604076805445637	0.7712924116650229	0.1866862665123467	0.18940615719931259	0.9639883534102841	-0.8817340127642741	-0.40041174415116443	0.24943048306178173	0.4332359272155212	-0.89654656474765	0.09225447744633297
228														9.501945381266495	2.323047334233262	0.8066651157330819	0.18615414662094742	0.18996132158695683	0.9639820174654524	-0.8817638024380565	-0.40049124930772556	0.24919742361813746	0.4334042344114869	-0.8963935829360193	0.09294791049463674
229														9.424647298199623	2.3220270147330546	0.8163755054716874	0.18560672880512596	0.1905975306269041	0.9639619927887133	-0.8817389283090717	-0.4006707094832219	0.24899687722255015	0.43368952549794254	-0.896178310316166	0.09369008267811207
230														9.44878801004975	2.3642690378297933	0.8452447166190202	0.18507119055106003	0.19125563669058027	0.9639346118187136	-0.8817020332038079	-0.4008625961200766	0.24881861601605254	0.43399329381026697	-0.8959522646134408	0.0944423658204421
231														9.495120995498379	2.357507592815979	0.8664790653295636	0.18453527548836995	0.19194814484007344	0.9638997052561465	-0.8816863094342553	-0.4010017177243979	0.2486501038372707	0.43425336366761125	-0.8957418892038805	0.09523908897521488
232														9.471894595233747	2.3821502271937454	0.8750840008211891	0.1839959985727347	0.1927090465293102	0.9638509718286259	-0.8815826725667466	-0.40130580161667107	0.24852695028683236	0.4346923785153068	-0.895442280090998	0.0960502945656076
233														9.480666111810343	2.3885519338670917	0.9419540774908167	0.18352334792416092	0.193540918447068	0.9637743997707002	-0.8814455094997118	-0.4016245133917935	0.2484986197659847	0.4351700754297125	-0.8951199155026501	0.0968882981635441
234														9.46379492031546	2.397878475434861	0.9212666445122271	0.18306892522070556	0.1944248851256682	0.9636829004721452	-0.8812454894537454	-0.4020484452985673	0.2485225039114844	0.43576617116977373	-0.8947379569890146	0.09773347628709336
235														9.492318887404302	2.3563564576788933	0.8996763356483591	0.18273509155385825	0.19532107007218819	0.9635650294093588	-0.8810135881589425	-0.4024696352204413	0.24866292486985325	0.4363747744704184	-0.8943533263265588	0.0985351911476875
236														9.443902171611947	2.3404073242990804	0.8872895937430578	0.18244404430793282	0.19637707493582396	0.9634055299489492	-0.8806656427818877	-0.40306303718916614	0.24893415530097573	0.4371981202156871	-0.8938547043516053	0.09940609231015407
237														9.464629691477523	2.294350668941229	0.8884929445696748	0.1822431648154566	0.19748061555996715	0.9632179583853817	-0.8802535069565085	-0.40372519638573756	0.24931852978482355	0.4381109361438204	-0.8933125837473435	0.10025684689751257
238														9.462273220781565	2.2754063440792076	0.8901927895010572	0.1820810933125418	0.1987352906085466	0.9629905294055836	-0.8796784651478553	-0.40465597090192396	0.24983863425926506	0.4393316212307316	-0.8926129225370636	0.10114295381596891
239														9.460907189519766	2.3278520158543112	0.9134358000692183	0.1820040800502738	0.20005460738194986	0.9627318779963132	-0.8789727676331593	-0.4057845686952444	0.25049103290960184	0.440773625123326	-0.8918054932966432	0.10198810480430243
240														9.397375552356253	2.3502625321406763	0.9596364977691945	0.18204283719595604	0.20145878847144427	0.9624316921076865	-0.8780811526275274	-0.40719758737803413	0.2513237239773065	0.4425312359890088	-0.890844813298661	0.10276976108230543
241														9.426259659236003	2.4331181070154004	0.9731703653102171	0.18217865102233782	0.20282183988908814	0.9621196601128605	-0.877150320342075	-0.4086386289651791	0.25223359498935466	0.44431774062654344	-0.8898751441530794	0.10346000765058877
242														9.361212598757792	2.411387399099089	1.0038966834719716	0.18241091964147543	0.20431234108810586	0.961760221507757	-0.876091954939008	-0.4102387433366329	0.25331217885591006	0.4463061089506837	-0.8887973001447962	0.10416437187744565
243														9.280749705446185	2.446648143704828	1.018681843685411	0.1827521565438946	0.2058156677475635	0.9613748281436229	-0.8748742926531927	-0.4120800870683445	0.25452892546098016	0.44854946364156023	-0.8875978327775311	0.10475431215705827
244														9.284063491464332	2.4420128786222657	0.9952439239295288	0.1832145261872301	0.20732601423717756	0.960962205924101	-0.8736239881219263	-0.4139032161362637	0.2558617889603635	0.45079215251813	-0.886397231207647	0.10529189776753006
245														9.249344417888148	2.4753595567821156	1.0222617229901452	0.18389386516239198	0.20888983097282032	0.9604936672731279	-0.8722619453441854	-0.4157991367389309	0.2574299450171574	0.4531469353973531	-0.8851418623041767	0.1057437399408625
246														9.221994028619775	2.4723914622990737	1.0930524277657234	0.18479949707517063	0.21045597723191367	0.9599778265814914	-0.870782282932459	-0.4177838274265413	0.25921977021779175	0.45561756069284554	-0.8838353665633606	0.10605509511622269
247														9.209142506578598	2.4608109522758084	1.1107012482793925	0.1859136796753621	0.21186016888897108	0.9594536844204125	-0.8692352035405985	-0.4198099804217962	0.2611316550401086	0.45811162901120733	-0.8825388655331778	0.10610789880169241
248														9.273401307659686	2.4266753124733755	1.11881169450571	0.18717157793479078	0.2131473784216969	0.9589238736653489	-0.8675642623853477	-0.42200562524971486	0.2631416023538744	0.46075921156843713	-0.8811807120730428	0.10593158936444291
249														9.252404389376647	2.408417268741776	1.0744390185035333	0.1885614798640482	0.214455655687394	0.9583597132888937	-0.8658031685048573	-0.4242705315613818	0.26529114092930584	0.46349697056014344	-0.8797745664613822	0.10567530690401192
250														9.216502165386034	2.425031325395264	1.0870488155156404	0.18995652182966477	0.2156585524568415	0.9578141304901471	-0.8639812941373326	-0.42664763677534345	0.2674100174166912	0.4663183925121939	-0.8783297688147857	0.10528045411475528
251														9.187774975271298	2.4443004858413393	0.9947402130534815	0.19140080576703994	0.21671815427051683	0.9572872991747606	-0.8621375514476592	-0.42905029316516213	0.26950823423176273	0.4691317234376312	-0.8768974213352827	0.10472028705064271
252														9.214459361324332	2.5649465614958187	1.080122411257102	0.19270017452486166	0.21749648018667656	0.9568500007025628	-0.8603159872567225	-0.43153866263736984	0.27134993038444105	0.4719354244052659	-0.8754825319534119	0.10395812347221633
253														9.171728299812152	2.5913041458598514	1.0359253846234515	0.19384317332036471	0.2181034707689633	0.9564808937953876	-0.8586732759711233	-0.4338019115665653	0.27293974912828883	0.4744523467010259	-0.8742120895753651	0.10319008261535462
254														9.146029013500268	2.6106889234043904	1.1018927288113203	0.19479864235522593	0.21844531219166274	0.956208729576366	-0.8572145067352448	-0.43588184650080997	0.2742085070410749	0.47669358961413744	-0.8730914393535945	0.10234529861335606
255														9.167197026408168	2.596239419318046	1.0953388997663085	0.19553516704882756	0.21863381670743776	0.9560152993750284	-0.8559465598594285	-0.4377573507051388	0.27517992035834904	0.47866636095718734	-0.8721053583687902	0.10154190658268675
256														9.089358826748526	2.584047773108852	1.1634433980676246	0.19605144326313867	0.21861814032605265	0.955913144754699	-0.8549559765451012	-0.4392924188419437	0.27581234366468443	0.48022297921304447	-0.8713370642113027	0.10078497292441613
257														9.150760458583564	2.526413361570039	1.1078473985517583	0.19638644596737803	0.21842038492862054	0.9558895853015323	-0.8541573154505644	-0.4406209899054243	0.2761673835141452	0.4815056015277362	-0.870715612988763	0.10003337940415519
258														9.189382352651714	2.491628528372428	1.0513863362568097	0.19654807093775212	0.21813147510993125	0.9559223375238253	-0.8534756998964483	-0.4418508752548429	0.27630966997699713	0.48264695740977825	-0.8701646186802212	0.09932497621539646
259														9.197753609790722	2.450591497634055	1.0106359072801012	0.19648308150745358	0.21777191588250006	0.9560176731285883	-0.8528109782131901	-0.4431851270908338	0.2762252315856448	0.4838469118640698	-0.8695759517019468	0.09863990116203589
260														9.214440774510074	2.4421349660257086	1.0345171362784178	0.19631266793241015	0.21741672488667457	0.9561335179507152	-0.8521038961734773	-0.44464459976739085	0.2760618228290107	0.4851600627991123	-0.8689195288617054	0.09797227070713715
261														9.230732788435782	2.551197890816449	1.087647774856552	0.1960944771927619	0.2169100768243118	0.9562933517423244	-0.8514349055391162	-0.44609954811832336	0.2757785249039974	0.48642117310422917	-0.8683001852704508	0.09720715310720035
262														9.286005201726304	2.621579166362122	1.089868104066578	0.19580567108747016	0.21628196496437935	0.95649477301297	-0.8507546599347756	-0.44764105281578004	0.27537973134064353	0.4877259966100336	-0.8676632984430813	0.09635223280040012
263														9.310859060292579	2.7108548273986868	1.112296102614048	0.19554354146364455	0.21557236196170598	0.9567085659437291	-0.8501652273245588	-0.4490261659124658	0.27494470093844564	0.4888576578514819	-0.8671240159770697	0.09546795941970027
264														9.374242579830847	2.785484699090165	1.0906073740397495	0.19524323662995813	0.2148266559725719	0.9569376084332248	-0.8496231422496946	-0.45035318598007557	0.27444949267825275	0.48991896748749486	-0.8666207450558965	0.09459328482904719
265														9.407090900718863	2.8323443755509983	1.0783219379440563	0.1950146642715631	0.21409585004371467	0.9571479758705596	-0.8491500070751585	-0.45151425679197243	0.27400573241786635	0.49082944716399013	-0.866197346398413	0.09374759137727154
266														9.447226844690261	2.908700492666509	1.049455760890285	0.19477436806957843	0.2134131849752417	0.9573493395943925	-0.8486732956242664	-0.45267094176332595	0.27357385799332157	0.4917484955110111	-0.8657619944082939	0.0929493743971968
267														9.434355898371324	2.917565611937594	1.0928777505924714	0.194550258956612	0.21280916250724613	0.9575293505124951	-0.8481804055965201	-0.4538226546230283	0.2731940660282199	0.4926867121224591	-0.86530760917946	0.09220924679276452
268														9.428626342232803	3.0037314553822174	1.131550133378568	0.19439531493295542	0.21224716731393517	0.9576855441632852	-0.8477936551927052	-0.45473902343282213	0.27287055316093745	0.49341299106033865	-0.8649644851290565	0.0915426661088507
269														9.35302837698557	2.9534395871025603	1.1147698448848762	0.194332689273659	0.2117019413489032	0.9578189254283787	-0.8475112878348803	-0.4554202087308536	0.27261153767221485	0.49392248670427136	-0.8647396842452948	0.09091675103751523
270														9.376443131435792	2.9917545235051453	1.046961177034054	0.19434941519890692	0.21124995547134207	0.9579153204355799	-0.847265842024111	-0.45596997303601894	0.27245545806371213	0.49433682621368397	-0.8645604894990802	0.09036737379217086
271														9.292681570757303	2.9614540173728887	1.0600251314334015	0.19445199433651267	0.2108603696632036	0.9579803371698455	-0.8471688340514403	-0.4561993863621363	0.2723730649215049	0.494462727119524	-0.8645345709619184	0.08992545302202115
272														9.293092035717303	2.961569118697008	1.0560975324940163	0.19464047068024115	0.2105948840509912	0.9580004603260498	-0.847061973123501	-0.45636800099886016	0.272422945715711	0.4945716337008169	-0.86451029055521	0.08955923549612871
273														9.30792896767886	2.9258857661215587	0.9961042645344041	0.19495097277431694	0.21036532882596914	0.9579877591296715	-0.8470259423567569	-0.45634188336358333	0.2725786830675243	0.4945110425349424	-0.8645799638646039	0.08922059680861119
274														9.338185052224961	2.9317318671050567	0.9780024885083356	0.195331451159733	0.21029764437793186	0.9579251144828211	-0.8469818887725802	-0.45624877940319764	0.27287127255232474	0.49443635007861797	-0.8646455644147983	0.08899855986896152
275														9.4377077257635	2.933916592209032	0.9824006470265646	0.19584283666974045	0.21034803699186616	0.957809629654462	-0.8469727902733817	-0.4559952918093455	0.27332286107135584	0.4942496088634479	-0.8647670190180579	0.0888556523635411
276														9.53810610236576	2.824455098118221	1.039647697304607	0.19644586916521922	0.210443511174359	0.9576651549954867	-0.8470039774034019	-0.4556119017866614	0.27386503466700446	0.49395676202552335	-0.864945850070945	0.08874341493492016
277														9.62984532999568	2.728349162572033	1.044547927861582	0.19713904886901013	0.2104940700824171	0.9575115883743446	-0.8471631005801139	-0.4549708251976342	0.27443802439616716	0.49340741423949996	-0.8652709371515502	0.08863029332213801
278														9.667821144004424	2.5595266706904187	1.040607400354398	0.19790814562240394	0.21058222048742975	0.9573335334724699	-0.8473531025378809	-0.4542246478959415	0.2750866933590854	0.4927728538746111	-0.8656414371195451	0.08854274010826457
279														9.643071594767829	2.4261887666177877	0.9985665250759884	0.19878325309224182	0.21082206197260056	0.9570994078337353	-0.847472346284328	-0.45350321089234097	0.2759084268261358	0.49221523805485934	-0.8659612554242586	0.0885170239594632
280														9.580030302368513	2.3091543044065133	1.0003382346698944	0.19976912430741695	0.21120219625405007	0.9568102890703643	-0.8473188987483629	-0.4531623155160504	0.2769378984898849	0.4920802584917525	-0.8660470819150641	0.08842777340345445
281														9.500095682235928	2.3199331733529416	1.001259455464163	0.20079874308550294	0.21187837931694053	0.9564451981965871	-0.84688383360353	-0.4532059344342574	0.2781944524510871	0.4924100295041427	-0.8658590724659518	0.08843319214034376
282														9.36516334204717	2.4015892593793184	1.0282421741916912	0.20188688948618905	0.21276352744184862	0.9560195422919411	-0.8460985851152296	-0.4537694019018548	0.279661427736538	0.49331416776694864	-0.8653467578307174	0.08840882643869963
283														9.251115166546308	2.5253668874546373	0.9931274555303202	0.2030856264104805	0.2138967829703292	0.9555126344431076	-0.8450901992052718	-0.4545865711397573	0.2813780456016309	0.49454907092487577	-0.8646381992338434	0.08844207637205223
284														9.237887551752605	2.655629134834178	1.0446202998001217	0.2042843596894155	0.2150824797704594	0.9549907995798048	-0.8439562724334966	-0.4555968026807523	0.2831419495716467	0.49598962751900655	-0.8638119472911132	0.08844890678064743
285														9.230789744460662	2.7385645991147274	0.9814790027523479	0.20550900145095502	0.21635857313079387	0.9544396356791972	-0.8428142896198924	-0.45656880757342566	0.28497192346527206	0.49742348510614975	-0.8629796589629373	0.08852109737833569
286														9.22365830584348	2.8753126357904373	1.0107504146853448	0.20675498970152428	0.21766448202365035	0.9538734441732298	-0.84178019465098	-0.45732196973648664	0.2868147832481784	0.49865667360106813	-0.8622521610652636	0.08867205090332497
287														9.248880487456175	2.8733413657684124	0.9917991334245014	0.2079675683992388	0.21896928982458336	0.9533110408506902	-0.8409389010435806	-0.4577494078102299	0.2885952951123759	0.4995710712258301	-0.8616948008216726	0.08894276266889334
288														9.298874353168616	2.7980763459410136	0.9642030089492388	0.20915446412895666	0.22018903416763325	0.9527702762824068	-0.8402442582007464	-0.4579548541868767	0.2902876815976763	0.5002439371902536	-0.8612747185184304	0.08922926955541108
289														9.248467911647147	2.745325609291953	0.9366414084584835	0.21023877383714512	0.22142937501723464	0.9522440285215392	-0.8396277725321795	-0.4580662984606732	0.2918911951518703	0.5008241822916537	-0.8608973795371975	0.08961495599442176
290														9.244972436095772	2.6895581043620003	0.9238114948990919	0.211359727270111	0.2226065154622781	0.9517212853362305	-0.8390373027683182	-0.45812665147936704	0.29348999261911474	0.5013416701727174	-0.8605616250321908	0.08994564620027554
291														9.194057185515167	2.6836628323992953	0.9072870775649843	0.21248404200687304	0.22380310689053612	0.9511901498851661	-0.8384578007142522	-0.4581540501064848	0.29509893729467096	0.501835678597926	-0.8602366161220808	0.09029903636801029
292														9.213686243233868	2.650414376506116	0.9067405717758981	0.21359481775383948	0.22493649292764384	0.9506738809802843	-0.8378097318249422	-0.45831940189887854	0.2966785787725033	0.5024461235676142	-0.8598528362414501	0.09055933369571253
293														9.231599002344497	2.688626221518884	0.9221856775315154	0.21473182015055642	0.22608928269330658	0.9501441373107844	-0.8371404457907012	-0.4584944330274085	0.2982930252356246	0.5030766536385631	-0.859457090920833	0.09081513876950181
294														9.236896319413948	2.614375908300091	0.8796658413471531	0.21584251390219866	0.22714826380030223	0.9496397608803497	-0.8363504995732531	-0.4589122686895074	0.2998622542265358	0.5039145275301651	-0.8589547112035406	0.09092278617207528
295														9.214418120438069	2.707431945379545	0.8666915412263642	0.21698643622961156	0.22816728252625695	0.949134646758275	-0.835401785985446	-0.45958773859766106	0.3014680190385284	0.5049957846009204	-0.8583232501308995	0.09088704979274814
296														9.215082696838863	2.79944452864439	0.8595603052510394	0.21810668221515123	0.2291033749866781	0.9486522643955545	-0.8343478248726769	-0.4604724790697951	0.30303267670261336	0.5062540689252112	-0.8575994050773538	0.0907197779298255
297														9.223007532669405	2.8964736681338894	0.8287123080789583	0.2191915840947315	0.2299727502405856	0.9481917441155155	-0.8332209578914517	-0.4615118394897735	0.3045482840884466	0.5076395224886395	-0.856807654119375	0.0904586040681554
298														9.200262931720998	2.9885380325384046	0.8123774356053157	0.22026952471063999	0.2307893494972707	0.94774343186454	-0.8321268427874181	-0.4625074154143839	0.3060258293009768	0.5089658672213618	-0.8560509136992576	0.09016972417765304
299														9.154328330271758	3.0804375664397172	0.7880857193411663	0.22124696022137524	0.2314851788289905	0.9473459740640229	-0.8311008265765674	-0.4634738362066247	0.30734901856954444	0.5102168153408397	-0.8553400581841271	0.08984534606214317
300														9.133630896850159	3.122680153724787	0.7597496340066132	0.22222933842086173	0.23204766448114894	0.9469783537937232	-0.8301224900164528	-0.4643938748675631	0.3086016535185354	0.5113812400879701	-0.854688370339935	0.08942604146307478
301														9.120050022966979	3.2001738278749636	0.7942136753496202	0.22311269515619675	0.2325295071407153	0.9466523932093737	-0.8293031860225967	-0.46512271492904994	0.30970483643269225	0.5123250441984161	-0.8541609265038563	0.08906267860987158
302														9.109464131665542	3.205205027385735	0.8130122661693892	0.22399537359488153	0.23290800986278798	0.9463508501342646	-0.8285684513214275	-0.4657405172546716	0.31074119788364435	0.5131280484273888	-0.8537210490137319	0.08865650787163254
303														9.137035121844624	3.219275506260315	0.7938422312304922	0.22484936031057878	0.23322579463679632	0.9460700258881254	-0.8279817616828766	-0.4661444017046521	0.31169792921983286	0.5137012434172643	-0.8534138067054263	0.08829443377761492
304														9.110070588216185	3.2523882934081643	0.7877942889796963	0.22567171499893685	0.23340861664903828	0.945829104396466	-0.8274685032199405	-0.46648573616341016	0.3125490907602078	0.5141674369584193	-0.853177282650015	0.0878656425546783
305														9.156573853535141	3.180311111436418	0.7024928120926675	0.2264912388031775	0.23363967089485033	0.9455761328045188	-0.8269582968811025	-0.4668055848429745	0.3134206776505275	0.5146277236652815	-0.8529390659030429	0.08748288913573954
306														9.11563229507324	3.210137517000529	0.8222357555066787	0.2273106869427367	0.23378404459233287	0.9453437851362178	-0.8264102200043515	-0.4672149114776346	0.31425527006767207	0.5151465809592263	-0.8526753467686258	0.08699858124718585
307														9.12047529952152	3.2234534740453293	0.7946240484407024	0.22819458703661133	0.23390136293953473	0.945101784392675	-0.8258781987004127	-0.4675691448120623	0.3151258411033252	0.5156087968203722	-0.8524489704579065	0.08647728838662433
308														9.154841932394	3.265266031089773	0.7558377310089806	0.22911296657413338	0.23389042334612364	0.9448822775428541	-0.825326186670541	-0.4679781971245284	0.3159637520538382	0.5160852004693249	-0.8522274795399684	0.08581601816379952
309														9.167504370843654	3.2913491958801466	0.784791661419866	0.23000458832586435	0.23386225085014734	0.9446726083550601	-0.8248600555477448	-0.468264227177971	0.31675621905053297	0.5164337112455202	-0.8520780839645629	0.08520070842697494
310														9.2274342491407	3.2843103565564506	0.7430965044997936	0.2308064817067892	0.2338621779537003	0.9444770244558018	-0.8243851902664816	-0.4686033818840504	0.3174900448142078	0.5168340411306422	-0.8518916317288148	0.08463581817993437
311														9.172671116190571	3.263271470121511	0.7405512771432607	0.23163761274264982	0.23385673255120276	0.9442748778842749	-0.82389292955004	-0.4689553119102109	0.3182473190282213	0.5172469980583163	-0.8516994446820267	0.08404521954274469
312														9.13206667627076	3.2836727405613346	0.7777994005850668	0.2323800786984252	0.23371878766663234	0.9441265949626425	-0.8234483683276738	-0.4693212600537493	0.31885786733284954	0.5176217573891244	-0.85153572042117	0.08339444300547605
313														9.1527201851665	3.3127849680944745	0.7839935393497279	0.2330878839511592	0.23353877001489115	0.9439966532012197	-0.823055521167132	-0.46963467092800787	0.31941021420524973	0.5179282261389823	-0.851412308322046	0.08274922239062879
314														9.196834809129681	3.3409509489105234	0.7977439791247937	0.23375408162619266	0.23334345693061198	0.9438802150859863	-0.8227617895760403	-0.4698127870603825	0.31990464630603344	0.5180946505579148	-0.8513675917147824	0.08216542363454818
315														9.135829883400074	3.3121636104473837	0.8186373433648122	0.2343674367595544	0.23316088899394216	0.9437732272269171	-0.8225449159507537	-0.4698892291489306	0.3203497675563235	0.5181619108254899	-0.851375423754631	0.08165856964396745
316														9.131520884278512	3.2075893326443072	0.7357841981128644	0.23496581790205895	0.23291504743175517	0.9436851408692837	-0.8223346703971344	-0.4699842294329601	0.3207499243135426	0.5182246175940053	-0.8513902775837707	0.0811038898905409
317														9.108427757611825	3.1879796992749276	0.7181965431644415	0.2355718858654373	0.23269863570218824	0.943587426544113	-0.8220753225335604	-0.4701452322157741	0.3211784935298726	0.5183609270297521	-0.8513605614351162	0.08054280701428204
318														9.116994489467533	3.149120341512633	0.679913365742214	0.2361021551512794	0.23248223817596414	0.943508230629503	-0.8217422613314977	-0.47046924150122144	0.32155613622361734	0.5186476918629036	-0.8512406837868826	0.07996167826729847
319														9.171890578800378	3.141502691060855	0.7415466059349729	0.23661982148122052	0.23230711544449767	0.9434216788881058	-0.8213151395051371	-0.4709400052655653	0.3219579989068859	0.5190881444435544	-0.8510281520339535	0.07936361095503058
320														9.159536753481182	3.2036311181640817	0.6931730842282215	0.23707964960034877	0.23217702223773196	0.9433382585744071	-0.820809655096526	-0.47155529104506033	0.32234626969724645	0.5196775441037426	-0.8507228913296195	0.07877697837613781
321														9.142199206069849	3.244676575933366	0.7430987456769576	0.23749869263577145	0.23200172030852706	0.9432759791122554	-0.8203260078221212	-0.47217203063011914	0.32267447122642323	0.5202495669262217	-0.8504285832828732	0.07817680505472757
322														9.116991764444363	3.272235911009425	0.734580119292673	0.237960237879015	0.2317799593732121	0.9432141727208697	-0.8197376044846694	-0.4729508957335978	0.3230289615785604	0.5209656274480093	-0.8500561750012405	0.07745524101029078
323														9.115222255099978	3.2992919480572107	0.7324791154397109	0.2383791965176118	0.23151146463163041	0.9431743213275766	-0.819175768654879	-0.47372480798869665	0.32332006795861024	0.5216573767486717	-0.8496983276670548	0.07672244289322727
324														9.05189351747833	3.307947320894692	0.6802799765101707	0.23884278271542714	0.2311013522479174	0.9431576168032232	-0.8185690574604351	-0.47459405480278355	0.32358180003545867	0.5223971892277812	-0.8493248189797804	0.07581905137811501
325														9.081902108546284	3.347526548698986	0.7411227497971934	0.23931173501614406	0.23064418651454932	0.9431506521816146	-0.8179768399350013	-0.47545149938331804	0.32382056924183245	0.5231097234935635	-0.8489694523133308	0.07488047960110106
326														9.093357519040522	3.2921614640878856	0.7751004471586853	0.23983628511048688	0.2302224925979514	0.9431204378266796	-0.8173450495651617	-0.47632858898312314	0.3241267426002835	0.5238564939902194	-0.8485921748515793	0.07393033534985549
327														9.122065508045266	3.3241175296213537	0.7552172675836948	0.24035629416315496	0.2298771652296931	0.9430722881954046	-0.8166504274978266	-0.4772819992919137	0.32447491801298217	0.5247008015276637	-0.8481499761586242	0.07301155263623149
328														9.122452258230048	3.3044141868090686	0.7417912361610428	0.24095074212887224	0.2296637302929369	0.9429725928442878	-0.8158874206237197	-0.4782569348607635	0.3249584913886098	0.5256143612340891	-0.8476584661557511	0.07214338513654517
329														9.097905257914249	3.309876628314091	0.7258537004454763	0.24163758995512974	0.2294462243552271	0.9428497787292566	-0.8150439907701776	-0.47930885248919386	0.3255246796095737	0.5266066541832718	-0.847123045404045	0.0711897304059862
330														9.209526078081344	3.3539614027368745	0.6803849909055506	0.2424698570220517	0.22924229617892172	0.942685704823363	-0.8140767521686103	-0.4804709647970048	0.3262310432280194	0.5277190635312621	-0.8465197113060337	0.07012109779543424
331														9.298603843937267	3.4083936537688615	0.7080525475895835	0.24331726665738962	0.229149799461757	0.942489828673505	-0.8131379343720797	-0.4815365696591464	0.3270003543820843	0.5287753846686544	-0.8459390648785159	0.0691642326710703
332														9.31845309664241	3.440092673784315	0.7113290667744621	0.2441234740018529	0.2292330299835314	0.942261082400115	-0.8122717838409326	-0.4824440749215174	0.3278143739206544	0.5297341584390571	-0.8453992740342818	0.06842359859853409
333														9.277435286047055	3.4292505028834883	0.6630399529434602	0.2448805513131233	0.22942248584700198	0.9420184916318592	-0.8114994441365389	-0.48318886050450577	0.32862923979835695	0.5305677786623209	-0.8449223917450286	0.06785266518856176
334														9.282035157911803	3.4414279095187625	0.6342779056609358	0.24553634133191354	0.22954718852073497	0.9418173885247418	-0.8107409956432305	-0.4839874530687475	0.32932534560135246	0.5314235063193586	-0.8444313077534804	0.06726680769135357
335														9.340687243682359	3.490605269212491	0.6820722542690375	0.24607447429821105	0.22962521206390574	0.9416579076731981	-0.8100925932782337	-0.4846904832438569	0.3298865346881907	0.5321628918053243	-0.8440067520093917	0.06674772766133574
336														9.324054865057343	3.4762559784488656	0.6431891813556381	0.24646588938342512	0.2296409526916331	0.9415516970497779	-0.8096849919553751	-0.48511356615577095	0.33026510825979627	0.5326018955774208	-0.843759361890883	0.06637288639820249
337														9.273483235450858	3.4026857635399144	0.6352530368450022	0.24671403931412356	0.22958708462399824	0.9414998424743166	-0.8094791438298776	-0.48532058930188293	0.3304654918506958	0.532799867220102	-0.8436549627504879	0.06611055374685337
338														9.180962909496584	3.3802139980113517	0.6001705438753366	0.24684058764733813	0.22945617747193559	0.9414985857184728	-0.8093404919000272	-0.4855157204968586	0.33051846139276125	0.5329518669269662	-0.843578299727052	0.06586318978517086
339														9.20025403038201	3.327464905351943	0.6190929543810348	0.24689181225045403	0.22927557380124164	0.9415291521253065	-0.8093522616222538	-0.48553202279405006	0.33046568876127136	0.5329102641633298	-0.8436180214407645	0.06569082317752306
340														9.156513750053428	3.278832406651056	0.5945931211843752	0.2468956481463807	0.22908607248242907	0.9415742723338155	-0.8094088758745006	-0.4855067590189683	0.33036413032058304	0.5328224944406498	-0.8436840394018801	0.06555479445907036
341														9.136167995705808	3.2300148340904076	0.5775587862756884	0.24686349090462162	0.22893317711699884	0.9416198900158711	-0.8094639569964195	-0.48549103272686056	0.33025226640479766	0.5327537134380979	-0.8437345895226317	0.06546314429504535
342														9.092428408219833	3.181230083318804	0.5535339565664037	0.24682155155377622	0.22878920914720768	0.9416658746425839	-0.8094351437051923	-0.4856104352157531	0.33014732066839825	0.5328169196108001	-0.8437049264922913	0.06533090531361063
343														9.154837585232807	3.1992199542129285	0.6009505235693601	0.2467883795756991	0.228618866048939	0.9417159390139355	-0.8094623824733183	-0.4856454242535113	0.33002904911878067	0.5327909037014616	-0.8437309618522508	0.06520672469044558
344														9.148539743313126	3.1929903399047834	0.6229642312628352	0.24669591930033397	0.22841471530307206	0.9417897011719647	-0.8095499503053656	-0.48562955960201576	0.3298375491076347	0.5327006676935389	-0.8437953831787466	0.06511029077718072
345														9.179555777799468	3.1956559009915315	0.6063352608920631	0.24657071720900664	0.22819057790276004	0.9418768186824859	-0.809655863157299	-0.4856096764690343	0.3296067738603817	0.5325976574019501	-0.8438674672459201	0.06501871310561869
346														9.202593775785774	3.216933024195159	0.6173411684493575	0.24638837059112345	0.2279170106264285	0.9419907680569719	-0.8098398754929099	-0.485514805318884	0.3292943210530576	0.532402241636039	-0.8439959775279018	0.06495108172803676
347														9.209377281161142	3.2422770153555827	0.5986212456771269	0.24614776862273136	0.2276263824036986	0.9421239334800148	-0.8100694614849715	-0.48538555781361936	0.32891994137694025	0.5321642073378278	-0.8441487370717121	0.06491660903601415
348														9.18741295568097	3.2383443328290884	0.5914499531912714	0.24585102649427898	0.22728500434672022	0.9422838211339619	-0.8103400171735722	-0.48523959326677835	0.32846855815043496	0.5318893957758921	-0.8443246199924543	0.06488148222531287
349														9.219307214765523	3.238394565526993	0.5753675101926159	0.24552424845294302	0.22690949507132807	0.9424595081318308	-0.8106267546728428	-0.48509577716338637	0.3279730958277291	0.5316033371134836	-0.8445082403533579	0.0648361314783874
350														9.198894356708255	3.2097001025513685	0.5634285712735885	0.2452096258432493	0.22649722710590298	0.942640570688081	-0.8109145402536375	-0.4849556151388076	0.3274685629958589	0.5313095592957516	-0.8446993888115926	0.06475410984853724
351														9.171602017526643	3.176278456646241	0.574035508018652	0.24491200046892375	0.2260738253544629	0.9428195678473751	-0.8111482566529942	-0.48489518627171313	0.32697884344301276	0.5310900279191085	-0.8448474914563704	0.0646227392235893
352														9.172119208068402	3.195423851849301	0.5773590225942167	0.2446280091014143	0.22561004384193578	0.9430043718248173	-0.8113533603801495	-0.4848861186303382	0.32648304176395593	0.5309075830715906	-0.8449766624453279	0.06443274136521565
353														9.212551720030522	3.2096707625455334	0.6171715777207838	0.24439002630649947	0.2251669907581782	0.943171957447217	-0.8115823589395699	-0.48480588117949297	0.3260327165053511	0.5306671175982094	-0.8451408662741862	0.0642598354598447
354														9.22676305646902	3.2386585773764565	0.5740152658814639	0.24415646284288384	0.22468358584650577	0.9433477131488726	-0.8117758269707316	-0.4847931644396012	0.32556964609530636	0.5304786785517743	-0.8452768031620139	0.06402731946731499
355														9.194593495715537	3.301504272324082	0.6022154874725739	0.24389560440946823	0.22426744364607637	0.9435142012021831	-0.8119689947551261	-0.484772175400523	0.32511888520015914	0.5303030131029711	-0.8453993444981478	0.06386440805340327
356														9.217338715530245	3.344727177278571	0.6170958963803265	0.24366001585931119	0.2237803588594653	0.9436907055069312	-0.8122618826666388	-0.48460211516491825	0.32464045333959085	0.5299626690987658	-0.8456258871193671	0.06369009652446556
357														9.164337503708799	3.359566490934029	0.6293429882995498	0.2434489283846869	0.22323981715272195	0.9438731923865449	-0.8126465390016488	-0.48428958014995516	0.32414380328308373	0.5294697554317809	-0.8459477446011663	0.06351528546114393
358														9.17423535085048	3.335438369879206	0.6005006246544449	0.2432421549210973	0.22265492867358505	0.9440646359263237	-0.8131442836623637	-0.48380774330569565	0.32361464964471565	0.528800177776599	-0.846377486854897	0.06336814443098654
359														9.173787536637287	3.22993224332562	0.6039252689536226	0.24307685511094962	0.2221132535712499	0.9442347934160049	-0.8136804967824031	-0.48322488490927784	0.3231373697986021	0.5280508419322079	-0.8468526514054321	0.06326843717271252
360														9.16338860704338	3.13455505393586	0.5547150264398952	0.24292899099899679	0.2215515821805985	0.9444047870301606	-0.8142864710650608	-0.48252518521463683	0.32265614618970234	0.5271840744679408	-0.8473985733212288	0.06318709963692459
361														9.19933453567559	3.0956385961399984	0.6091884507124319	0.242714979184533	0.22100527308082646	0.9445877980102865	-0.8148603332752398	-0.4819058174335737	0.3221326130311008	0.5263953610491049	-0.8478935383608894	0.06312267003093242
362														9.195253316694144	3.0620494341092535	0.6270070659545567	0.24253140933942507	0.22049599056078661	0.944753954016838	-0.815424826787889	-0.48127000472362913	0.32165437104329736	0.5256052390737497	-0.8483871172406707	0.06307481239203994
363														9.250516675818355	3.061539644769879	0.6174325424654462	0.2423522755748877	0.21997460932259477	0.944921449527444	-0.8160017607736794	-0.480613595609941	0.3211723807072139	0.5247918643976192	-0.848894423923409	0.06302186996444153
364														9.243469567314179	3.0427633354420935	0.5591493634196042	0.24213665528119244	0.2194249836357406	0.9451045004261125	-0.8164994796565129	-0.4801129680009641	0.32065579314577913	0.5241168189343675	-0.8493198540678064	0.06290743673334148
365														9.288818481715523	3.108952357499519	0.5861504872443655	0.24193901376936483	0.21889434992713558	0.9452781480528807	-0.8169425877431642	-0.4796828874104997	0.32017047936533477	0.52351726041059	-0.8496997064231002	0.06277011196969429
366														9.287403750145717	3.1194328538107357	0.5091917974486323	0.2417324052148902	0.21841253634088714	0.9454424404680409	-0.8172788504834754	-0.47941341797152565	0.3197155848895528	0.5230876836835615	-0.849975728264049	0.06261418801331214
367														9.316319746430866	3.0760666872304645	0.5855468299693619	0.2415463157691941	0.2180137153013621	0.9455820415378172	-0.817502400515294	-0.4792870371722261	0.3193333072988191	0.5228242558356121	-0.8501493727217393	0.06245671757923732
368														9.282096036046548	3.1879722311106407	0.6243807500159517	0.24141964113630987	0.21770968483299735	0.9456844346839662	-0.8176145590067239	-0.47927679540307905	0.3190614146028881	0.5227073653334687	-0.8502330542375265	0.06229577600505204
369														9.277158755811877	3.156975096707288	0.6411938467904267	0.24137516014211058	0.21745599995759124	0.9457541541800463	-0.8177306533057557	-0.47919788689765397	0.3188823667702018	0.5225462761426138	-0.8503424447099341	0.062153970220895305
370														9.299113834432195	3.2030247699438097	0.6565287962917515	0.24137969339629212	0.2172492168873129	0.9458005188081477	-0.8178127157151557	-0.4791315430095901	0.3187715898693789	0.5224157402208649	-0.8504326794374136	0.06201654710145693
371														9.258493007123997	3.231425592135132	0.6239999680061293	0.2413457180396658	0.2170597390075903	0.945852691535989	-0.8179488759495577	-0.478992318248711	0.31863144131045923	0.522218230931067	-0.8505594798488125	0.06194102455194356
372														9.226657319972125	3.216875291854043	0.5593933763827332	0.24135163215906325	0.21685146525933918	0.9458989542594037	-0.8182005887065009	-0.478649027042407	0.31850102912187295	0.5218210289883795	-0.8508058244548132	0.061905272629026176
373														9.229097556050615	3.1678376767452305	0.5495688530544437	0.24140381880117606	0.21658789616468122	0.9459460235675007	-0.8185409887762398	-0.47815367292866384	0.31837040496573227	0.5212627417736903	-0.8511514250118988	0.06185794806481565
374														9.202357603819499	3.090252295228978	0.5509068556375267	0.2414325075294258	0.21631858360904033	0.9460003248907645	-0.8188930172431003	-0.47765326990408485	0.3182162473231474	0.5206962364167276	-0.8515008068905829	0.061820750934788116
375														9.22830926058185	3.040541391763917	0.5475697526271462	0.2414582402732287	0.21602060301060366	0.9460618464345183	-0.819192718163222	-0.4772488961489161	0.31805153927153434	0.520212657201367	-0.8518031405199065	0.061726826323056594
376														9.284643294452044	3.051647062804409	0.6185066192508962	0.24142213749138047	0.21581997231789757	0.9461168485328831	-0.8194541592186857	-0.47690789382403787	0.3178895118551676	0.5198174991939858	-0.8520449520753126	0.06171845084485128
377														9.292778735113195	3.0314730639034364	0.5910730220493091	0.24137424534307578	0.21573741542495423	0.9461478960875097	-0.819620296040789	-0.4766896027567473	0.31778859787856356	0.5195777554929287	-0.8521880016811871	0.06176217116937521
378														9.284459314720177	3.0729531597295745	0.6241681860124144	0.24128700957842425	0.21557740707458184	0.9462066162142923	-0.8197683832849391	-0.4765484366567825	0.3176183012459661	0.5193846135332642	-0.8523074381225215	0.061738595270101004
379														9.306383477759956	3.1189271320018803	0.6409363432727869	0.241223210140395	0.21548659917044072	0.9462435672000742	-0.819844416236013	-0.4764892692137128	0.31751080216397937	0.5192942287915345	-0.852363479920474	0.061725213986390914
380														9.312582604902984	3.146487626009711	0.6233273420826013	0.2411087387940219	0.21538327433586396	0.946296265032003	-0.8199824653721093	-0.4763603311874598	0.31734774515230446	0.5191293986661076	-0.8524616589661592	0.0617558696257281
381														9.296344240920906	3.1505042634545513	0.5942174567232759	0.24101290702135753	0.21534137160221034	0.9463302131526777	-0.8200746911049206	-0.4762756876002193	0.3172364581981499	0.5190282069967708	-0.8525195382379316	0.06180742078666773
382														9.251802409775822	3.102312599943926	0.5715335084717318	0.2408919696883745	0.21529094547514288	0.9463724783276795	-0.8201974398651783	-0.4761575196327152	0.3170964776465161	0.5188903724085294	-0.8525982789647415	0.061878559518610265
383														9.237680735499795	3.1148719806079006	0.6234353672553918	0.24077838230878346	0.2152646130886381	0.9464073736845909	-0.8203771814313449	-0.47593345605252335	0.31696786208804195	0.5186588963852142	-0.8527300227866382	0.062003688912610766
384														9.222302998927939	3.0952046167401353	0.5901198891978137	0.24066005053031503	0.21523466419935733	0.9464442822510665	-0.8205518634982069	-0.4757213675967634	0.3168340570732346	0.518437440187692	-0.8528559196833045	0.06212407643400575
385														9.200267459743753	3.0702232961033675	0.5796626925268528	0.24050774378897521	0.21514389019161373	0.9465036353288643	-0.8207806533524608	-0.4754591091659919	0.31663504953398525	0.5181458716035905	-0.8530250535736336	0.062234345146834014
386														9.22318491433091	3.092103361910132	0.5925896224841534	0.2404204594900451	0.21507935840793935	0.9465404757565443	-0.8209682494827419	-0.4752198251050643	0.3165079006412873	0.5178891155448611	-0.8531746523508196	0.062320755661498806
387														9.23031705470193	3.095824915270089	0.5708440842193442	0.2403060786584516	0.21502040843853654	0.9465829137031389	-0.821168584118662	-0.4749723993826668	0.3163595680254124	0.5176245212664784	-0.8533272782347923	0.06242924958744478
388														9.271821010273772	3.064372810803215	0.6036870465009334	0.24016574739794333	0.2149551159984272	0.946633356629107	-0.821371230573776	-0.4747373510013537	0.3161862570541899	0.5173680656578139	-0.8534745137790115	0.062542297424797
389														9.247907531752684	3.0870291787321613	0.6032886159143634	0.2400131579180247	0.2149028700876865	0.946683917923132	-0.8215964263355333	-0.4744672464156605	0.3160065573867422	0.517081227911918	-0.8536378555961625	0.06268504793240037
390														9.258401419205445	3.0743276507101647	0.6574125342808778	0.2398076597650538	0.21480870185377465	0.9467573648648868	-0.8218302954209137	-0.474225674499973	0.31576094624481255	0.5168048488998356	-0.853795778423003	0.0628133497011279
391														9.273617570491949	3.0580776862349945	0.6079983888673427	0.2395844205261729	0.21471009350281312	0.9468362483498146	-0.822029412379813	-0.4740524840155317	0.31550259520518065	0.5165916672030609	-0.8539167512976413	0.06292242231227807
392														9.256975578481303	3.084405203535476	0.584543076082301	0.2392810011402628	0.21452494295951918	0.9469549362781358	-0.8222901717671695	-0.47385002788990416	0.3151269973897122	0.5163172241059097	-0.8540756406296528	0.0630184431306875
393														9.251332302569047	3.075650721930019	0.6088713421773289	0.23895463503580522	0.21436359168081853	0.9470738793550398	-0.8225972254226138	-0.4735751564337616	0.31473858348755984	0.5159791537668189	-0.8542685887766432	0.0631719170806136
394														9.245783760111655	3.066557233041099	0.6332935940501658	0.23860181494725913	0.21414205151052634	0.9472129410426869	-0.8229176184479612	-0.4733120935548062	0.31429644500487425	0.5156314256829285	-0.8544699198155716	0.06328814247993925
395														9.268390511026823	3.0535636603728404	0.5610362419613127	0.23824292220914112	0.2139006996142609	0.9473577997366037	-0.8233064149669302	-0.47294473581064783	0.3138308843044249	0.5151765300278633	-0.8547337407482674	0.06343008225537633
396														9.232869153922023	3.0391789910736384	0.60135132027481	0.23785389845213317	0.2136147012332662	0.9475200696598166	-0.8236631411723684	-0.47266097256612294	0.31332193489590343	0.514785929163947	-0.8549622005854224	0.06352230084735999
397														9.24116074612246	3.0395300624570094	0.5793548198474272	0.23748359292107324	0.2133144263010212	0.9476805889249624	-0.8239684745265721	-0.4724561416598708	0.3128276637291232	0.5144681681889087	-0.8551503667424425	0.06356378041474964
398														9.241670629561916	3.059046738969406	0.5852402021932506	0.23716924053479976	0.21306489814203422	0.9478154358966049	-0.8242813818217261	-0.47219052354117486	0.3124040861768253	0.5141118116968453	-0.8553592570713406	0.06363636080223134
399														9.252648136521511	3.044614277869384	0.638887228880358	0.2369336050296682	0.2128818477434949	0.9479154950252476	-0.82457895715446	-0.4718846967346928	0.31208072097723366	0.5137431364268609	-0.8555735806398665	0.06373254965376307
400														9.23088776411552	3.018716545169585	0.6277060192061377	0.2367991826497977	0.21268863899630858	0.9479924524690506	-0.824799513009675	-0.47165453028791227	0.31184574295297235	0.5134509815312365	-0.8557485301774033	0.06373807860159397
401														9.261673567416299	3.0214884589407904	0.6117249130581991	0.23675660692286815	0.2125364774444149	0.9480372117347979	-0.8249310422130745	-0.47150864537847104	0.31171841929313343	0.5132592762645609	-0.8558667204003663	0.06369515083191213
402														9.237722480338427	3.044957918280851	0.6100164834515959	0.23673735368033977	0.21242827490468374	0.9480662705704966	-0.8250491638586019	-0.4713577578329796	0.3116339861871426	0.513078261660589	-0.8559766890235307	0.06367578236395655
403														9.289801199117944	3.0961650817615656	0.6112812038429667	0.236750521084366	0.2124234767200569	0.9480640575955004	-0.8251221675037718	-0.47123030017177314	0.3116334592015081	0.5129547733086792	-0.8560480539889007	0.0637113004235309
404														9.30836740400905	3.1594688937729933	0.5536157570633292	0.2367650573170223	0.2124548564675739	0.948053395963018	-0.8251915362305335	-0.47109622529491196	0.3116524908393619	0.5128364614252385	-0.856114058099871	0.06377682460433215
405														9.293819465340798	3.1732510636896865	0.6053541367627012	0.2367868217025042	0.21247499249276458	0.9480434476505947	-0.8252672240896305	-0.4709512868055731	0.31167113164290705	0.5127046029746777	-0.8561888010371161	0.06383358886357282
406														9.286882278120892	3.168387557938535	0.6290149928349374	0.23683905032368702	0.2124764435207967	0.9480300761001877	-0.825378640151168	-0.47073601856638264	0.31170130125887996	0.5125010874368784	-0.8563068152087919	0.06388484642693609
407														9.287548058600589	3.1449039670175734	0.6247312594837247	0.23688749350198368	0.2124869044796549	0.9480156279550471	-0.8254935331519762	-0.47051393780530704	0.3117323548417961	0.5122936093165866	-0.8564262663858451	0.06394769814298934
408														9.247292591561255	3.151647872717186	0.5891589224429238	0.2369484473708076	0.21245618646723552	0.9480072795713984	-0.825671262268714	-0.4701932753448662	0.31174548991774664	0.5119789057687364	-0.8566099769745078	0.064007401100039
409														9.240283690014273	3.1469768389593855	0.6128399525470697	0.23709830348079314	0.21243802140855528	0.9479738823124553	-0.825866395878895	-0.4697900933105219	0.3118364385143218	0.511594654628579	-0.8568356641079493	0.06405898897231882
410														9.215648264333705	3.1723089835160625	0.6119823927760342	0.23724311309329477	0.21241117624074668	0.9479436678926787	-0.8260671794782483	-0.4693826385138259	0.3119181842256893	0.5112032084001958	-0.8570655930964806	0.06410810285388602
411														9.231048459922045	3.191271154062765	0.6479102140161577	0.23738487391925095	0.21243833255483907	0.9479020922519693	-0.8263053919367038	-0.46889581976695405	0.31201940558466296	0.5107522108524559	-0.85732529711096	0.06423016458746389
412														9.231451640909263	3.168493004414038	0.6440127521739755	0.23754209540465288	0.21243930637213682	0.9478624868718526	-0.826545110702797	-0.46840593587136503	0.31212026402297627	0.5102910276342987	-0.8575928056767947	0.0643245424961218
413														9.244526598895122	3.1801003536367047	0.5994712019015898	0.23771636926572043	0.21243071478198777	0.9478207210228828	-0.8268188222691224	-0.467851920145134	0.3122262256089528	0.5097661845636932	-0.8578972970197103	0.06442565359893393
414														9.214756922608004	3.1526626599833483	0.611514306592326	0.23786632365138782	0.2124069838445789	0.9477884179956104	-0.8270956996829563	-0.46731025543531934	0.31230406454437587	0.5092468121044396	-0.858198344428038	0.06452353045548798
415														9.23281552548567	3.09985683810946	0.6321329795466657	0.23799447602353085	0.21239561737323798	0.9477587937354767	-0.8274113178410183	-0.46671048596390174	0.31236490423850066	0.5086739038823144	-0.8585274742324671	0.06466402011278127
416														9.226609132862443	3.0713252784912486	0.6514562856263231	0.23811728755369793	0.2123705917031533	0.9477335538787901	-0.8277741634282358	-0.46603743019020316	0.3124084634295225	0.5080256801863006	-0.8588992056355411	0.06482332010845016
417														9.226309143632824	3.0718470593479417	0.6532423599121268	0.23825019653347512	0.21235299552285591	0.9477040936622728	-0.8281442057967371	-0.46534292242017483	0.31246302014597244	0.5073598508524809	-0.8592800299354808	0.06499086010376531
418														9.22781855047948	3.0246902357607395	0.643868543316081	0.23840791389990384	0.21223921732180312	0.9476899182857882	-0.8284715221691117	-0.4647374917578843	0.31249640111429283	0.5067510271767494	-0.8596357242374344	0.06503705151750422
419														9.257775657079337	3.0299774048355093	0.6285092817776015	0.23860357425253392	0.21216148418453323	0.9476580812627156	-0.8287776925573715	-0.46413379275626765	0.3125817632891612	0.5061579503210383	-0.8599810038892128	0.06509072342897437
420														9.204815535004844	3.0025980719863656	0.6330214647626331	0.23873945308472072	0.21203206126009883	0.9476528259539999	-0.8290658078069746	-0.46361041069617337	0.3125944232060036	0.5056217557287038	-0.8602951773036502	0.06510643625559454
421														9.233136563199446	3.0552178377091708	0.6278842157612378	0.23887794298615384	0.21191617503177118	0.9476438482439529	-0.8292838879836842	-0.4631996002557869	0.31262495654304984	0.5051985367015313	-0.8605449814407049	0.06509050185586707
422														9.232970812391702	3.055688363626667	0.6280318746346374	0.23904001439960504	0.21180603859466152	0.9476276027695023	-0.8295216287370925	-0.46273958320623154	0.31267546368636745	0.5047313532694382	-0.8608195398275763	0.0650844134785103
423														9.22517071481887	3.074627979672589	0.6562302586297014	0.23922674999839122	0.21168313717527715	0.9476079418835828	-0.8297262109941821	-0.46232587091099653	0.31274463045051015	0.5043064315219912	-0.861072028649184	0.06503833180159102
424														9.236527113073093	3.1340685435411415	0.6212802361376704	0.23949400535631504	0.2115920321582016	0.947560780808045	-0.829969534602579	-0.4617894466479619	0.3128914805426115	0.5037789128476574	-0.8613822141719272	0.06501913624695976
425														9.259456086840856	3.134998416538365	0.6278216279269656	0.2398059768532877	0.21147140465501568	0.9475088065441266	-0.8301662555698777	-0.4613164103090327	0.3130673373136788	0.5033061509444614	-0.8616652566935856	0.06492999174994701
426														9.252131377724739	3.13145245399388	0.6501005059111351	0.24016508600392839	0.21135163929534406	0.9474445714826262	-0.8303874228038546	-0.4607737260813002	0.31327990903077085	0.5027697877895	-0.8619849522586379	0.06484198150716458
427														9.22204824362342	3.1053711634809043	0.6602527614811714	0.24061003190460234	0.2112686704619514	0.9473501788821841	-0.8306154211859814	-0.4601573947014095	0.3135812401749287	0.502180081877907	-0.8623344600460143	0.06476453027891127
428														9.170700706349777	3.127037474820957	0.5711563626118438	0.24114563135347877	0.21118058668417766	0.9472336270883015	-0.8309045950223779	-0.45938458437846164	0.31394801736295025	0.5014442525843041	-0.8627679661665444	0.06469233422140519
429														9.172153287682349	3.0596703322424106	0.5539608121275222	0.2418135783268074	0.2110382154053615	0.9470950664929605	-0.8312243507381086	-0.4584993805495139	0.314395287457878	0.5005919217054893	-0.8632735312021516	0.06454872770994813
430														9.157392404465059	3.0531175531578616	0.598007450628203	0.24257588840218086	0.21080847608539716	0.9469512789877025	-0.8315783793385492	-0.4575270739486474	0.3148751746655508	0.49963420357554067	-0.8638453351234477	0.06431873446278041
431														9.228190933017876	3.0086208813662387	0.6047888134604905	0.24342275235539823	0.210545570541385	0.9467924410139347	-0.8319414673578382	-0.45649796452041286	0.31540926314743334	0.4986168454095884	-0.8644536836141786	0.06403959993369729
432														9.245377751641337	2.9601630259746057	0.6206335662670571	0.24427031315554637	0.2103002533579259	0.9466286587403125	-0.8322856587482159	-0.4554916085619187	0.31595565633760025	0.4976269650581038	-0.865044043946473	0.06376680703777471
433														9.229777743051109	2.9007613718775596	0.5719733691027377	0.24512264468574196	0.21011708531296136	0.9464489946752828	-0.8325783263076697	-0.4545477866498108	0.3165432675235371	0.49671744445407495	-0.8655848428151591	0.06351897561885927
434														9.220541198115697	2.9247710554875477	0.5970849434413887	0.24602538207504315	0.2098362478415059	0.9462770527000155	-0.8327319287052546	-0.45384669583786874	0.3171446225176717	0.49601315132731777	-0.8660207421123629	0.06307953663032351
435														9.29416328135225	2.9815996655971886	0.6010562212338344	0.24681369106853718	0.20950418617558858	0.9461453365503787	-0.8328372425160349	-0.45331202769531	0.3176323866123446	0.49544437566634275	-0.8663810948547245	0.06259927394880083
436														9.336915542161574	3.0563708948032793	0.6268909258620626	0.2475211874250403	0.20921626885540467	0.9460242146065405	-0.8329236992175035	-0.4528415254671677	0.31807650666844134	0.4949458284070374	-0.8666966630019942	0.06217331649252744
437														9.29443618473797	3.090850900522226	0.5927919726097521	0.24808841012412702	0.2089647622938759	0.9459312178385632	-0.8329890891222953	-0.4524772338714081	0.3184235076612405	0.4945516334674186	-0.8669475652815131	0.06181100943331225
438														9.24457773768498	3.1425689217647754	0.5876910290031669	0.24857315547533637	0.20872586910773266	0.9458567005325151	-0.8330470330619226	-0.4521697439355298	0.31870858691915616	0.4942105088762907	-0.8671655172079313	0.061481205922938376
439														9.235334679016988	3.186916417795193	0.6186422648480169	0.24902951299963627	0.20841557416484724	0.9458050803948459	-0.8331321788403538	-0.4518548053729564	0.31893260642664345	0.49383709281086663	-0.8674042790457658	0.06111253927964977
440														9.246781408795036	3.2243299915732515	0.5755325383229895	0.24945921222354273	0.2081367540358301	0.9457532411026873	-0.8332274661573726	-0.45152667245974076	0.31914832554534617	0.4934593104580901	-0.8676420665671196	0.06078777216977044
441														9.199198207686027	3.2274924223741084	0.5599610465933422	0.24986346574817003	0.20789688117248234	0.9456992837488398	-0.8334061908409212	-0.4510530729022515	0.31935129010771673	0.49295270518817524	-0.8679458578875712	0.06056086379394754
442														9.168679710128977	3.2240990969907877	0.5742512880868502	0.2502357617597475	0.2076325974177542	0.9456589068084095	-0.833591716600343	-0.4505938939102093	0.31951524656286573	0.4924499096880949	-0.868247572562338	0.06032610701674157
443														9.19480268081945	3.1540646325741393	0.5619790833995956	0.2505711566339183	0.20743898872101535	0.9456125852702801	-0.8337183042388223	-0.4502360589676141	0.31968934981080277	0.4920649191318997	-0.8684794512040649	0.06012951185568899
444														9.210371410380924	3.172992718240929	0.5956196445519296	0.2508600873744912	0.207247892436339	0.9455778802632594	-0.8338775265173037	-0.44984695711402695	0.31982180342283545	0.49164772686533065	-0.8687266694743214	0.05997071295396478
445														9.24878420564999	3.285955995569866	0.5553696316745339	0.25112640406744585	0.20708855753482275	0.9455420976975598	-0.8340153783997013	-0.4494978811947602	0.31995312687052435	0.49127780101787477	-0.868945328625207	0.05983425513427726
446														9.224800863892066	3.28793664133199	0.5480684657962726	0.25142183958157394	0.20693917079825502	0.9454962919920672	-0.834226293756529	-0.4489981430030784	0.32010491777702027	0.49076832557395467	-0.8692392347156899	0.059746158405533045
447														9.210386195483958	3.3014065663704373	0.5989531240352384	0.2516981929332321	0.20675191601994702	0.9454637300797035	-0.8345064562514196	-0.44839903555190497	0.32021442720592574	0.49014997107910063	-0.8695929795819435	0.05967458179957863
448														9.288064444543897	3.2830280683969466	0.5895551414516096	0.25198297256135965	0.20655576517515517	0.9454307470206627	-0.8348108869332743	-0.4477535929435532	0.3203240594520177	0.4894847950619323	-0.8699720891379482	0.05960872020210689
449														9.289810303715045	3.236586540639729	0.5781034667812919	0.25223597767173167	0.2063861755105107	0.945400316334901	-0.83518371255075	-0.446995211384603	0.32041137197231423	0.4887178918946311	-0.8704022217098133	0.05962209812384128
450														9.281891413732408	3.1070837942270337	0.5953853462434548	0.25244527179130655	0.20622956324692393	0.9453786289065338	-0.8355784967703694	-0.4462179710499823	0.32046543970763536	0.4879343813313264	-0.8708380386472685	0.05967537146759638
451														9.272097836945838	3.096101550363647	0.538150501713938	0.25259916285973705	0.20608421253673292	0.9453692190174562	-0.835916081842676	-0.445571018704096	0.32048521246351314	0.48727606860931416	-0.8712036298329509	0.05971824115412422
452														9.245187261670743	3.0965548474256432	0.6357955431424623	0.2527592596348721	0.20596959387869623	0.9453514071847977	-0.8362039595709179	-0.44499766090860104	0.3205308406125583	0.48669877200045497	-0.87152372783724	0.059755310642071735
453														9.289921718832726	3.143368335707907	0.6609926647395545	0.25292708813390086	0.20588455180463106	0.9453250443187841	-0.8364450133154833	-0.44449257780460166	0.32060269489865506	0.48619710795907245	-0.8718015253512839	0.059786893274427655
454														9.242681078516375	3.1448322966653315	0.6488828524979794	0.25300166039535055	0.2058228207057326	0.9453185316674639	-0.8367111810897896	-0.44399054981273023	0.3206037914877448	0.4857000713161607	-0.8720718767129942	0.05988390910546021
455														9.244778269871272	3.097223065442211	0.6384822527947643	0.2530192791856216	0.20576196365603572	0.9453270643924259	-0.837008986671252	-0.44346536980447804	0.3205533060440061	0.48517749390501735	-0.8723534146758357	0.06001932448351133
456														9.229938749999933	3.0555839414754806	0.5988788818673024	0.25298429703300385	0.20565989076407037	0.9453586381821603	-0.8373210051119226	-0.44295991078959335	0.32043728221234824	0.48465707448986806	-0.8726342456975815	0.0601414448008723
457														9.209907338611583	2.9838122588621068	0.5760148665582752	0.252886711255135	0.2055499588910884	0.9454086553815944	-0.8376123010330417	-0.44253193578444017	0.32026726178148374	0.4842044448667269	-0.872877253805338	0.06026072817811601
458														9.20064111747018	2.971280894304548	0.51909020669982	0.25281972891118004	0.20544550365938435	0.9454492739959235	-0.8378284465050148	-0.44221840371969345	0.3201349366104852	0.48386535203532666	-0.8730607243701595	0.06032655022443467
459														9.258673829697445	2.956583572545602	0.584914128573234	0.2527535787255128	0.20542828755634923	0.945470701350979	-0.8379268457707109	-0.44208707131520747	0.3200587797775436	0.48372950042166496	-0.8731312845429424	0.06039478764097056
460														9.240609477279111	2.986348433554714	0.5625169153582575	0.2526936982573473	0.20548223272094807	0.9454749848076571	-0.8379425676715606	-0.44207701943635086	0.3200315018404672	0.48373355077461544	-0.8731236801978783	0.060472232741119625
461														9.279137834131086	3.0264555396933788	0.6109209876937973	0.2526590135751743	0.2055782707433767	0.9454633771106016	-0.8378420381657081	-0.44224710181447113	0.32005971320838517	0.4839257607748866	-0.8730149343137634	0.060504400861288554
462														9.241804631688586	3.1104547119811863	0.570664292115539	0.2525923574895783	0.20559031193077093	0.9454785690739189	-0.8378064043010307	-0.4423480004022755	0.32001355510710217	0.48402224106959685	-0.8729609786126278	0.06051115574543475
463														9.238869289572449	3.180831184976543	0.5887531559085746	0.2524930670587	0.20558376233865405	0.945506513859093	-0.8377877472267636	-0.44244445762652185	0.31992904293339447	0.4841063330343818	-0.8729136375256472	0.060521399006859766
464														9.222051067330886	3.186499364168715	0.5598741323935417	0.2523885923691975	0.2055493184388889	0.9455418954923169	-0.8378233344958183	-0.44245567186744844	0.3198203223790403	0.4840992239367912	-0.8729160647631782	0.060543251169419776
465														9.223408852389072	3.1617975051425278	0.5545648070657159	0.2522830569545682	0.2055208468361735	0.9455762479511632	-0.837902513255202	-0.44238687278442534	0.3197080434844141	0.48401718714759856	-0.872957637175916	0.06059972146774073
466														9.223735997405768	3.160671515797034	0.55554149144008	0.2521659099996685	0.20549525126838952	0.945613058042337	-0.8380305196377359	-0.44223604384145376	0.31958117854962265	0.48385659238016493	-0.8730400811151805	0.06069443777360217
467														9.235800352302432	3.1231183738015416	0.6030119457224886	0.25202688423769337	0.20548347838630993	0.9456526792283222	-0.8381921993106551	-0.44203299691381004	0.3194380482255727	0.4836489291171935	-0.8731456749876616	0.060830449728187075
468														9.268258712399644	3.0795766969038487	0.5764574551830288	0.25182720959791133	0.2054747932277154	0.945707759222773	-0.8383417025391529	-0.44188772531038084	0.31924665699702015	0.4834937913664303	-0.8732212477763274	0.06097873516292179
469														9.245212190445724	3.0784637754920183	0.5714379529810393	0.2516300955146921	0.2054742090475401	0.9457603525457999	-0.8384165775442654	-0.4418728331026224	0.3190705907237832	0.48346658367484807	-0.8732289211782618	0.061084479924293056
470														9.245721449743975	3.0766978782825145	0.5727077188773094	0.25138732761925875	0.20549297541858025	0.945820833226921	-0.8384466723867682	-0.4419600172648634	0.3188706958985067	0.4835406798564147	-0.8731803823912109	0.061191753783789105
471														9.274197603678411	3.127510483853365	0.569736355468477	0.2511248783282923	0.20555887035670645	0.9458762320210166	-0.8384424490397402	-0.4421051296779128	0.3186805829678354	0.48368435485639183	-0.873091407087569	0.06132568578503966
472														9.250234345765119	3.149814202510992	0.5707066261675513	0.25085082775001005	0.20559321254422092	0.945941485068121	-0.8384715886229678	-0.4422075535306892	0.31846173188073934	0.4837760404249182	-0.8730314487784218	0.061455936691572066
473														9.250776681488157	3.1478964345037124	0.5724944416116138	0.2506053388243397	0.20565973193747006	0.9459920923623756	-0.8385646850788029	-0.4421662594965153	0.3182738881868069	0.48374190752034874	-0.8730366966068882	0.061649763067720464
474														9.248300863015874	3.216898149934544	0.5924568808440688	0.2503430915251841	0.20568242711608242	0.9460565922296882	-0.8387122454659675	-0.4420514735636611	0.3180444371870546	0.48362186244115124	-0.8730894764546375	0.06184383779422947
475														9.297977172485322	3.1660495567787454	0.595880370175687	0.2500647199526936	0.20570464946439176	0.9461253791246237	-0.8389144678175577	-0.4418477517886461	0.31779408415781313	0.48341509235993574	-0.873187357574565	0.062078072220262404
476														9.268598955073942	3.158385216095963	0.6148061536954352	0.2497875454733583	0.20575404150780324	0.9461878547781093	-0.8391294755543417	-0.4416108332510357	0.3175556568717078	0.48318516676558976	-0.8732955664370061	0.06234539485140839
477														9.279632553106792	3.0674991446650077	0.5710682045236595	0.2494966470134506	0.20581586518652967	0.9462511573396176	-0.8393383430652748	-0.4413889164865933	0.31731210229556384	0.48297263793043677	-0.8733931841045655	0.06262409256990276
478														9.298744739273914	3.1067372010750667	0.5115134046072904	0.24917238481628384	0.20585143995596117	0.9463288579098832	-0.8395016101374979	-0.44127827296712435	0.3170339609311617	0.4828562614500458	-0.8734407080478963	0.0628582556493224
479														9.239459161030307	3.0934345374744483	0.5465928437145069	0.24882325141039013	0.20595430115771302	0.9463983386461534	-0.8395889641507288	-0.44129729486553293	0.31677605468322356	0.48288441767556306	-0.87340684871313	0.06311193062434
