// Start Time: 1748432634.6645443
// Update Rate: 100Hz 
// Filter Profile: 46.1 human
// Option Flags: AHS Disabled ICC Disabled 
// Firmware Version: 4.0.2 
PacketCounter	SampleTimeFine	Year	Month	Day	Second	UTC_Nano	UTC_Year	UTC_Month	UTC_Day	UTC_Hour	UTC_Minute	UTC_Second	UTC_Valid	Acc_X	Acc_Y	Acc_Z	Mat[1][1]	Mat[2][1]	Mat[3][1]	Mat[1][2]	Mat[2][2]	Mat[3][2]	Mat[1][3]	Mat[2][3]	Mat[3][3]
0														9.650049569327544	-0.7600438734567386	-1.3928006799827675	0.15709864159443293	-0.02572702994345827	0.987247758538591	0.2870546760527381	-0.9553109646938147	-0.07057317969335598	0.9449442469084837	0.29448103617391314	-0.14269299060744706
1														9.647628710749418	-0.7075830261884072	-1.3804533657039941	0.15699950589386658	-0.025821579944194983	0.9872610602866234	0.2872846313061981	-0.9552347181605036	-0.07066946891045335	0.9448908380148175	0.29472000140813187	-0.14255323568985434
2														9.67961920959392	-0.7160123038420738	-1.3896096324171638	0.15675995149743077	-0.025972697500239755	0.9872951618391964	0.2876060188055608	-0.9551289452207057	-0.07079177881928375	0.9448328400057543	0.2950493466966908	-0.14225606300090493
3														9.664369059208862	-0.6808925841965469	-1.3487390706323645	0.15650861190449405	-0.02608494064806266	0.9873320769989783	0.2878682555912285	-0.9550445976731043	-0.0708638404144338	0.9447946453185435	0.29531236399244487	-0.14196367792714493
4														9.636483541231547	-0.6507581147360575	-1.3397151676924477	0.15629553137911956	-0.02621302856249666	0.9873624380157979	0.28798286408818374	-0.9550043531688077	-0.07094050620198426	0.9447949919757648	0.2954311469060241	-0.141714009806038
5														9.652453742843544	-0.6874875913265065	-1.3747853438318904	0.15606267908604138	-0.026318396803448718	0.9873964665655752	0.2880214690508649	-0.9549899415819603	-0.07097777710710217	0.9448217152258243	0.2954683628867565	-0.14145802547310998
6														9.671491792141781	-0.7125495094128069	-1.3564352100974841	0.1558345241236131	-0.026479004033400727	0.9874282067252111	0.2880281587810922	-0.9549814295292378	-0.0710651039784479	0.944857333590813	0.2954815249718548	-0.14119237783947913
7														9.649155377467299	-0.7241288726979402	-1.3051787505734265	0.15562303984100478	-0.026596661880571554	0.9874583976287084	0.28813387122799716	-0.954944655715982	-0.0711307020255901	0.944859958788504	0.29558978686060156	-0.14094799105305156
8														9.652904093080558	-0.7012868355912939	-1.308423620838025	0.15550180496858812	-0.02667652194171591	0.9874753423901806	0.2882853986759405	-0.9548942175957378	-0.07119383479261567	0.9448336983627147	0.29574549257650123	-0.14079732262694988
9														9.671674550184308	-0.7265198360427022	-1.2916876256239123	0.1554534156301411	-0.02671810136811595	0.9874818371130708	0.28846570100717006	-0.9548358554934735	-0.07124625187677057	0.9447866293038679	0.2959301135797595	-0.14072523926185415
10														9.687841619157854	-0.6983846860665439	-1.2644413875491827	0.155461873059682	-0.02681641944007576	0.9874778405985569	0.2884885558178343	-0.954821406408924	-0.07134728463946335	0.9447782592687637	0.29596783864416454	-0.14070209416133844
11														9.692000991212634	-0.6635867148015444	-1.3272894420962242	0.15536376654054024	-0.026892470900112236	0.9874912126470914	0.2885014313879337	-0.954814097538788	-0.0713930194648128	0.9447904657295447	0.29598451674044773	-0.1405849981913922
12														9.65386853256399	-0.6921697092839041	-1.3624463940820355	0.155321812795221	-0.027012459505005026	0.9874945374540036	0.28842615328064714	-0.9548299481433333	-0.07148513294614381	0.9448203472479488	0.2959224512606127	-0.14051481867111165
13														9.644382855102155	-0.6867505231721862	-1.3396499929168006	0.15525849247197948	-0.027120831699370407	0.9875015245574373	0.28839328867638564	-0.9548338278904893	-0.07156585891620572	0.9448407863559593	0.2959000196078564	-0.1404245948341067
14														9.66309792077809	-0.7123561307890282	-1.3230101597736463	0.15519627667454094	-0.02726132643879972	0.9875074358136025	0.28834033220706157	-0.9548416346160356	-0.07167500001045171	0.944867169780536	0.2958619152317076	-0.14032732658447267
15														9.667315019856401	-0.6780068974490268	-1.3855856098126482	0.1550908352433707	-0.027413650480998142	0.9875197844047576	0.28825476746962564	-0.9548597571552382	-0.07177766502521	0.9449105893440635	0.295789343845827	-0.1401878818325944
16														9.63221611498717	-0.6953654706046065	-1.3668494570914302	0.1549046362722109	-0.027646128197121644	0.9875425283283159	0.2881169045520482	-0.9548902275820044	-0.07192567399568917	0.9449831760262826	0.29566931674439356	-0.1399516065044753
17														9.6420821065589	-0.7029279605604136	-1.3859518597805087	0.15472678423094116	-0.027848265337424655	0.9875647302122776	0.2879813575751585	-0.9549219484539004	-0.07204727649381097	0.9450536280712969	0.2955478751043616	-0.13973222101783173
18														9.619561673475616	-0.7150292126098786	-1.3351272494286683	0.15453629244817657	-0.02805208195033307	0.9875887884208814	0.2878698479517532	-0.9549462810667264	-0.07217029109726862	0.9451187676459543	0.29544996357265263	-0.13949850919745366
19														9.638992214391978	-0.7289215082076765	-1.3761351879714412	0.15443540246747472	-0.028233945983174885	0.9875993877878463	0.28777386948211925	-0.9549652841602976	-0.07230149439624987	0.9451644864826428	0.2953712077079652	-0.1393554561154346
20														9.66484640967918	-0.7075133269274712	-1.3696807146298398	0.15431243508647574	-0.028391228892040737	0.9876140999903159	0.2876171441473916	-0.9550055407147457	-0.07239333944938864	0.9452322734493256	0.29522593945338815	-0.13920342633600513
21														9.67710222731387	-0.7681993761465002	-1.4006722738978656	0.15423159133879566	-0.028542877737822575	0.9876223571606441	0.2874089417341966	-0.9550612731140069	-0.07248492815117827	0.945308794227755	0.2950309623214079	-0.13909714169375315
22														9.651490595393831	-0.7916734019541865	-1.4043062911479594	0.15414110899727484	-0.028668157593089105	0.9876328544845538	0.2872697142679827	-0.955097588954003	-0.0725582995848288	0.9453658708571415	0.294901224674412	-0.1389843081216371
23														9.677338365781448	-0.7700753188449975	-1.39800816900581	0.15403348294031993	-0.028788425744426277	0.9876461475024506	0.2872546169461888	-0.9550959255732566	-0.072639920129796	0.9453880003344516	0.29489489567729466	-0.1388471437484583
24														9.709279507892711	-0.7782496715590893	-1.407752418822167	0.15393722490271677	-0.028885057104935496	0.9876583337699806	0.2872825741308493	-0.9550823035071426	-0.07270843230494468	0.9453951837141984	0.29492956278327587	-0.13872454579656146
25														9.665232886781764	-0.7767254198948109	-1.4262007447296137	0.15373480408825663	-0.028967406980379834	0.987687450231488	0.2873838570921452	-0.9550492884706017	-0.07274183991788062	0.9453973390563285	0.2950283815578259	-0.13849955010967746
26														9.649840539307787	-0.7410907640050225	-1.3860445661052572	0.15352354839738097	-0.02912510162773274	0.9877156719130519	0.28752028113318284	-0.9549999419398723	-0.07285052389610219	0.9453901882421737	0.29517255859922903	-0.13824092239786362
27														9.621903276662874	-0.7109669401391202	-1.3777785224376344	0.15335980200540178	-0.02924037961730605	0.9877377037091883	0.2876495079097937	-0.9549548515411138	-0.07293142064531012	0.9453774546328668	0.29530701264603504	-0.13804070614842934
28														9.666449351996164	-0.7138820556887226	-1.3549856510738139	0.15317275472158365	-0.029369386734116376	0.9877628998569767	0.2877373416627294	-0.9549221971959093	-0.07301246137066603	0.9453810498544317	0.29539979083506335	-0.13781739422414552
29														9.643793144250594	-0.725507106070602	-1.3045422758956222	0.1530505738101417	-0.029466780863003528	0.987778938164789	0.2878214315518227	-0.9548915391443349	-0.0730819540654369	0.9453752405240186	0.2954891830442105	-0.13766552694127626
30														9.64749446070494	-0.7026278441555157	-1.308653380352874	0.1530567065036666	-0.029547271539899417	0.9877755834898929	0.28780703920879	-0.9548899373659888	-0.07315952227187128	0.945378629320613	0.29548632161527527	-0.13764839614813412
31														9.70144501450248	-0.7115503327833121	-1.3092181156655176	0.15307163411332203	-0.029590433809189964	0.987771978270725	0.2876943215365271	-0.9549216182604792	-0.0731893457712634	0.9454105204542178	0.2953796018782816	-0.13765841277856294
32														9.675765384626203	-0.7344045766727213	-1.3136248339265715	0.15301292990788756	-0.029684613200658738	0.9877782478978424	0.2875205512682569	-0.9549702715951064	-0.07323737411982115	0.9454728847933197	0.2952128115592144	-0.1375878628800598
33														9.659783934775684	-0.7638021376360136	-1.3391360621980772	0.15296042701228157	-0.029789739618620886	0.9877832146689246	0.28741265696320206	-0.9549973716432467	-0.07330746736753947	0.9455141841271196	0.2951145397433764	-0.1375148575481278
34														9.70131565650379	-0.7783677383172707	-1.3708647233790325	0.1529526407120378	-0.029868841128056572	0.9877820316390054	0.28744026205399054	-0.9549830618185768	-0.07338560751229976	0.9455070520358626	0.2951528484858023	-0.1374816736193209
35														9.622807712460578	-0.7163378654183588	-1.3686495907875182	0.15298454431681813	-0.029934539198283677	0.987775102218699	0.28757073183868354	-0.9549366984815381	-0.07347772508007659	0.9454622167965988	0.29529616532587377	-0.13748225832410071
36														9.679507458740089	-0.7140578459335819	-1.316102076901596	0.15299464982506933	-0.030013952657450577	0.9877711272206642	0.2876351299932619	-0.9549104362713359	-0.07356691303736314	0.9454409918755715	0.29537302068056914	-0.13746312063739968
37														9.683115053498984	-0.6912631737626782	-1.320973113265021	0.15297030725460614	-0.030089848174460504	0.987772588268813	0.28756231615134387	-0.9549280937370046	-0.07362234797590887	0.9454670800340467	0.29530820650406786	-0.13742293747131484
38														9.653847770206156	-0.7378994413848237	-1.3197698200868206	0.15289886198556063	-0.030176049996113508	0.9877810202722834	0.28743435275783025	-0.9549632891307962	-0.07366552292069188	0.9455175465628378	0.2951855728505779	-0.13733916674666563
39														9.653888571654003	-0.7384292651081695	-1.3191748749463215	0.15290091665572952	-0.0302369274575999	0.9877788405831348	0.28731771775775783	-0.9549951053478862	-0.07370805806730851	0.9455526631279253	0.29507639176915557	-0.1373320220203022
40														9.670735175441985	-0.6980965295973983	-1.3513188410104242	0.1529762324312131	-0.030276944126301303	0.9877659535363243	0.28730571630575386	-0.9549941087855238	-0.07376772711003528	0.94554412783814	0.2950755137914967	-0.13739266163625724
41														9.679514784355794	-0.7164929740388278	-1.3147240264258908	0.15307517018640743	-0.03024978607475745	0.9877514579664428	0.2872329804489514	-0.955016527343406	-0.07376074459597838	0.9455502140102419	0.29500573374660405	-0.13750058124172798
42														9.644810204729042	-0.7208030260351829	-1.3574962795675463	0.15317006140623035	-0.03020874679311228	0.9877380036760768	0.2870848066196262	-0.9550635985427152	-0.07372812588701572	0.9455798464947229	0.29485751534568255	-0.13761467780432102
43														9.635148456511097	-0.7144240669665748	-1.3360051527944254	0.15311445782834582	-0.030230507215366714	0.9877459588565445	0.286900481854386	-0.9551207253306246	-0.0737055870041304	0.9456447939451968	0.2946701825387224	-0.1375696449328238
44														9.636049577926515	-0.7024368229168602	-1.3939428519439367	0.15305805583214122	-0.030238851065976874	0.9877544449057646	0.28673053532080284	-0.9551743528356111	-0.07367194716930946	0.9457054677115552	0.29449544575643505	-0.13752672747210876
45														9.65374041368726	-0.7387453204033507	-1.3200818818094273	0.15319045307907603	-0.030192693959756767	0.9877353321193283	0.28646518891184575	-0.9552573117494729	-0.07362855350250305	0.945764442462883	0.2942309799810735	-0.13768714461506276
46														9.675637678894125	-0.7394826125019358	-1.3117154859914995	0.15343707865706896	-0.03014440990270628	0.987698525586022	0.28609651529392294	-0.9553698168284164	-0.07360228956976891	0.9458360570573836	0.2938704266251635	-0.13796494310253543
47														9.69025217469056	-0.7873381761236209	-1.2933150998131109	0.15368797751586438	-0.03006904070630556	0.9876618137591866	0.2857928267554289	-0.9554639326707863	-0.07356040742421843	0.9458871316083253	0.2935720118749029	-0.13824980326024794
48														9.712864635930625	-0.7762697526422634	-1.3439261290486844	0.15392422823256008	-0.030039717840964514	0.9876259146635669	0.28556078938794804	-0.9555326457880794	-0.0735690043249582	0.945918795419112	0.2933512880238792	-0.13850145951428922
49														9.680858346127813	-0.7688664073811505	-1.3342646798902076	0.1540700795503666	-0.02999841704250622	0.9876044276745057	0.2855302117870825	-0.9555418355580506	-0.07356832643995316	0.94590428096302	0.2933255793027529	-0.13865495224670815
50														9.620653947099012	-0.7306837956194797	-1.318679999692838	0.1543223195845585	-0.029943795916882926	0.9875667019316363	0.2854915828275161	-0.9555520560859059	-0.07358548936194713	0.9458748214286501	0.29329786428831317	-0.1389143080867961
51														9.598067967402788	-0.7299286164666661	-1.3319712758649165	0.15475733369319605	-0.029833195467183743	0.9875019737278454	0.2855140308057782	-0.9555432833143043	-0.07361230825043734	0.9457969686360868	0.293337713499538	-0.13935953486451164
52														9.61590865763544	-0.7550189909896802	-1.3212750541117555	0.15534481043729353	-0.02973241814507166	0.987412767378186	0.2854369114520524	-0.9555611283311556	-0.07367970957598467	0.945723934058409	0.2932898111659095	-0.13995473273651948
53														9.67322513970951	-0.728536032487896	-1.3922363334689982	0.1559871423339267	-0.029589551190257773	0.9873157903562845	0.28533390932468794	-0.9555888650888389	-0.07371893316995107	0.9456492857375752	0.293213879921439	-0.1406166739950489
54														9.688038686759617	-0.7651371674909495	-1.4352593281602046	0.1564374056290333	-0.029529475753038187	0.9872463462489025	0.28524686052385084	-0.9556099132116126	-0.07378294066368564	0.9456011668147115	0.29315133264824994	-0.14106994536474116
55														9.718684631248372	-0.7848589219654936	-1.3911653485030255	0.1566680791025436	-0.029477694979084812	0.9872113139997125	0.28537051817220466	-0.955570090512617	-0.0738205220506878	0.9455256635059919	0.2932863236095893	-0.1412952654377519
56														9.687361450204042	-0.7661310382843175	-1.4392941282477594	0.15669777633010673	-0.029497155821873094	0.9872060193757028	0.285669848663198	-0.9554750443262741	-0.07389301208132386	0.9454303488136744	0.29359386483393224	-0.141294366745208
57														9.646009348129716	-0.7530199899273765	-1.4061371037615495	0.15671092105591133	-0.029492635291741343	0.9872040679035705	0.2859750188058657	-0.9553802549082467	-0.07393819818226112	0.9453359063532887	0.2939026250223072	-0.1412843627731123
58														9.617205985179229	-0.7346732972110156	-1.3414179081171558	0.15678828609366247	-0.02953846023094453	0.9871904136036758	0.2861585664306556	-0.9553179314605074	-0.07403326744355676	0.9452675326076547	0.2941005426673029	-0.14132997771397982
59														9.651805564706821	-0.7313014792535879	-1.3000693907127325	0.15693954840340119	-0.029531303699677686	0.9871665919431905	0.28641351452430586	-0.9552355730890949	-0.07411004387384643	0.9451652114020974	0.2943686498371483	-0.14145607497835744
60														9.623411119758936	-0.7011436563402348	-1.2954096421896348	0.15711443970526395	-0.029479499696923706	0.9871403202856827	0.28664064587328086	-0.955164599819514	-0.0741466613204946	0.9450672954713063	0.2946040501236309	-0.1416201280937981
61														9.641654337313128	-0.7265965824761695	-1.2818536978489852	0.15739891482447232	-0.029448749078803432	0.9870959187382814	0.28682324237415424	-0.9551033004377019	-0.07423013624523225	0.9449645544918895	0.29480579483908087	-0.14188563733952098
62														9.606461405160486	-0.7319005675309247	-1.326304578983467	0.15775511075651188	-0.02942553983837093	0.9870397472419344	0.28694606885260804	-0.9550583514200535	-0.07433369998086271	0.944867863037068	0.2949536963457672	-0.14222179302671584
63														9.641235210939048	-0.7169514984597001	-1.3464673957974267	0.15820554649782298	-0.02937146318193401	0.9869692610248195	0.28708090520732166	-0.9550097210021171	-0.07443780394936662	0.944751585827021	0.29511650232071374	-0.14265584858434016
64														9.662755257712153	-0.7191764397841669	-1.3404058914926602	0.15868677276005466	-0.02933322035330982	0.9868931402815114	0.28721866871206775	-0.9549582071192937	-0.07456714423103365	0.9446289983344077	0.29528695338468386	-0.1431141875095731
65														9.671640674991215	-0.7269372254500881	-1.365942229455884	0.15912910410203862	-0.029317501871624074	0.9868223813390586	0.28737159837896437	-0.9549011109850232	-0.0747089866394143	0.9445080691411811	0.29547309915384223	-0.14352754092376108
66														9.683634087721847	-0.7228433899090453	-1.338280088867851	0.1595969931320348	-0.0292504749999023	0.9867488076990482	0.2875145510267192	-0.9548503599134706	-0.07480757395491223	0.9443856112473957	0.29564370428844866	-0.1439813091463159
67														9.683403713576173	-0.7124046238400494	-1.4010800626620528	0.16006897607158227	-0.02924628178584887	0.9866724775228598	0.2875993805059862	-0.9548128985475894	-0.0749594897242758	0.9442798945397325	0.29576508206489416	-0.1444247104867386
68														9.692187198550286	-0.7204183422061167	-1.4268391471023696	0.1605870495121718	-0.029240339882436045	0.986588466409645	0.28759794256188953	-0.9548014586194862	-0.07511057217376359	0.9441923654442158	0.29580259826725946	-0.1449192875196224
69														9.681967230831724	-0.7158238934351893	-1.4092408153923772	0.16102306574821745	-0.029295098444844125	0.9865157725572122	0.28769826560897477	-0.9547554280564414	-0.07531122467700445	0.9440875384532064	0.29594572104335165	-0.14530949705197393
70														9.642879170093313	-0.7456626409349353	-1.4484813217128363	0.16132822373049654	-0.02940284185383893	0.9864627094416093	0.28779145522999705	-0.9547106558025725	-0.07552246019312686	0.9440070352092528	0.2960794430350408	-0.14555988763219269
71														9.63291769404464	-0.7413479159589592	-1.428991843118822	0.16160499798679479	-0.029533768120897724	0.9864134940106356	0.2878909485968604	-0.9546627451500644	-0.07574856261701557	0.9439293545290818	0.2962208628086906	-0.14577576648807916
72														9.600733652026491	-0.7360194740012207	-1.4197322626623416	0.16191026112116214	-0.029656775902265453	0.9863597431904649	0.28790321749364056	-0.9546420670358697	-0.07596223536923913	0.9438732990716956	0.29627520903471655	-0.1460280651482736
73														9.5779150078622	-0.7371609311784448	-1.432771541363759	0.162332008092049	-0.0297817236146265	0.9862866561438135	0.2878036255591246	-0.9546534779828774	-0.07619586662161516	0.9438312308160957	0.2962259035157759	-0.14639952808132978
74														9.659205394007028	-0.7791297588531437	-1.4434699597729455	0.16270289318516534	-0.029920177105801166	0.9862213501801383	0.2877344945106062	-0.9546554547088951	-0.07643182232080827	0.9437884451601978	0.2962055802926595	-0.1467161374409312
75														9.652778633610051	-0.7511322700746105	-1.4302174625095407	0.16302518806931227	-0.029985947871670665	0.9861661274781254	0.2877294553507328	-0.9546440853552851	-0.07659262901703316	0.9437343633557779	0.2962355704948473	-0.14700319110501064
76														9.665373400627516	-0.7357915691706203	-1.4595206241101404	0.1632813123783704	-0.030053291139061244	0.986121702793174	0.2876464880943855	-0.9546586424150443	-0.076722710778701	0.9437153760085532	0.2961818295472841	-0.1472331923550526
77														9.683506671861043	-0.7619244979903551	-1.4463297494403797	0.16358998638811784	-0.030124305843332116	0.9860683762047102	0.287374274346464	-0.9547309700267324	-0.07684270502564952	0.9437448504746289	0.29594138113699664	-0.14752747585906922
78														9.666598923912748	-0.7918368393169561	-1.475283235802533	0.16390908063847365	-0.030179339231492436	0.9860137021197025	0.28698779861411206	-0.9548399958783926	-0.0769323450674526	0.9438070866076801	0.2955838117260521	-0.1478458437515967
79														9.703552696905493	-0.8301284176229664	-1.5058514153686822	0.1642216023912922	-0.030212013286611966	0.9859606987913901	0.286623746538587	-0.9549437555996536	-0.07700163349834444	0.9438633869518515	0.29524508106723657	-0.14816291329945136
80														9.699539356803452	-0.8542527381317798	-1.5025767647069095	0.1643419710569281	-0.030193985673259927	0.9859411948885626	0.2865101304920997	-0.9549777564035502	-0.07700279150681094	0.9438769314240727	0.29513693093817384	-0.1482920440275602
81														9.65521158143992	-0.8407679500527795	-1.5817614273971892	0.16433191247501838	-0.030237731190373818	0.9859415307992468	0.28651965987656486	-0.9549716048681545	-0.07704361362085434	0.9438757900521239	0.2951523564330812	-0.14826860573121653
82														9.65909208785994	-0.8178300558397639	-1.5853533629468552	0.16407372616522137	-0.030361551268896503	0.9859807242470854	0.2867500101853429	-0.9548961787703454	-0.0771214589365319	0.9438507530541927	0.2953835878554183	-0.147967199016183
83														9.618861347253196	-0.7928309179821783	-1.6069634719651926	0.16367461808036154	-0.0304988211052567	0.9860428192058588	0.28708628334692193	-0.9547899175995741	-0.07718600368104366	0.9438178242173112	0.295712757860375	-0.14751908191251928
84														9.615750744864203	-0.8288009119429124	-1.5374956403150513	0.16316056650163496	-0.030721642245205988	0.9861210930898003	0.2873659886320463	-0.9546974092136076	-0.07728936161175083	0.9438217088605199	0.29598823885178777	-0.14694061502874184
85														9.633085018627492	-0.8005542515938657	-1.5050578975731836	0.16258027789159202	-0.030894043236673246	0.986211544919843	0.2877190085722895	-0.9545873959011907	-0.07733482845886763	0.9438142960068319	0.29632492584842446	-0.14630828060658174
86														9.652667627407954	-0.8256256276219658	-1.4827108449187576	0.1619328699817208	-0.03111132518339968	0.9863112242415254	0.28806728727671604	-0.9544768965572867	-0.07740214428170067	0.9438193596343093	0.29665795014410795	-0.1455990281416017
87														9.631051374881709	-0.8366324391597344	-1.4273362457042817	0.16135548280209827	-0.03127278475499165	0.9864007406238957	0.2885128792814058	-0.9543383180441951	-0.07745123111565194	0.9437821394042456	0.29708649859299413	-0.1449651188917534
88														9.635068334944668	-0.8252889937859396	-1.3682309418469074	0.16090923990417288	-0.03139974351278366	0.9864696004544656	0.28902008708999527	-0.9541795886499431	-0.077515816852544	0.9437031343446695	0.29758254100527637	-0.14446115573707047
89														9.658387902748968	-0.8152516943909534	-1.411922767362841	0.16053828554284916	-0.03145356400225657	0.986528323053382	0.28957341066265857	-0.9540099109243996	-0.07753921391924103	0.9435966822282481	0.29812038368681615	-0.14404699968505968
90														9.65845963838801	-0.82731554892209	-1.3489760829236568	0.16020173425630357	-0.03160084033736016	0.9865783249348457	0.290040266080328	-0.9538590766288113	-0.07764989365662009	0.9435104919360069	0.29858708750179497	-0.14364436217224186
91														9.67581141455992	-0.7874740469704838	-1.3774161604313735	0.1598632228726659	-0.03166407717460887	0.9866312057650745	0.2905854214183401	-0.9536898536507764	-0.0776902561630903	0.9434001605002461	0.2991204594477638	-0.14325881441596783
92														9.645152197276357	-0.7691582943787123	-1.4207972262102608	0.1595348956396332	-0.03177874015229315	0.9866806619912972	0.29113754238650236	-0.9535137993792386	-0.07778409738832555	0.9432855074082284	0.2996690609117031	-0.1428667401668391
93														9.67145096999011	-0.7477341616181975	-1.4124315999518424	0.15924962294838635	-0.031889649341040355	0.9867231667776443	0.2916436921078749	-0.9533512643323236	-0.07788018778641562	0.9431773504725843	0.30017397798754275	-0.14252041430844348
94														9.685128586891512	-0.7320016637087146	-1.4356362079808287	0.15890136585951475	-0.032019054266707786	0.9867751193113087	0.29209214212339984	-0.9532069702110385	-0.07796571330307296	0.9430973101635617	0.3006181167277831	-0.14211337536381563
95														9.726332510919372	-0.7591339170390978	-1.405263184156091	0.1585205692827628	-0.032276783478435156	0.986827967967343	0.2923863389193963	-0.953102364590288	-0.07814161135856931	0.94307022958398	0.3009220694144715	-0.14164903886624602
96														9.721037497108929	-0.7308452210373944	-1.3842112846558203	0.15806454295864736	-0.03256757100791177	0.9868915612051402	0.29255222546359794	-0.9530379055616569	-0.07830674261484101	0.9430953269079275	0.30109484200380354	-0.14111378558856136
97														9.702416839624854	-0.7737500615206406	-1.4581292260658842	0.15764664627045938	-0.03283359626681556	0.9869495883153625	0.2927159410956347	-0.9529750941395706	-0.07845921091989376	0.9431144748906002	0.3012647090282285	-0.14062241053958352
98														9.674250037600023	-0.7558611807244886	-1.3887384816644681	0.1572801816166176	-0.03315439323393804	0.9869973306346541	0.2928534324335999	-0.9529149476154242	-0.07867636063616648	0.9431329766170317	0.30141978836895	-0.1401652581673316
99														9.684423506751827	-0.7644374073737038	-1.405103313782843	0.15684842614175937	-0.03342657096710036	0.9870568552875939	0.29303237157681516	-0.9528470389224004	-0.07883241481066458	0.9431492991170168	0.30160435137808395	-0.13965749104464403
100														9.68802707892228	-0.7539471964461253	-1.346309720370298	0.1563279262855703	-0.033772585130190325	0.9871276472457238	0.29308676020891666	-0.9528152887613484	-0.0790137740705383	0.9432188136659991	0.30166610349234324	-0.13905334066556113
101														9.622340018697905	-0.7526875902547289	-1.370938093366855	0.15580745368920007	-0.034132281202091025	0.9871975611572533	0.2930873826554765	-0.9527996042195652	-0.07920038085263333	0.9433047352277258	0.3016751590353128	-0.13844953924794662
102														9.64601425748181	-0.7443648211705637	-1.4134491816880381	0.155340027527188	-0.03450165178906264	0.9872583815150312	0.2931111384961558	-0.9527743427924638	-0.07941607019914991	0.9433744412148021	0.3017129227265799	-0.13789117420068975
103														9.614015078745105	-0.7498010178058118	-1.3381438806852666	0.15492604662781467	-0.034814963459950804	0.9873124320069908	0.2931997639399735	-0.9527314263452196	-0.07960356574769409	0.9434149768271756	0.3018124377382184	-0.13739517431370746
104														9.688433085246928	-0.7075932049460081	-1.3130175890268045	0.15438470540927457	-0.03505921003011353	0.987388583348904	0.2932447092783997	-0.9527113155740001	-0.0796786650081699	0.9434897472765233	0.30184764529365093	-0.13680312794216348
105														9.6642860351285	-0.7201545568609883	-1.3703114558875602	0.15382137758608594	-0.03541450272616645	0.9874638204988457	0.29306049818526736	-0.9527560820641834	-0.07982100283202051	0.9436389819210105	0.3016648157912435	-0.1361756612347209
106														9.639370142309904	-0.7438407745346842	-1.367863724414832	0.15307543004144003	-0.03579373822579335	0.9875660590671651	0.2927418998032437	-0.9528464671007868	-0.07991113960604432	0.9438591488231789	0.3013343963728211	-0.13537905578564108
107														9.671164715959781	-0.7637457159982965	-1.312170509332512	0.15231996710849854	-0.036150844516041475	0.9876698558024555	0.2924980833785832	-0.9529148714886941	-0.07998824235811983	0.9440569362278537	0.3010753462780752	-0.1345739091488976
108														9.659860919208873	-0.7702096424743765	-1.3355759388752013	0.15157393522553797	-0.03653282973954983	0.987770567749144	0.2922812601949307	-0.9529723032140666	-0.08009653079716371	0.944244145917309	0.30084737269602146	-0.13376790064433808
109														9.632957184298494	-0.7399072299106523	-1.3213515905220476	0.15073363678899687	-0.03688540078551861	0.9878860450220235	0.2922310821219609	-0.9529814005518711	-0.080171346776907	0.9443941790281172	0.300775526615925	-0.13286729171140088
110														9.63293668848941	-0.7519609524944454	-1.2534059646208155	0.14982861522626983	-0.03725522076185955	0.9880098352675257	0.29214060756488325	-0.9530035773257717	-0.08023744148402683	0.9445661710388527	0.30065965830198577	-0.1319034434680682
111														9.612033062989243	-0.7516246553766353	-1.2545414841255713	0.14896641584865955	-0.037623827266387855	0.9881262341275197	0.291939659466149	-0.9530598490074325	-0.08030043238189737	0.9447646490952091	0.30043530390378514	-0.13099002247593938
112														9.682821012406846	-0.7978281694101501	-1.2832855671151306	0.14814938005150657	-0.03801402481262278	0.9882341297020155	0.29159759794158274	-0.9531579306320506	-0.08037910268177098	0.9449987312504996	0.3000748126563989	-0.13012495819086256
113														9.66183396599526	-0.7975742794525325	-1.285330420838244	0.14739790980037715	-0.03837425155618726	0.9883325720646785	0.29144160893438464	-0.9531975413215718	-0.08047506321990917	0.9451643480200773	0.2999030910744563	-0.12931547160247014
114														9.694767420644531	-0.8064267347786666	-1.2873384839188649	0.14651216229209013	-0.03875494647732902	0.9884494121724366	0.2914768944993139	-0.9531782263733986	-0.08057598116497247	0.9452911753917584	0.299915526258981	-0.1283560315500069
115														9.68378136489563	-0.8132966456544466	-1.3094900401464944	0.14562560282735743	-0.03915661013648675	0.9885645875125149	0.2915974355467767	-0.9531301594303987	-0.08070833145795281	0.9453909875727147	0.30001609801276086	-0.1273821869394826
116														9.665284022209535	-0.80152645822227	-1.2566139734145267	0.14465560908668723	-0.03961564325266573	0.9886887050884307	0.2917150689140051	-0.9530804710800391	-0.08086985973988485	0.9455036083105434	0.30011367255679794	-0.12631195595118577
117														9.694527884023495	-0.7684606830540529	-1.187913507042071	0.14371063734613848	-0.0400356852044442	0.9888095856249461	0.29186909607290057	-0.9530217460142889	-0.08100606385613794	0.9456001710401469	0.30024439301023986	-0.12527418327316292
118														9.683618125467923	-0.7753874214849933	-1.2094806091462178	0.14279840473922006	-0.04046181253284328	0.9889243941426925	0.29189109144298797	-0.9530035716898977	-0.08114051443341894	0.9457315720330773	0.30024495678171803	-0.12427694712612308
119														9.712675419795389	-0.7419428759140293	-1.1411613809088574	0.1418674929739805	-0.04086669173368465	0.9890417220441321	0.2917942379031523	-0.9530253280664347	-0.0812332862217446	0.9459015472890384	0.3001210382006055	-0.12327864886343676
120														9.682021179993374	-0.8009752183310771	-1.18438485033594	0.14106721720566612	-0.04130585534234074	0.9891379411104841	0.2915425810809442	-0.9530898922588529	-0.08137923992438001	0.9460988128343206	0.29985577131088603	-0.12240732316754238
121														9.657236037686353	-0.8242859449267718	-1.1805070993174465	0.14022279423899592	-0.04168341370435469	0.9892421649918489	0.2913962414893452	-0.953127198923549	-0.08146639256793538	0.9462694111201587	0.29968489400385423	-0.12150376901235277
122														9.646009727527	-0.7659034486895363	-1.2516574231652107	0.1393437691997927	-0.04202648747007569	0.9893518526470362	0.2913986176081751	-0.9531211150994501	-0.081529047631046	0.9463985205193632	0.2996563269856126	-0.12056502833015953
123														9.627095248910088	-0.7535647942688845	-1.1998829303338923	0.1385086161348142	-0.042389659102111926	0.9894536270374804	0.29146501406544023	-0.9530919506660525	-0.08163258633298187	0.9465006649930318	0.29969793188606714	-0.11965634454955937
124														9.650017330040855	-0.7554973386882121	-1.1805442637914294	0.13777796148370852	-0.042636160629633046	0.9895450424999153	0.2913509141600341	-0.9531268116986393	-0.08163287107103519	0.9466424235937809	0.29955206330110956	-0.11889778477558727
125														9.686955187741608	-0.8051789577808085	-1.1403713121473813	0.13710052410457357	-0.04293459525078734	0.9896262258150309	0.29106945401235584	-0.9532088744006892	-0.08167872859392705	0.946827343939327	0.299248161722712	-0.11818848706357704
126														9.719751509070925	-0.8133913820018792	-1.1434724811142143	0.13640574608733397	-0.0432258807873311	0.989709551163632	0.29077297372996114	-0.9532965881348758	-0.08171103229454961	0.9470187697097634	0.29892664364449856	-0.1174662144484186
127														9.692667649669076	-0.8475117684227546	-1.082145819866111	0.13564615390412166	-0.04353593423931493	0.9898003553045077	0.2906802111923088	-0.9533200504889001	-0.08176732939894821	0.9471563417684613	0.2988068000661153	-0.11665916372936397
128														9.701322446537274	-0.8013478253094594	-1.084923095027822	0.13490066691571334	-0.043862356116821946	0.9898878238374165	0.29067359752998756	-0.9533145938437932	-0.08185441260810282	0.9472648361280334	0.2987764697567796	-0.11585314564139204
129														9.663945036337363	-0.7641403892699474	-1.0509033591755526	0.1341983896687966	-0.04413437409347874	0.9899711860623411	0.2905991553468207	-0.9533338860333205	-0.08189403306909464	0.9473874197613222	0.2986748378487623	-0.11511046048904228
130														9.627060344556307	-0.7926261138391681	-1.0820246683629413	0.13377307613139033	-0.04436586180241843	0.9900184010455934	0.2903912978231949	-0.953391321897216	-0.08196268345801729	0.9475112971626803	0.29845712864263657	-0.11465462969931439
131														9.647766832385594	-0.8063689674356175	-1.120328079236134	0.13346261818110805	-0.04450509524356673	0.9900540520828168	0.2901183535815093	-0.9534738145856041	-0.08196966399059938	0.9476386813883223	0.29817273751457973	-0.11434136670367123
132														9.664527566268468	-0.8431965100860203	-1.1538809394834104	0.13314511651333422	-0.044638744032056296	0.9900907839586687	0.28979434162631657	-0.9535728997952502	-0.08196318891702198	0.9477824737301382	0.29783570522574737	-0.1140275194094012
133														9.729045704199184	-0.85870777034162	-1.170417480586735	0.13266715867345236	-0.044809978088294844	0.9901472066684023	0.2895372034159161	-0.9536519118762401	-0.08195266202438231	0.9479280736678304	0.29755688000535085	-0.1135441337713129
134														9.739992392342785	-0.8652173120087927	-1.1852496172433191	0.13193608435000648	-0.045026211266889465	0.9902350781230369	0.28939631697394275	-0.9536972093997911	-0.08192316220073723	0.9480731202646264	0.2973790057855471	-0.11279665575580833
135														9.730859905325666	-0.8585049316981423	-1.155390427040061	0.13101817829508572	-0.04531567032166808	0.990343741828833	0.28937984797555527	-0.9537022426236811	-0.08192274409591696	0.9482054316137831	0.29731889014635193	-0.11183888867589792
136														9.669372405946692	-0.8308166630915162	-1.0715573795885283	0.13001580334327223	-0.045578236551840304	0.9904637879467518	0.28944487782397943	-0.9536861301397911	-0.08188057083613491	0.9483235489971055	0.2973304382867892	-0.11080188123728163
137														9.660251457087005	-0.8241653151374501	-1.040301308279353	0.12908407943327355	-0.045865727268248044	0.9905723777185688	0.2894762677916482	-0.9536766703007529	-0.08187978327699082	0.94844124268311	0.29731657132797645	-0.10982743551360002
138														9.658579854028737	-0.8354937102392507	-0.9723752114957029	0.12824238406057614	-0.04610688406357613	0.9906705033321666	0.2895004618367575	-0.9536709605324118	-0.08186074537586127	0.9485480343803177	0.2972975853906914	-0.108953073357757
139														9.627347993702616	-0.8278529583277405	-0.9537686314695206	0.12747728127073032	-0.04637042004458179	0.9907569464327322	0.2894835563954689	-0.9536742940975129	-0.0818816912028648	0.948656319926481	0.29724589975725313	-0.10814833212327679
140														9.660131223377435	-0.8358982633304289	-0.9564854352505978	0.12682557260413185	-0.04657570692534936	0.9908309531186631	0.28947935611151165	-0.9536755185962889	-0.08188227900690415	0.9487449480861013	0.2972098732453278	-0.10746773807332799
141														9.655525770224248	-0.871777102127912	-0.998692303897821	0.1264349460615078	-0.04671379191853074	0.9908743745092092	0.2894741516134998	-0.9536758494475066	-0.08189682367602519	0.948798671985827	0.2971871394006976	-0.10705551930079188
142														9.688391244228757	-0.8149697102427943	-1.0536266164381347	0.1261736608813286	-0.04683716837666199	0.9909018553611951	0.2894931171022661	-0.9536664752028483	-0.08193893594981476	0.9488276674139601	0.2971978023684401	-0.10676855256653245
143														9.742560646193983	-0.8242588098505861	-1.049530298929401	0.12587714669375782	-0.0469642981948513	0.9909335490512482	0.2895067896450107	-0.9536593595165153	-0.08197343933243646	0.9488628787605072	0.2972005731852047	-0.10644743589541306
144														9.725145541142272	-0.8002028839810411	-1.0620532808929515	0.12546570176358357	-0.04716153585713646	0.9909763605740389	0.2895145218299079	-0.9536512797231397	-0.08204010197469339	0.9489150116478142	0.2971952661433461	-0.10599657754576047
145														9.688471980108469	-0.8290315310342191	-1.0945784746164076	0.12496072124197538	-0.04743736608081847	0.991026999857219	0.2895885340610448	-0.953618349892661	-0.08216157062991203	0.9489590608066614	0.29725702522785447	-0.10542751948910806
146														9.66096082890164	-0.7990070055685956	-1.0836614188687654	0.12435669106782321	-0.04779464297564326	0.9910858113652385	0.2896393071018126	-0.9535884979959685	-0.08232890301330932	0.9490229107709909	0.2972955576402443	-0.10474190297647035
147														9.687313214353763	-0.7781313863440169	-1.0714399838167568	0.12379753810704003	-0.04814596925469604	0.9911388072329534	0.28965288176157056	-0.9535695966427875	-0.08249989361041124	0.9490918699714235	0.2972994954638124	-0.1041039497382737
148														9.713648195492198	-0.7574327160380945	-1.0591691952745341	0.12320248591831612	-0.04851960503505526	0.9911947313171059	0.2895931827773014	-0.9535726901664767	-0.08267353299322282	0.9491875135885743	0.2972288217786277	-0.10343157908312689
149														9.728731367400055	-0.7421619452492554	-1.0782506205992102	0.12248531546944325	-0.04890645568107471	0.9912645994319919	0.2895151200889839	-0.953583578244664	-0.0828212203602745	0.949304136056624	0.29713047284790395	-0.1026408270181452
150														9.71513565575053	-0.7602214733207182	-1.0434125154906093	0.12171464092726614	-0.049313793663705516	0.991339344492309	0.28936286882448087	-0.9536173165194233	-0.08296471406544563	0.9494496702456711	0.29695481708298377	-0.10179960845503644
151														9.665381139096755	-0.793645512484628	-0.9929623351445933	0.12092210796815162	-0.04967896583028328	0.9914180975544942	0.28915316156412896	-0.953673041908142	-0.08305527253064984	0.9496148129436524	0.2967148959720515	-0.10095532450686917
152														9.691117558750562	-0.8366290896699989	-0.9302489115403272	0.1201039856328639	-0.04994426475132799	0.9915042123226459	0.2888787324428319	-0.9537579116715444	-0.08303567827239852	0.9498021428578289	0.2963973959777376	-0.10012229062647654
153														9.676626624887511	-0.865539431273185	-0.9490566547106953	0.1193987708897184	-0.050167669106850776	0.9915781050862361	0.2886851320560265	-0.9538180110338368	-0.08301865065905871	0.9499499081740151	0.296166181060299	-0.0994020379888616
154														9.678016511581232	-0.8532996238498572	-0.8891212254934874	0.1187995862870837	-0.0503039497597797	0.9916431671405715	0.28866256862311296	-0.9538292712919374	-0.08296772084731839	0.950031883556507	0.29610679469619994	-0.0987936554684466
155														9.672033765775199	-0.8231192423228879	-0.8684701075490953	0.11843277082695242	-0.050403530348934064	0.9916819867894218	0.28865103954963295	-0.9538340974675927	-0.08295234701380853	0.950081183984383	0.29607431269285617	-0.098416183640121
156														9.654646811836852	-0.798529251515082	-0.8823152603739838	0.11830671675405852	-0.05044366195362858	0.9916949922932876	0.28854833448079004	-0.9538660250556457	-0.08294253982670773	0.9501280858069809	0.2959645979053085	-0.0982933230057465
157														9.718376828520435	-0.8264855538179583	-0.9541706090612255	0.11828563337846992	-0.05048196601680825	0.9916955581443995	0.28839696427353634	-0.9539105089293763	-0.08295741047011249	0.9501766677487208	0.29581465829329	-0.09827506298528249
158														9.749917279648797	-0.8465967380916506	-1.0165840794183114	0.1182331838250571	-0.050499154390471215	0.9917009376059085	0.28829857576073775	-0.953941061834548	-0.08294806664597862	0.9502130526660433	0.2957131819040587	-0.09822865463425978
159														9.756507676491125	-0.8766792401865517	-1.030949172954833	0.11809095112564366	-0.05052545505699112	0.9917165450135059	0.28827521153570235	-0.953949834489064	-0.08292837688230614	0.9502378279548163	0.29568038769856164	-0.09808760703647229
160														9.728616466591673	-0.8454368161579218	-1.024292822530826	0.11783005918453265	-0.05059672289582155	0.991743943155073	0.2883883105113471	-0.9539154662143317	-0.08293048702078548	0.9502358967714175	0.2957790644202143	-0.09780841240773891
161														9.711356322849566	-0.8208467407107436	-1.0374989209046532	0.11746633115964694	-0.05067561933973748	0.991783062291561	0.2884882050548977	-0.9538872389525979	-0.08290772525882598	0.9502506072547893	0.2958565817552885	-0.097430315836401
162														9.694236327311236	-0.7960433808730685	-1.0496826259106757	0.11698201082861354	-0.05083923281479971	0.9918319321081053	0.2884682483215384	-0.9538923784076869	-0.08291803257452383	0.9503164098618933	0.2958119382691123	-0.09692274410412366
163														9.673106466648342	-0.7948145671160598	-1.0561508082573001	0.11655684160192137	-0.050976476680872865	0.9918749424705664	0.2884388129285443	-0.953901129054135	-0.08291976354053886	0.9503775848956861	0.2957600967244416	-0.0964801083819462
164														9.69121406862467	-0.8191347832425727	-1.035020918850641	0.11609908033125116	-0.051054626995144486	0.991924608328992	0.2882571675317601	-0.9539630021449115	-0.08283957934003776	0.950488721086581	0.2955469769783719	-0.09603736505205274
165														9.683642162701787	-0.8652563866248979	-1.019877571162685	0.11566157489461504	-0.05111347100916849	0.991972687715893	0.2879830521456126	-0.9540546219525763	-0.08273777860097914	0.9506251426139511	0.29524090402978065	-0.09562764672354485
166														9.72692504848704	-0.8787897891172181	-1.046379228827944	0.11526185418384038	-0.05122897879584125	0.9920132542973604	0.2876118787552639	-0.9541705247608068	-0.08269230240206882	0.9507860496289223	0.29484606392018037	-0.09524540105331303
167														9.745060767639194	-0.9023280803137915	-1.0254336767167263	0.11480660868087217	-0.05125655097731871	0.9920646191579998	0.28739531595419654	-0.9542471057078536	-0.08256145357109825	0.9509066068604137	0.29459332516215403	-0.09482298138700745
168														9.706443456655991	-0.8754394021782848	-1.0488367161312662	0.11437108467102419	-0.05123928130967029	0.992115815337122	0.2872947670019679	-0.9542908979216023	-0.08240509084557479	0.9509894698914699	0.29445444162866846	-0.09442250770176908
169														9.685430709886598	-0.8731826870398975	-1.0554232834088353	0.11389534550023828	-0.051249784949549126	0.9921700004616177	0.28731272135724606	-0.9542966915898539	-0.08227529742852908	0.9510411402350979	0.29443383630840464	-0.0939652362155321
170														9.698214392065632	-0.8017843130166993	-1.0666330007220741	0.11339334491349273	-0.05132751492244088	0.9922234806439605	0.28741461600676826	-0.9542715833391748	-0.08221060598868	0.9510703380060863	0.29450166628260466	-0.09345576879870876
171														9.709828538290564	-0.7955830258806406	-1.0292203449404316	0.11289844990333836	-0.05140946500323136	0.9922756708281755	0.28744318555697307	-0.954268641235537	-0.08214484421643538	0.9511205786262242	0.29449690535311984	-0.0929581499985484
172														9.743021004844312	-0.7906357435321646	-0.9802430253936852	0.11235045014903289	-0.05157221010154224	0.9923294228715346	0.28727751021382697	-0.9543204876336866	-0.08212209817063688	0.951235516828853	0.2943003806111123	-0.09240280025789382
173														9.761210974144694	-0.8145418196649477	-0.9576039642659508	0.1117394147969955	-0.05168114581755459	0.9923927460173265	0.2871495220487481	-0.9543666924193372	-0.08203272754059791	0.9513461279513364	0.29413139167310776	-0.09180015939223846
174														9.747248663688552	-0.8306605354102978	-0.9241861070260261	0.11095370254696274	-0.05185950962159297	0.9924715951365698	0.2871529185943445	-0.9543709741598612	-0.08197100111568104	0.95143705899753	0.29408610124071677	-0.09099938364167653
175														9.733343427789093	-0.8469969388379128	-0.8895102727008415	0.11011529692995459	-0.0520671218315818	0.9925540973701147	0.2871949862268535	-0.9543622258619946	-0.08192546450217159	0.9515217607959291	0.2940778071733982	-0.09013646354223304
176														9.669568797604173	-0.8312381444475495	-0.8624295618523453	0.1094220732716687	-0.05226428194599979	0.9926203980946587	0.2871935411174861	-0.9543640807091687	-0.08190892132449712	0.9516021646787741	0.2940368111050262	-0.08941853216117296
177														9.702470987046716	-0.8385436321199259	-0.865252320994833	0.10881184463514137	-0.05235736113735699	0.9926825722263034	0.2871305349177952	-0.9543914147158834	-0.08181126716067556	0.9516911465307002	0.2939315128586029	-0.08881569322892391
178														9.735366444716277	-0.8334404863002639	-0.816537891191346	0.10843787876388467	-0.05244799334140331	0.9927187086197427	0.2871296326921147	-0.9543937418808712	-0.08178728194970625	0.9517341017738519	0.29390779753706703	-0.08843305981153238
179														9.72897535608401	-0.8147896627634804	-0.8506030033598543	0.10810283240478846	-0.05245059145673518	0.9927551123423647	0.2871430191810993	-0.9543979130338739	-0.08169155483983186	0.9517681777416312	0.2938937887271949	-0.08811229645145946
180														9.718461858766682	-0.8193296361737333	-0.8804153017238029	0.10794266977757666	-0.052265835949332776	0.9927822835011746	0.2873133430173343	-0.9543645544950848	-0.08148214557559055	0.951734954157665	0.2940349970937398	-0.08799998590108865
181														9.73753554652634	-0.7779389115431204	-0.9108026498138518	0.10784729620160066	-0.05216217146344815	0.9927981006076827	0.28738339801254187	-0.9543538277518034	-0.08136064160419651	0.9517246152373962	0.29408821690727327	-0.08793393785980147
182														9.751166877445081	-0.8246765431730488	-0.8874804176316238	0.10770117009046243	-0.05210029913852292	0.9928172121749409	0.2872383109126859	-0.9544074100191595	-0.08124437484864283	0.9517849603272645	0.29392525330463876	-0.08782559287947622
183														9.786467603895861	-0.8722908785997442	-0.85160597696615	0.10736432629110887	-0.05203960362891112	0.9928568784543933	0.28713564699906347	-0.9544525684265293	-0.08107659863629227	0.9518539917773551	0.29378933656303297	-0.08753173172837064
184														9.735802069678986	-0.9155117230425366	-0.8592046200759912	0.10679118836759005	-0.05209219512541356	0.9929159306275909	0.2871905016181407	-0.9544457810338838	-0.08096213217882328	0.9519019160960648	0.29380206648973106	-0.08696601554058336
185														9.65846913390009	-0.8506076516908995	-0.8562823330668126	0.10614314101422062	-0.05211168585232499	0.9929843935396293	0.2875031551896821	-0.9543639510671194	-0.08081698249462213	0.9518800183697599	0.29406431456602666	-0.08631691333220903
186														9.620090342804948	-0.8112339759792266	-0.8254840312300352	0.10560835953983638	-0.052042628757309126	0.9930450338163596	0.2877222751038426	-0.9543152841839054	-0.08061160451238794	0.9518732934610438	0.2942344357226425	-0.08580984809801728
187														9.646156022457571	-0.7872624560732953	-0.8152225870662614	0.10527891119455962	-0.051972439145662325	0.9930836905452326	0.28777223339106917	-0.9543137915901617	-0.08045078539036324	0.9518946856384928	0.29425168266309154	-0.08551289202883533
188														9.70711426113899	-0.8247035593751447	-0.8255632122591544	0.10496235355111239	-0.05194184500943863	0.9931187990739208	0.2877428435836441	-0.9543332720316944	-0.08032472757301203	0.9519385275864245	0.29419389971631893	-0.08522317212058383
189														9.711591228382083	-0.7998166821357164	-0.8273570049871158	0.10452585030352951	-0.051930001511536775	0.9931654552799023	0.28770027529998077	-0.9543582814710739	-0.08017993626770678	0.9519994213289413	0.2941148509181235	-0.0848148351337818
190														9.686525442724763	-0.8209015313244957	-0.8289495545047719	0.1040371711769813	-0.05191370241629635	0.9932176168971851	0.2877287758732902	-0.954362966847772	-0.08002174107063702	0.9520443364402464	0.2941025246592595	-0.08435215729962209
191														9.700570073400165	-0.8798346371022403	-0.8554969829431307	0.1036380047624827	-0.05187546751490914	0.9932613451851238	0.2878548232492056	-0.9543370276044252	-0.07987764690650052	0.9520497700756094	0.2941934289090437	-0.08397298187940677
192														9.69148829608705	-0.7948354541979235	-0.8261803998628652	0.10328932273667585	-0.051831443626096485	0.993299963384794	0.28793265199855156	-0.9543251710552041	-0.07973867194489677	0.9520641279460534	0.29423964610855835	-0.08364763556867888
193														9.737675421893044	-0.8493179510875405	-0.8091098285377545	0.10282557758403954	-0.051843537665475475	0.9933474458601264	0.28790171703511525	-0.9543452543837123	-0.07960990367736598	0.9521236799506358	0.2941723696026115	-0.08320525848552729
194														9.687146813974397	-0.8929154210953894	-0.8161754572198475	0.10223965414959718	-0.051899194462607295	0.9934050164628236	0.28788727824528737	-0.9543597527349508	-0.07948822166965482	0.9521911405510404	0.29411551467716923	-0.08263229321695348
195														9.712979057704741	-0.8570786302533072	-0.7513144066636426	0.10174081808993773	-0.05191010789029915	0.993455659117813	0.28807358940348815	-0.9543136397074097	-0.07936676985103466	0.9521882235265153	0.2942631777290765	-0.08213871931193717
196														9.67829710376751	-0.7945518728450799	-0.7273594965022451	0.1013435423883206	-0.051868166611511834	0.9934984548093407	0.28819991223884844	-0.9542877430742993	-0.07921940421184978	0.9521923634443342	0.29435454253420457	-0.08176249927547724
197														9.697347016523688	-0.7405771595864505	-0.7022424479466027	0.10103687333395817	-0.051801440882012856	0.9935331705330457	0.2880936242572856	-0.9543334557723091	-0.07905516337333819	0.9522571154311217	0.2942180584468441	-0.08149920364377672
198														9.687380106328282	-0.7568569041649059	-0.7856643540978225	0.10087572274707568	-0.051694284450059025	0.9935551265609031	0.2878415970257987	-0.9544237567549677	-0.07888287243358207	0.9523504100812334	0.2939438611315628	-0.08139842087642568
199														9.679852800394668	-0.8142115552548607	-0.8272051208115805	0.10080622283176999	-0.051495716301811933	0.9935724918902272	0.28781555069384596	-0.9544492396487491	-0.07866929332798017	0.9523656410314215	0.29389596822088065	-0.08139315478786513
200														9.742011042306741	-0.7737184599854093	-0.8349095427137728	0.10067091560772456	-0.0512721425048019	0.9935977728204053	0.28783371541751224	-0.9544646083319994	-0.07841596591634621	0.9523744636536897	0.2938851456685252	-0.08132897476137746
201														9.735498479467966	-0.7411913342762464	-0.8174097782646973	0.1003186406338265	-0.05114609118072909	0.9936398984029946	0.28766164069650635	-0.9545361809694108	-0.07817582549692638	0.9524636217794227	0.29367457598039426	-0.08104500360639383
202														9.663110393045484	-0.7703428970965491	-0.7854204088994122	0.09998473256368595	-0.050970918519784275	0.9936825542996203	0.28733843556011995	-0.9546576012376404	-0.07788124195887633	0.9525962821174724	0.29331012574482274	-0.0808052809630983
203														9.756634097287531	-0.8139659995853702	-0.8056348980991556	0.09975138311318149	-0.050743037909761396	0.9937176689939128	0.2870434269479524	-0.9547718199266735	-0.07756831131256556	0.9527096790801396	0.292977671465926	-0.08067435409980733
204														9.771174669317801	-0.7696878198207648	-0.7234904587602953	0.0994815270920425	-0.05045813326465526	0.9937592276577266	0.28690636656586155	-0.9548426008699845	-0.07720326669136961	0.9527791782944307	0.29279614811552684	-0.08051244038842553
205														9.713733230907042	-0.7814481192783308	-0.71818630744958	0.09915745355075112	-0.05023212054465748	0.9938030657383368	0.2866847595211628	-0.9549359045915427	-0.07687175541266283	0.9528796608510557	0.29253060042928536	-0.08028822920489742
206														9.652225532657086	-0.8165212036963407	-0.7087449997544104	0.09909556787634483	-0.049961935381581904	0.9938228581795607	0.28646881464287643	-0.9550244935895333	-0.07657568074238986	0.9529510410636897	0.29228756671637907	-0.08032615812204763
207														9.682270138570324	-0.7791933911444324	-0.7627599054902872	0.09932721127630212	-0.04948788526404707	0.993823452285246	0.28639147686260474	-0.955079183469864	-0.07618185665231207	0.9529501703030061	0.29218949761178925	-0.08069244329453168
208														9.69027729504907	-0.7282660001504309	-0.7769111129697016	0.09957093955319302	-0.04898295057312163	0.9938240782702166	0.28619115851938975	-0.9551734661621627	-0.07575137177034828	0.9529849152960523	0.29196629958423476	-0.08108903208982682
209														9.70862661155787	-0.7729607023403647	-0.8696653531930311	0.09974827490762095	-0.04849661430382947	0.9938301464807853	0.28603518032946773	-0.9552540741254174	-0.07532283505471632	0.9530131988943502	0.29178370802335196	-0.08141320817472242
210														9.693854202096771	-0.78565082109421	-0.8459314609525233	0.09981869108297259	-0.04798493766525949	0.9938479132481707	0.2859823246723553	-0.9553072832278313	-0.07484720827696824	0.9530216885703483	0.2916940869629027	-0.08163467857106377
211														9.705489506329307	-0.6986951054715499	-0.8106183250349457	0.09988984087844921	-0.047503493188301715	0.9938638930075825	0.2859013603895139	-0.9553665731493783	-0.0743984074845641	0.9530385258827179	0.2915786841381292	-0.08185010164669104
212														9.693908679132715	-0.7645717102888252	-0.7958495217858367	0.09985089319362017	-0.04699009311931268	0.9938922126051069	0.2856101635342532	-0.9554947907835216	-0.07386839155885119	0.9531299143424121	0.29124154225349264	-0.08198616012128923
213														9.66882196769076	-0.7822030658339287	-0.8030051127880965	0.09983229242491853	-0.04648033048272718	0.9939180510823828	0.28543029748529825	-0.9555879045225087	-0.07335735823852477	0.9531857419551764	0.29101775823564024	-0.08213163656510647
214														9.679628203587452	-0.771540402576068	-0.772362746884085	0.09995552559515175	-0.04592203028914223	0.993931617384778	0.2853751781327708	-0.9556430272824307	-0.0728519877021989	0.9531893309351961	0.2909253710843987	-0.08241679349937481
215														9.672408950408833	-0.7240404675204805	-0.7064956213870346	0.1001434709099503	-0.045286859410266125	0.9939418421612317	0.28527925713977	-0.9557144849476817	-0.07228809519532652	0.9531983165532182	0.29079017113021954	-0.08278916411082232
216														9.694365504355119	-0.7317144780613691	-0.7521974763876442	0.10045824714400992	-0.0446203292142891	0.9939402229518441	0.28498215844359426	-0.9558463972225301	-0.07171355719485241	0.9532540636942406	0.29045944835298043	-0.08330665587394043
217														9.697964825615486	-0.7915302462039708	-0.8204326299276875	0.10076159650270311	-0.043873388707453345	0.9939427681881644	0.28472263542128484	-0.9559724439360406	-0.07106129265438212	0.9532995969520729	0.2901582537138627	-0.0838335628059379
218														9.75198921514909	-0.7934046900388937	-0.8230125288132458	0.10104981625865089	-0.043085474994382256	0.9939479747343932	0.28461391637969047	-0.9560553465571617	-0.07037821340784937	0.9533015541984121	0.2900031313002925	-0.08434649132547173
219														9.719409264628071	-0.7674364239758905	-0.7649488186030817	0.10130119588363468	-0.04232923979949696	0.9939548798464359	0.2845923238574004	-0.9561098224759179	-0.06972242513362557	0.9532813209719315	0.2899348941108437	-0.0848084916912441
220														9.712793269312467	-0.7429983217013044	-0.8068970502374282	0.1015573772541532	-0.04153674829102026	0.9939621711446903	0.28450704423628725	-0.9561856299386954	-0.06902740672133216	0.9532795187693847	0.28979948178033266	-0.08529020726121922
221														9.68383217575637	-0.7823753351968951	-0.8123028327125508	0.10183920375419114	-0.040722395700593494	0.9939670331892889	0.28434822226872186	-0.9562842384016393	-0.06831210637372107	0.9532968399566477	0.28958960940096123	-0.08580788457751881
222														9.744753060465902	-0.8013376788910661	-0.7777622759548677	0.10218079392817014	-0.03988762336612138	0.9939658257980558	0.28418886821602474	-0.9563826070667995	-0.06759434948430668	0.9533078057659569	0.28938086737432056	-0.08638831554893367
223														9.723409063508985	-0.7931330031587648	-0.794476069085192	0.102445653227976	-0.03902737637925302	0.9939727119129808	0.28415316772250104	-0.9564461807834919	-0.06684071018428829	0.9532900216659993	0.2892880349368497	-0.08689400114170448
224														9.741765739532477	-0.7332189524230259	-0.7770097077344335	0.10263179461662808	-0.038187768137950204	0.9939861211799754	0.2841581114337964	-0.9564970457562261	-0.06608758707949937	0.953268525883525	0.2892319066497582	-0.08731564427751282
225														9.680809230711874	-0.7767264467425677	-0.8261230630353388	0.10291966279610942	-0.037240029703727334	0.9939923154620464	0.2842374746080213	-0.9565298146357111	-0.06526692685753169	0.953213827553078	0.2892471156306272	-0.0878607139794173
226														9.680970808510903	-0.67974524374304	-0.7734835250077413	0.10328104916646547	-0.036316237020702496	0.9939890119169985	0.2843228705828237	-0.9565570385617115	-0.06449137338894093	0.9531492696039889	0.28927454590182156	-0.08846867777172823
227														9.727964377876301	-0.661871986113524	-0.8154925004500743	0.10371744871243194	-0.03531070479493399	0.9939798010822302	0.2843994782314529	-0.9565900681399928	-0.06365829339215671	0.9530790248527464	0.2892898125804114	-0.0891727353114673
228														9.728169524531934	-0.6656937367396869	-0.8746648630948985	0.10402337407827711	-0.03431819355312074	0.9939825950370669	0.28435048182225364	-0.9566621616018662	-0.06278783358817966	0.9530603029886531	0.28917083212263184	-0.08975683103074472
229														9.67427783022919	-0.7263480643227351	-0.8867192058921466	0.10429419286980596	-0.033317689905887654	0.993988255902941	0.2842837080725159	-0.9567400158873434	-0.0618976196991958	0.9530506254434631	0.2890302294557108	-0.09031075131235994
230														9.660111925723312	-0.7467745640330848	-0.9190755411810173	0.10459728691729797	-0.03225537313258345	0.9939914478875657	0.284382618328079	-0.9567699941769514	-0.06097298283259196	0.952987898119597	0.2890514991255282	-0.09090267812819475
231														9.66021695972503	-0.7379454329454215	-0.9250836457804538	0.10501591571556496	-0.031153850756472118	0.993982442012667	0.2847651142017049	-0.9567132412310888	-0.06007165543577339	0.9528276272128718	0.28936000351836433	-0.09159858723659936
232														9.703374540713567	-0.7182044763578491	-0.8558661657482433	0.1054764432987606	-0.029963476384962134	0.9939702762115028	0.28524902973819066	-0.9566291379672155	-0.059107388924930726	0.9526319913494739	0.28976349403441076	-0.09235478646234763
233														9.692569300729271	-0.7026367288374687	-0.8424325065597082	0.10602795999463016	-0.028783473909395424	0.9939464690460368	0.2857285304455973	-0.9565428847763023	-0.05818003500539459	0.9524270463341412	0.29016757436615265	-0.09319603101895907
234														9.634922758831578	-0.7215899128826356	-0.9008886534359422	0.1067410759387859	-0.027499378439607702	0.9939064980635078	0.286211902410959	-0.9564574117101654	-0.05720110578468657	0.9522022314748743	0.29057357720571647	-0.09422264379725043
235														9.627091662716602	-0.706547660357987	-1.0032858391663735	0.10780863023531267	-0.026066988859133472	0.9938298704197834	0.28680455782178826	-0.956339477710938	-0.056195631362400106	0.9519035901074406	0.29109331057821997	-0.09562551791848123
236														9.626153182561207	-0.7088954678359468	-1.0710279731033434	0.10912652895662367	-0.024590209025270593	0.9937236649582079	0.28749759249704715	-0.9561874482507093	-0.05523312517139453	0.9515442895558152	0.2917205605162081	-0.0972757913657265
237														9.679727086994797	-0.7833110309123348	-1.0901814856442542	0.11047676930672223	-0.022964729012762586	0.9936133577327346	0.28847486566732833	-0.9559539614722455	-0.0541689525811323	0.9510926008132783	0.2926168907751063	-0.09898595815237321
238														9.671118905147857	-0.7557359625613225	-1.1434614096014655	0.11175689624422502	-0.02137122004453415	0.9935057458795423	0.2897392009713583	-0.9556288169862772	-0.05314846720167281	0.9505585681915326	0.29379726870618883	-0.1006060303284404
239														9.6484141168478	-0.7459251000196822	-1.1691415475939722	0.11293407735864097	-0.019830412081359272	0.9934045746461189	0.29125675251760547	-0.9552208207430676	-0.05217938033207098	0.9499554717375185	0.29522862052250975	-0.10210124064047937
240														9.661031320456237	-0.6303736749202337	-1.151435030223682	0.11396595330574583	-0.018367671595986068	0.9933148494446533	0.2928004642434239	-0.9547991381743062	-0.05124933053648002	0.949357493058304	0.29668372786815245	-0.10343653122716395
241														9.662725539697572	-0.6109177114637997	-1.2236104163165258	0.11516713667159212	-0.016928382971593908	0.9932018729748922	0.2942372255674286	-0.9544033515073971	-0.05038549118377385	0.9487681411816318	0.29803971628193293	-0.10493494078397331
242														9.581212753331874	-0.5419622328758477	-1.2415283312149865	0.1166296401141742	-0.015411763738215623	0.9930558919745233	0.29568273412994883	-0.9540011975909701	-0.049532168662727916	0.9481398882993356	0.2994064002880906	-0.10670782390364564
243														9.593006811044532	-0.5171956207429664	-1.286472608149512	0.11838471594090055	-0.013808358542008375	0.9928717884329111	0.2971845759654528	-0.9535774597939607	-0.04869657052741075	0.947452577620551	0.300831111102679	-0.10878536552726786
244														9.58040954905908	-0.5931074839663163	-1.3431009667746192	0.12034525877074309	-0.012091936520282676	0.9926584527230864	0.29874467611419353	-0.9531337875974077	-0.04782887656682591	0.9467146545738203	0.30230740647792353	-0.11109273065220326
245														9.585006699534858	-0.6162512708575378	-1.3810059643699517	0.12252831782621776	-0.010420389501040683	0.9924103117225875	0.3003586034448239	-0.9526633875955175	-0.047086933131258085	0.9459236336340011	0.30384845798140747	-0.11359838869882122
246														9.56522804452951	-0.6505516027652352	-1.3731234530454863	0.1249488002221068	-0.008729649207339263	0.9921247857743363	0.3021221131369869	-0.9521379832496653	-0.04642725069290238	0.945044986271393	0.30554386604541206	-0.11633107858747621
247														9.628056137858787	-0.55826077087231	-1.4223874855319218	0.12752064618501785	-0.007080068170869286	0.9918106459557948	0.3041223969468382	-0.9515268008737332	-0.04589460637491613	0.944059347960638	0.30748434082680465	-0.11918610520710954
248														9.725372204914864	-0.44733536885878655	-1.376454378148601	0.12996481079171546	-0.005593250879805917	0.9915028308080965	0.30609054112436884	-0.9509151304496122	-0.04548621017613555	0.9430894594841278	0.30940124470756747	-0.12187346381941916
249														9.80552172480252	-0.39019629107205517	-1.3491140480140316	0.13212792946896457	-0.004225371187014576	0.9912236662290586	0.3078605215927568	-0.9503625323192015	-0.04508831787137568	0.9422123484113758	0.31111606098394606	-0.12426860866266076
250														9.811429292467665	-0.3164286225052517	-1.3891668954229464	0.1340195950674526	-0.0029973388660040345	0.9909741490562094	0.3094355005613657	-0.949868248907231	-0.0447211438834898	0.941428924099049	0.3126360914508002	-0.12637347503362345
251														9.803140225738757	-0.2696575684677878	-1.3406395748016156	0.13567354595827402	-0.0018688745872024737	0.9907518338286764	0.31091430372159196	-0.9494018236460433	-0.04436747681449474	0.9407045150675241	0.31405840948037733	-0.12822765211228754
252														9.799973426065407	-0.1858224935678454	-1.2431043808993887	0.1370786743329922	-0.0008110267788254688	0.9905598312462871	0.312346876279065	-0.948948540445339	-0.044001096183736654	0.9400259921522485	0.3154298809913607	-0.12982728625353018
253														9.771117361634627	-0.2260430900642068	-1.1441517906868428	0.13824615414729258	8.645444123964174e-05	0.9903978964987317	0.31369843951439835	-0.9485162830098619	-0.0437052618272335	0.9394047529737724	0.31672835899361024	-0.13115584889550447
254														9.73381479757711	-0.24939632169403828	-1.0801185542053644	0.13917928732233564	0.0009499438710599273	0.9902667436539958	0.31498525551093504	-0.9481055469979802	-0.04336081828531049	0.9388362023224062	0.3179543510604983	-0.13225587265047878
255														9.65097909639402	-0.2919755624417227	-0.9166341540292737	0.13990536949939958	0.0017291278249670639	0.9901633691983364	0.3162402545861913	-0.9477028384059334	-0.04302826346249458	0.9383062341072327	0.31914940105584066	-0.13313553560639158
256														9.65407923234516	-0.26077268329555897	-0.820757856971423	0.14086527661113896	0.0026316595358620576	0.9900252765527531	0.317498244410664	-0.9472989206224594	-0.04265700157852581	0.9377376171623992	0.3203401775544419	-0.13427707176943887
257														9.620204743196627	-0.2598682421177763	-0.7636507834498489	0.142162849370767	0.0036094351439599492	0.9898367018032453	0.318647606321893	-0.9469284013367107	-0.04231200452862305	0.9371517631867922	0.32142429080553925	-0.13576817755292897
258														9.705357570072566	-0.2692078513219	-0.790428430917729	0.14367159581867084	0.0046910493671311615	0.9896143019433136	0.3198453294817029	-0.9465407142918082	-0.04194807977362908	0.9365134477217386	0.3225502600274707	-0.13749142516009372
259														9.748263781795744	-0.2650200440241311	-0.7871779963227756	0.14531187730567058	0.0057720868489065935	0.9893690622448787	0.3211123199368745	-0.9461251168306781	-0.04164302206725995	0.9358265524650711	0.3237498205644979	-0.13933670509164237
260														9.77493792176233	-0.2052979727968244	-0.8666212625907164	0.14696439260175342	0.0067459241993038654	0.9891187794263613	0.32227689389937275	-0.9457382356543789	-0.0414342042268791	0.9351679373063267	0.32485948058820685	-0.14116390086063202
261														9.823490906191717	-0.14598826136835696	-0.9355777487798407	0.14854364594128983	0.007685108041647487	0.9888759903874987	0.3233572478993715	-0.9453785026321415	-0.0412259262109905	0.9345452773843613	0.3258840681521541	-0.14291500496165205
262														9.819415555818596	-0.15783879484655142	-1.0053674809837294	0.15004720100600338	0.008536333041207045	0.9886419819573082	0.3242486932196576	-0.9450807224018758	-0.04105134699000623	0.933996050535338	0.326725510425126	-0.14457461195463223
263														9.770754964668436	-0.1707939137309965	-1.095361542202106	0.1516372093193018	0.009358470596831148	0.9883919140593687	0.3250228586337091	-0.9448205227649336	-0.04091846927451703	0.933470030646633	0.3274547278484247	-0.14631166424550013
264														9.741329742171656	-0.20752251009108463	-1.1687954623951222	0.15325978253725225	0.010177117089762072	0.988133526070427	0.3256064338438608	-0.9446258745366468	-0.04077263046896201	0.9330015483889175	0.32799143806449627	-0.14808689091295701
265														9.740875066084381	-0.2745865632089938	-1.2478749680278307	0.15508753282602372	0.010974637999839443	0.9878397716647723	0.32579376284816614	-0.9445663681231107	-0.04065464672026092	0.9326340553781906	0.32813706515949825	-0.15006593623251518
266														9.714949305619633	-0.3562677309251699	-1.3906027165679866	0.15691310734181269	0.011764486294016857	0.9875423401589295	0.3258295194295854	-0.9445598442556924	-0.040519438396252744	0.9323161486387664	0.3281284770968532	-0.1520470371479748
267														9.736773824807132	-0.322834836564987	-1.465290109247679	0.15873720672882446	0.012490970109267058	0.987241852266029	0.32603856996448755	-0.9444896871500257	-0.04047322278690649	0.9319341983720967	0.3283035280544149	-0.15399819275427112
268														9.72347436064427	-0.29740283747080526	-1.5806791671642693	0.16047814191223375	0.013193603669890835	0.9869512119606516	0.3263930654114584	-0.9443683590654749	-0.04044711667466447	0.9315118532899669	0.32862490961304847	-0.15585678028917205
269														9.785272227961308	-0.20992480986033185	-1.625076827544486	0.16195944811110968	0.01384249089352324	0.9867003205702366	0.3268013607012494	-0.9442293620912297	-0.04039532656881478	0.9311122423270767	0.3289974121640656	-0.1574506112340987
270														9.706518360602182	-0.2033762792267813	-1.6469216463201914	0.16304951265157513	0.01424298121957468	0.9865150753587414	0.32681336115078435	-0.9442257475178499	-0.04038272771476509	0.930917764035799	0.3289906916773432	-0.15861034453103134
271														9.616217208830824	-0.21307540540376688	-1.6372324649307703	0.16388542550964963	0.0145785482798165	0.9863716506649891	0.3266513716146787	-0.9442846273129223	-0.04031654800135656	0.9308278297987074	0.3288069472358358	-0.15951659074115182
272														9.587303565609691	-0.2594633963880588	-1.6426424011376608	0.164751239266495	0.014966668330848087	0.9862215917324203	0.32638747366798754	-0.9443811715191655	-0.040192286731632415	0.9307675575527884	0.3285121028503568	-0.1604729014134592
273														9.550255872716072	-0.20733209730593283	-1.5732000620278546	0.16575429931075691	0.015275823602073801	0.9860487622188258	0.32584113553477806	-0.9445720182422647	-0.04014046271707716	0.9307808907865515	0.32794870264572323	-0.16154436474102274
274														9.575264806228953	-0.2600583412763611	-1.5823026521006074	0.16685111309719408	0.015640412494318467	0.9858580443224243	0.3249976002858515	-0.9448679498262138	-0.04001396255865697	0.93087983427866	0.32707787281963185	-0.16273536568650177
275														9.59402514382849	-0.2911615976043997	-1.5192489034558225	0.16816707657516783	0.016066490122930877	0.9856275677208364	0.3241239401954307	-0.9451730426652306	-0.03989474666092721	0.9309476385642488	0.32617447373159125	-0.1641545215264234
276														9.59325713659752	-0.36739300362119914	-1.5376799275798658	0.17011184681985386	0.01675754882655406	0.9852822662206325	0.32353445304196116	-0.9453798113890339	-0.03978027039720644	0.9307993431811062	0.32553985435789806	-0.16624195005551673
277														9.634303848586537	-0.3658848821946974	-1.5418999489205356	0.17277218903944752	0.017737608435320545	0.9848020856707774	0.32317109190161886	-0.9455088541385581	-0.03966676322447593	0.9304354980618664	0.3251128788476188	-0.1690899167714643
278														9.65869543011659	-0.39468680562240255	-1.5775890690495424	0.17595847132337145	0.018887101360910624	0.9842163856448062	0.32278412398716927	-0.9456454809319333	-0.0395605067567317	0.9299725940431679	0.324650430147869	-0.17249078970607584
279														9.671691629089928	-0.406867253571214	-1.6539759715504223	0.17915345635899244	0.020145886536825364	0.9836148546714168	0.32241282087278944	-0.9457808137741037	-0.03935257594675512	0.9294912651614741	0.32418018994448117	-0.17593519385297224
280														9.638613769116434	-0.3771889159637667	-1.8716631870243168	0.1818389660568811	0.021304477873420546	0.9830975076999766	0.3219322963420532	-0.9459571617509825	-0.03904669901486904	0.9291362585731422	0.3235910495588008	-0.1788704717110592
281														9.49621673383979	-0.3993177288193154	-1.9468204988803541	0.18389906894611735	0.022244656561713982	0.9826933945515266	0.3213100370090036	-0.9461824946794233	-0.038711069211480376	0.9289461731220081	0.3228681805577544	-0.18114951124775752
282														9.463243760522674	-0.40134024426857506	-2.0874860501706	0.18557275702050602	0.023037383129062672	0.9823604383475407	0.32074337733935093	-0.9463875607836901	-0.0383962327168092	0.9288091503343162	0.3222108995246148	-0.1830128369344174
283														9.394464033147269	-0.3403649435860378	-2.011717754885452	0.1869929244927641	0.02384124636170956	0.9820719124186191	0.3203428439018955	-0.9465385299749581	-0.03801675464438553	0.928662537497066	0.32170857347103116	-0.1846333805267752
284														9.472987152093978	-0.2936309762242055	-1.8409339184536433	0.1883144130806011	0.02464573385501237	0.9817995058202345	0.3199923432669488	-0.9466732366391003	-0.03761227567932052	0.9285163337694367	0.3212512581049262	-0.18615866106460416
285														9.572296864737329	-0.30278973297211853	-1.5890703617883017	0.189716711016438	0.02542860306662742	0.9815095290964754	0.31937008628954955	-0.9468996552282749	-0.03719934020892662	0.928445107448206	0.32052211947797565	-0.18776382340811898
286														9.66035466298665	-0.36335824537212474	-1.4376222284476938	0.19131896326982856	0.026258321293166964	0.9811766175649635	0.31850400946938395	-0.9472086469595768	-0.036755612862989895	0.9284138356601997	0.31954073243934367	-0.1895823569503322
287														9.693747700492422	-0.45257077315007593	-1.4120180834739273	0.19309844165165413	0.02715162747865149	0.9808036403668999	0.3176796183184055	-0.9475024702687909	-0.03631430764328358	0.9283278795429849	0.3185935623326363	-0.19158676912413775
288														9.668541580827416	-0.48251502503562177	-1.37693646706608	0.19521535062813394	0.02815454075581103	0.9803562050163015	0.31717483108895933	-0.9476857683943737	-0.03594177105341312	0.9280576993931062	0.3179606991714467	-0.19393272127101174
289														9.655027806125519	-0.5075737035226754	-1.5060501830185098	0.197577043595679	0.02923029154816495	0.9798514693054249	0.31696145375462226	-0.9477685957125179	-0.03563882454399839	0.9276307178385951	0.31761655976527847	-0.1965221928564856
290														9.552972720334905	-0.4433261047348254	-1.618653209582688	0.20023050910423623	0.03023210921550923	0.9792822692136524	0.31687308149930593	-0.9478022426643753	-0.03552969211118148	0.9270917934298594	0.31742231864310144	-0.19935866718616668
291														9.521235841942898	-0.3996912364518832	-1.780897075618266	0.20316772833290325	0.031379063613898084	0.9786410110611359	0.31688217465259433	-0.9478042412171469	-0.03539502391906066	0.9264494382056099	0.3173050183931907	-0.20250670050891278
292														9.521636261869034	-0.3395476689903217	-1.964667462546905	0.2062894908255778	0.032560140374732593	0.9779491209841654	0.31677597903352134	-0.9478446533657863	-0.03526318467249545	0.9257956713456151	0.31706521465570797	-0.20584466126924894
293														9.505623148885059	-0.343034525240445	-2.108399726998351	0.2094665969046548	0.03366204353012886	0.9772362107528347	0.31634533584010727	-0.947992574742111	-0.03515262047178483	0.9252293625222845	0.31650741706822494	-0.2092216089877144
294														9.553498525326741	-0.33566433967332165	-2.284454872881717	0.2124847973104823	0.0347558147571195	0.9765460789192149	0.3158012965136714	-0.9481807620101599	-0.03496832386772644	0.9247268526609405	0.3158247550373511	-0.21244992839111465
295														9.540231222017384	-0.3482020327582479	-2.366927688043083	0.21526708721615473	0.03569527961035565	0.9759026222810405	0.3152413014231964	-0.9483715029578884	-0.03484844694395389	0.9242743115755636	0.3151465363778169	-0.215405797439585
296														9.56901587560349	-0.30673072972610993	-2.419811767104175	0.21768130532267171	0.036594615392412655	0.9753336267335909	0.31494691712749506	-0.9484745644857855	-0.03470504164219365	0.9238091191934105	0.3147329576764738	-0.21799054256392492
297														9.542476039317025	-0.3393930105721093	-2.3860191672945583	0.21973685406010657	0.037323780720654315	0.9748449365722142	0.31476394268454655	-0.9485379203736373	-0.034633423147811426	0.9233847385318036	0.3144562751893693	-0.22017691895514568
298														9.529630949661794	-0.28837421035623956	-2.315882902363052	0.2215944904457951	0.037914141865425494	0.9744015597538195	0.3146254870752927	-0.9485835665891106	-0.034641305975912806	0.9229879114520964	0.3142478878905797	-0.22212964743502023
299														9.49246897802453	-0.26123339146439706	-2.2462464139231555	0.2233792081822754	0.038508981638932765	0.9739706297856169	0.3143756575581046	-0.9486681494847753	-0.03459317979083021	0.9226427668858453	0.3139200542913174	-0.22401902648428607
300														9.461515231726759	-0.2639415531936387	-2.1927970896853446	0.22531587170737777	0.03914801531964843	0.9734989423996713	0.31390695610932384	-0.9488268163753786	-0.03449775982790698	0.922331383431641	0.3133609826119032	-0.2260745755576663
301														9.480226452434815	-0.31941171017900066	-2.1338492562210334	0.22749500333616396	0.03988669400153233	0.9729620111282392	0.31336576590517873	-0.9490104921409674	-0.03436542688547051	0.9219804337488625	0.31271094871780236	-0.22839426949087954
302														9.487801336559668	-0.33503422212043493	-2.1207939603984594	0.2299563756857298	0.040676479164120344	0.972350497158455	0.31284165402663333	-0.9491865510320913	-0.03427813947231617	0.9215477007661427	0.31207421454297407	-0.2309967961466609
303														9.535958550449132	-0.3406713048447985	-2.152263964350077	0.23256290848926375	0.04148133257820372	0.971696347961929	0.312251415664641	-0.9493835392059904	-0.03420451578571265	0.9210936689666483	0.3113682619218663	-0.23374400197077594
304														9.53976856895501	-0.3234761726657212	-2.207662834832811	0.2352350419688104	0.04229800605088882	0.9710176897019188	0.31174988173233187	-0.9495499318257169	-0.03416047730425395	0.9205848609823052	0.31075039123691595	-0.23655381644838147
305														9.564272403503033	-0.3296384688671165	-2.249105293105178	0.23794249128872041	0.04311804026934729	0.9703217020363137	0.31123937854471306	-0.9497188517033459	-0.03411967119389439	0.9200616392842484	0.3101208430960576	-0.2393985016556543
306														9.560168407528533	-0.3262756057848007	-2.356820529036598	0.24049479942365343	0.04382938442478265	0.9696603717338984	0.31064682604697513	-0.9499131944799315	-0.03410971151846168	0.9195981736155839	0.3094251250526966	-0.24206464233548436
307														9.550282323314498	-0.2928300162093533	-2.446743315217826	0.24283429730669587	0.044456028503404355	0.9690485878330706	0.31001875762285064	-0.9501187036598449	-0.03410013017160751	0.9191952316964813	0.3087039204244755	-0.24450361048665864
308														9.559656396460575	-0.30623952126684256	-2.514262029936057	0.24503828898115654	0.045030742859323264	0.9684670717844388	0.30932876880869864	-0.9503443875497968	-0.03407723345427388	0.9188427230600906	0.30792495392569263	-0.2468000669152629
309														9.54405299693794	-0.3433343021149221	-2.5820575137421677	0.24713581730037976	0.04553390968809451	0.9679104043638499	0.30859054805609054	-0.9505844941683467	-0.03407334878100138	0.9185291293463244	0.30710874705098606	-0.2489748100251477
310														9.586294374635159	-0.339610136857745	-2.6676101397188514	0.24905575390527113	0.04601275743824515	0.9673955021601073	0.3079547239737189	-0.9507911509122762	-0.03405987858433779	0.9182238939544907	0.3063968235798773	-0.2509698529130817
311														9.532456992449927	-0.3836365491410022	-2.7693937321473454	0.2507021257790619	0.046405267780142895	0.9669513923936984	0.30737000873007314	-0.950980576087288	-0.03405321773289954	0.9179717434992941	0.3057490719968627	-0.25267643956238406
312														9.54368973598208	-0.37720392302178507	-2.7545788785541223	0.2521153170160543	0.04669500753250491	0.9665699370440997	0.30692168699619105	-0.9511234307883023	-0.03410714671300716	0.9177346811455409	0.30526020978343993	-0.2541244957607661
313														9.480491886003872	-0.34178998256681925	-2.7449130582593773	0.25340115289710835	0.046909102662615804	0.966223261879885	0.306508426777484	-0.951253268252203	-0.03420239690276697	0.9175186319769252	0.30482249872161815	-0.2554267101309123
314														9.458461809393789	-0.376554914275431	-2.699157422422785	0.25453072866251497	0.04710014830476353	0.9659170172412321	0.30612488306072994	-0.9513740969133433	-0.034276576453541485	0.9173339981367659	0.3044156759301175	-0.2565724695099341
315														9.453531300476618	-0.401284010668429	-2.703258269673898	0.2556187761448386	0.04724665386239493	0.965622490925425	0.3058864291043224	-0.9514455775470396	-0.034421003122904054	0.9171109713508074	0.3041694703039536	-0.25765946433808923
316														9.405105144941347	-0.3833936335909129	-2.6545016241042427	0.25676777253820315	0.047405421502364514	0.9653098139964978	0.305804408688641	-0.9514648323786903	-0.03461699543839658	0.9168173071077798	0.3040845256812232	-0.2588022925494773
317														9.412129718273722	-0.34851793667440295	-2.6202702244288267	0.25808531422397013	0.04764476697235778	0.9649466030626072	0.3058109260461309	-0.9514555579853808	-0.03481377155000079	0.9164451146101019	0.30407613743744766	-0.26012699696186853
318														9.382577011157476	-0.37788947714016824	-2.5540427125010647	0.25959300141090963	0.04794616581590044	0.9645271581464309	0.3057437577021747	-0.9514706506408497	-0.034990793006623555	0.9160416083588286	0.30398152271582674	-0.26165436285821425
319														9.42497748816836	-0.37952065821586006	-2.5535797358835164	0.2611400775403113	0.04821543461292474	0.9640960179190284	0.3054424403600612	-0.951561734202562	-0.035145150850492524	0.9157023400260215	0.3036536478728688	-0.26321794506524265
320														9.449740118919596	-0.40773270602988	-2.6581778366645636	0.2627300543907861	0.04841238155161265	0.9636540664742282	0.3050629438917518	-0.9516754483698021	-0.03536157850315441	0.9153739775544819	0.30326569585536367	-0.26480256594951956
321														9.501087334863948	-0.39246388525641634	-2.6867205092131585	0.2641937745660003	0.048632002773252386	0.9632427408430505	0.30476904959271245	-0.9517630275028705	-0.03553823137024842	0.91505053187839	0.3029555541409216	-0.26627139599334154
322														9.543932617062461	-0.39083569408424085	-2.765878052144536	0.26546677039406735	0.04874746271390584	0.9628868462573886	0.30468853888604613	-0.9517783476424959	-0.03581719182748236	0.9147088542744243	0.3028888605377832	-0.26751831726835723
323														9.506933823403623	-0.3300373134547922	-2.832745401280571	0.26647836925372215	0.048837138306922684	0.9626028322428039	0.30486651594285685	-0.9517102131271953	-0.03611201581541215	0.9143553391197216	0.30308844278754554	-0.26849899380049835
324														9.474254217649067	-0.32684154633206347	-2.8249704373753044	0.2670881453173026	0.04875246780855319	0.962438112043335	0.3050554946673221	-0.9516367226506728	-0.036451245190821935	0.9141143625412733	0.30333272982858606	-0.2690430954521954
325														9.458776619312511	-0.31679857227282676	-2.784002267587687	0.26744654373990867	0.04859372316544702	0.9623466092372837	0.3050762773066	-0.9516192665536422	-0.036731955415617634	0.9140026319799761	0.3034129555454551	-0.2693320759598607
326														9.370168939619923	-0.3536898821145116	-2.7508980115569828	0.267783435037665	0.04828174467572521	0.9622686241640099	0.30470137239167266	-0.9517274159772794	-0.037040509443603264	0.9140290507320101	0.30312340524657366	-0.26956835053407435
327														9.329946900753287	-0.36635144531356617	-2.709704897715412	0.26820227831631516	0.04805760113159316	0.9621631903577555	0.3041325020367285	-0.9519018996745956	-0.03723163440913238	0.9140957056626057	0.30261070762511466	-0.26991813670038955
328														9.335842485784832	-0.3785041639359721	-2.6555118694379383	0.26887604004276255	0.04784380604796126	0.961985782282549	0.3034436617828409	-0.9521127501611311	-0.03746004677557818	0.9141266975724665	0.3019805973956815	-0.27051820563837037
329														9.331970758213327	-0.40418967076248724	-2.6557965000340436	0.2697562620638398	0.047740902331125656	0.9617444386748254	0.302910677330911	-0.9522733150568019	-0.037691577171266366	0.9140441349498797	0.3014901983072397	-0.2713429189943743
330														9.41749892899324	-0.3764009806579994	-2.618957311556745	0.2707833885007993	0.04764795724969445	0.96146036251213	0.3025214874735037	-0.9523846403703164	-0.038003242013303545	0.9138693047306293	0.30115306566036193	-0.27230447097784105
331														9.477154111017832	-0.36900502154128717	-2.6655611008399385	0.27195329270785246	0.04764049949510313	0.9611304746980059	0.3022815223525035	-0.9524481048823865	-0.0383208657287836	0.9136012739864202	0.3009534686854558	-0.2734222409691324
332														9.536618407222601	-0.3620333034879517	-2.712623504906488	0.27307974573641614	0.04758208899093466	0.9608139243765119	0.30205025240397654	-0.9525070730735298	-0.0386771349454928	0.9133417199992722	0.3007760305479088	-0.27448257131667775
333														9.549808607850846	-0.355304693949979	-2.7726832262557477	0.27395383416773395	0.04745609199410175	0.9605712967174509	0.3018217131940756	-0.952565588297969	-0.0390186293344259	0.9131554906966233	0.30061057753045134	-0.27528227419762713
334														9.554339464454845	-0.36200074584420866	-2.8819616304603586	0.2744877369193489	0.04719269203144097	0.9604318466709232	0.3016165565763266	-0.9526151917223904	-0.03939224922180115	0.913062941466761	0.30049483576018154	-0.2757152853969608
335														9.550911307048548	-0.3856851185359797	-2.9591241653420557	0.2747228710137699	0.04685235735170526	0.9603812788432206	0.3014274556570047	-0.9526602065850163	-0.03974946245597266	0.9130546714836391	0.3004053717894911	-0.27584013392166407
336														9.48810694283322	-0.39975314077735535	-2.9229044983750967	0.2749014045012689	0.046481969882041396	0.9603481890851436	0.3012539846438682	-0.9526994293871641	-0.04012273646654907	0.9130581879263894	0.3003385152145111	-0.2759012898471501
337														9.455738321907	-0.4203000889510736	-2.901360867924282	0.2750174759036242	0.04614117686910754	0.9603313905859443	0.30113904903082034	-0.9527213341443554	-0.04046396687193313	0.9130611486074813	0.30032157974966345	-0.27590992667943987
338														9.41552998459773	-0.35659840855805397	-2.853307209925112	0.2750529991838421	0.04586177804499425	0.9603346005192801	0.30099078150562775	-0.9527577931661012	-0.040707947748472584	0.913099335827491	0.3002487050360294	-0.2758628609211152
339														9.383932153657613	-0.37989902505578776	-2.7503231538900086	0.27514605054303026	0.04554456067452936	0.9603230414103041	0.300717621625206	-0.9528327923558373	-0.04097049981947351	0.9131613016957365	0.3000589322188929	-0.27586423160860524
340														9.368003212321936	-0.39262761968770443	-2.699094339117293	0.27527879308123815	0.04526551614200769	0.9602981928172803	0.30032789999728415	-0.9529469788433504	-0.041172903669190936	0.9132495488983053	0.2997383668497058	-0.27592059161163207
341														9.398599629553887	-0.40509883661752594	-2.633932664517508	0.27544828824563794	0.04501148499195923	0.9602615303766816	0.2999539332931364	-0.9530563435203612	-0.04136718479152254	0.9133213445466631	0.29942874326693814	-0.27601911039103344
342														9.382457050110002	-0.41758273247569677	-2.5834849441485224	0.2756287997367622	0.04478929751938973	0.9602201224632778	0.29971174347862983	-0.9531235687356625	-0.04157323106995153	0.9133463940787594	0.2992480268077221	-0.2761321837001494
343														9.40246312631014	-0.36637156152349865	-2.5673825097618947	0.27584022955923787	0.04458260101127087	0.9601690264967816	0.2995773987680917	-0.9531555988116607	-0.04180653778213195	0.9133266392173455	0.2991768643144969	-0.2762745988231536
344														9.413983834639646	-0.4053993642052503	-2.606867969007947	0.2759955975598751	0.04436069645775398	0.9601346565650832	0.2993939083265487	-0.9532037837313565	-0.042021831673303534	0.9133398698099857	0.29905630789202275	-0.2763613701758445
345														9.44401784463228	-0.41436354519475505	-2.6225334783255634	0.27612527875707826	0.044085393896021646	0.9601100501902675	0.29910279663614237	-0.9532851205851796	-0.042249212008481446	0.9133960518174817	0.2988376765334849	-0.2764121842616638
346														9.439313810072019	-0.46001854648116364	-2.690856044537053	0.2762365706304443	0.04376818565158255	0.960092549169662	0.29878602629382667	-0.9533731070806435	-0.042504460788770626	0.913466073556033	0.2986035241254999	-0.27643383990017506
347														9.404471886342488	-0.498807466169368	-2.743515644042174	0.2762698088423533	0.04354655429249549	0.9600930633701402	0.29865803271072583	-0.9534046253729682	-0.04269660191149771	0.91349787751235	0.2985352875736479	-0.27640244183753293
348														9.42774285508981	-0.5014174401159837	-2.7360502915314493	0.27637141916853364	0.043380118762510855	0.9600713535789522	0.29874118496477653	-0.9533685415519636	-0.042920023123521	0.913439950446997	0.2986747215203069	-0.27644324490237643
349														9.42419711428615	-0.4471518082504262	-2.8068615015567784	0.2764442926518699	0.04314561551150506	0.9600609402128286	0.2989152934220516	-0.953299994511134	-0.04322924731568345	0.9133609365517095	0.29892737634282524	-0.27643122698815853
350														9.46401804267966	-0.4438752870931758	-2.7692357706047224	0.2765081505369521	0.042872638833474364	0.9600547794402614	0.29902758132181234	-0.9532499484633403	-0.043555038324703726	0.9133048495959393	0.2991261817261972	-0.2764014817443007
351														9.412788143531303	-0.4165757564684166	-2.7659904270251947	0.2764400462638481	0.04255496223973734	0.960088525090482	0.29897710913391695	-0.9532530371333536	-0.043833040163375164	0.9133419890903782	0.2991616993948468	-0.2762402732760374
352														9.418287763054595	-0.4495450791711721	-2.779569869952517	0.27624093744055844	0.04215201539715685	0.9601636069336934	0.2988952569005637	-0.9532643740161082	-0.04414361373997294	0.9134290174306421	0.29918262120256206	-0.27592968177790633
353														9.417116624937828	-0.47578257486833975	-2.7698255018574987	0.27599579781689854	0.04182341384238941	0.9602484687006707	0.29892409377937557	-0.953243479441684	-0.04439881822854877	0.9134936812838903	0.2992952905684967	-0.27559322070385983
354														9.457818974803764	-0.47252521922776297	-2.72898940686674	0.27572223828802467	0.041450833725897335	0.9603432072425303	0.29911282267558137	-0.9531684854464126	-0.04473653610683134	0.9135145136364763	0.2995858253242627	-0.2752082241509006
355														9.454092408471459	-0.44591217382917675	-2.7082980284406735	0.27536741211257265	0.04110164631034066	0.960460016355186	0.2994350696623662	-0.9530518501004301	-0.04506451016532864	0.9135159699768354	0.3000047094475798	-0.2747466958974296
356														9.446389095109012	-0.46611359440974265	-2.674342317465355	0.27497286672887644	0.04066638349016749	0.9605915718018426	0.29961860741564045	-0.9529771510453169	-0.04542289814470413	0.9135746344186754	0.30030117355645225	-0.27422726434000255
357														9.419712962046145	-0.4390111706201841	-2.6596491724911666	0.27449299069454675	0.04020942735713806	0.9607480418981735	0.2995909744893698	-0.9529720423973483	-0.045711425415713436	0.9137279934773113	0.30037890798229755	-0.2736305274915231
358														9.40291473792389	-0.47180630956829944	-2.676778462130615	0.2740336730809699	0.03971915225744807	0.9608995446776432	0.2994165483513046	-0.9530131778588766	-0.04599579764191661	0.9139230145866462	0.30031362235382353	-0.27305027309560065
359														9.325476646787346	-0.4910082181299487	-2.6639625219069756	0.27361427042004505	0.03924355123286968	0.961038591685651	0.2992731835388426	-0.9530440599267143	-0.04628802710130822	0.9140956146033261	0.30027814360195837	-0.2725109976458362
360														9.319624412967098	-0.48726340443478167	-2.637000131949183	0.2733883813178335	0.038875990303243735	0.9611178129336473	0.2992358340653298	-0.9530421583354791	-0.046567800532971354	0.9141754254909951	0.30033198599748623	-0.27218374237849785
361														9.320240382474127	-0.4901090951783633	-2.6342942059309022	0.2733179710074532	0.038578897917513205	0.9611498090099373	0.2992513161795548	-0.9530237584158007	-0.04684405682501919	0.9141914112969849	0.3004286679571236	-0.2720233059506763
362														9.331808551694568	-0.4525152580213931	-2.6678448960996004	0.27327857870329614	0.03832009896027047	0.9611713626807559	0.2991662621149589	-0.9530396979943367	-0.04706252924596224	0.9142310244320468	0.30041122492766215	-0.2719094148855304
363														9.348223937432143	-0.4483324531400994	-2.637269652673434	0.27333099010524625	0.03805704807546087	0.961166911072093	0.2989198318920795	-0.9531068936964459	-0.04726714810440391	0.914295960807931	0.30023142786872725	-0.27188965734321074
364														9.394575367815376	-0.4468813937729726	-2.7035224521495387	0.27347708803286686	0.03782115943819739	0.9611346639362325	0.2984992077563756	-0.9532309437705571	-0.04742352588230639	0.9143896900610157	0.2998671834947001	-0.2719764088539228
365														9.469017721359547	-0.4788131465647386	-2.698388014305619	0.27364258050616697	0.03765759825266396	0.9610939826196851	0.2980744695682847	-0.9533593798867105	-0.04751319157468886	0.9144787306031301	0.2994792114252145	-0.2721044894863368
366														9.464417711142115	-0.5270162042653419	-2.686519653327016	0.27377880686414446	0.037462989637127325	0.9610627915591646	0.2977779790960089	-0.9534445894170811	-0.047662250018129376	0.9145345483236501	0.2992322497972809	-0.27218857544672104
367														9.482988898029532	-0.4950447088812836	-2.742780774046428	0.27357874018051614	0.03720482269019809	0.9611297904496733	0.2977283382422415	-0.9534512569967523	-0.04783865736856266	0.9146105780761314	0.29924321496051365	-0.2719209237468508
368														9.425624654349706	-0.4565612462171323	-2.79543408851435	0.2731440910495091	0.036768387432544375	0.9612701967763009	0.2977915574599578	-0.95341587879855	-0.04814925088058658	0.9147198991113676	0.2994098324043472	-0.27136922896542726
369														9.40628892066041	-0.4388838279546719	-2.7220244396499305	0.27258577318592175	0.0364094918772139	0.9614423254454094	0.29778605359599974	-0.9534088425414555	-0.04832230589988812	0.914888224069123	0.2994760889703969	-0.2707279254060084
370														9.352357244473813	-0.5340134630475759	-2.7064378492637964	0.2723490344956971	0.03612446235084754	0.9615201644422882	0.297577772565636	-0.9534665511055267	-0.04846653688688618	0.9150264874221605	0.29932684333817355	-0.27042553165902866
371														9.367087268967984	-0.5519147028586056	-2.6678167647038977	0.27224438405106505	0.035972124480209366	0.9615555114568461	0.2972979444765858	-0.9535520884894066	-0.04850099738652924	0.9151485822327725	0.2990726012156104	-0.2702936396578272
372														9.413896957547893	-0.5529503725164923	-2.6520346700292206	0.27223328536656716	0.03583135687962763	0.9615639095778763	0.29712794935976405	-0.9536007051433575	-0.048586797171176116	0.9152070913447878	0.2989344560505802	-0.27024835048147294
373														9.425485057269585	-0.5135896078874407	-2.6863304302299587	0.2722025058653541	0.035734922262661534	0.9615762118165699	0.29715803339929103	-0.9535865089295124	-0.048681343180854736	0.9152064788816178	0.29899127966967176	-0.270187556513257
374														9.486429392344379	-0.5323978200783899	-2.6339320652973677	0.27206328345927044	0.03558578617713379	0.9616211424545095	0.2973817328223358	-0.9535081384953996	-0.04885012596321969	0.9151752153423657	0.2992588873286688	-0.26999711772139645
375														9.430915696063469	-0.47338615749067864	-2.613654284480033	0.2717956367480693	0.03541896814234957	0.9617029835351673	0.29767749515914155	-0.9534073369338993	-0.04901590309673959	0.9151585877433978	0.29959964381878185	-0.2696753839399665
376														9.401498519884862	-0.4683075166756003	-2.5950562278353315	0.27154366150569015	0.03516152463219649	0.9617836072015487	0.2978030530247142	-0.95335728574953	-0.04922628685416611	0.915192537942286	0.2997891807484534	-0.2693493374800258
377														9.4234812144981	-0.49001872864373547	-2.659017476467754	0.2713479540733787	0.034965346680356946	0.9618459920131261	0.2977770503816948	-0.9533590354397765	-0.04934954722504892	0.9152590431600061	0.29980656109708836	-0.26910390156400305
378														9.373176792857624	-0.5375641094365995	-2.658615025723184	0.2711919470936245	0.03486498117195111	0.9618936328510796	0.29778205516287937	-0.95335486729245	-0.04939984446095169	0.9153036520491655	0.2998315028439704	-0.2689243284788222
379														9.443862875591236	-0.5356170204483287	-2.7145202089989446	0.27094935421431116	0.03470023818222956	0.9619679521277952	0.29790379879653867	-0.9533105934519648	-0.049520087589319195	0.9153358804905655	0.29999134301235925	-0.2686362224351025
380														9.475226344251412	-0.5439570159817396	-2.7256288766878227	0.2705912696591657	0.034517916633468065	0.9620752975809771	0.2982155589761265	-0.9532050113553545	-0.04967581616435504	0.9153402892743207	0.3003476648125024	-0.26822273407166586
381														9.462513792143625	-0.5320547736616635	-2.6754602304524013	0.27004493207558505	0.03432659188055978	0.962235636291942	0.29865900493697095	-0.9530587725949391	-0.04981741412284238	0.9153570524283687	0.30083327786282865	-0.2676206372833662
382														9.405872320885846	-0.4965124409408578	-2.6451429301051204	0.2693735642654152	0.03408654070939024	0.9624323304094754	0.2991397833064804	-0.9528996319250878	-0.04997680982600494	0.9153978768373338	0.30136423015928715	-0.2668826106403375
383														9.395726652224642	-0.4613290182803135	-2.5998651404334443	0.26880074815907734	0.03385808514605812	0.9626005338972976	0.2994877082848132	-0.9527829504683696	-0.05011748081357492	0.9154524948764031	0.30175864422917653	-0.26624885024641604
384														9.396748111509275	-0.46579150187327373	-2.513590052389981	0.2684432035878106	0.033764858057897196	0.9627035788901189	0.29968799378436023	-0.9527181934550502	-0.050151273575562566	0.9154918638792039	0.301973472709236	-0.26586964653925005
385														9.41634814491044	-0.5136451871555083	-2.489970699329189	0.2682518416765768	0.0336386773203087	0.9627613353397949	0.2997314970775069	-0.9527005555059042	-0.05022629986787966	0.91553371270358	0.3020431938098951	-0.2656462496936799
386														9.449671733243122	-0.4977355622341776	-2.508482497125949	0.2679705386444369	0.0335174211571847	0.962843898509817	0.29971441960321277	-0.9527047044559924	-0.050249505364032526	0.915621677932824	0.30204358722938074	-0.2653424472508834
387														9.44832148503143	-0.5217937676604971	-2.4985616226979728	0.26762257917047183	0.03333423569559901	0.9629470306557546	0.29974574103206414	-0.9526907996558822	-0.05032624548061149	0.9157131897331627	0.3021077108940225	-0.2649533641362012
388														9.42848041378515	-0.49920521860207273	-2.5079741597097445	0.26722438014864314	0.03313436863769406	0.9630645068058296	0.29990882570379507	-0.9526333977805237	-0.05044111119023861	0.915776079027589	0.302310639984961	-0.26450415881936373
389														9.374343290702818	-0.5133436882530112	-2.570505694084397	0.2668335532614275	0.03296269500499427	0.9631787557831046	0.3001083918256248	-0.952565260710625	-0.05054084727363847	0.915824660079493	0.3025440213015417	-0.26406875461700136
390														9.410330503990624	-0.4743514031988258	-2.594102217050329	0.26654605145177745	0.03284180170079118	0.9632624868209665	0.3002287770694281	-0.9525241232337747	-0.050601146994160545	0.9158689228677117	0.30268665434533926	-0.26375159792191405
391														9.441603208100435	-0.4817278729974294	-2.605687189630366	0.26628391175774846	0.03276298738683164	0.9633376692502388	0.30021569871764714	-0.9525288557903511	-0.050589654379132154	0.9159494596223458	0.30268030253753786	-0.2634790729324019
392														9.50991045264149	-0.5060036619240822	-2.573222171876341	0.2659666432911657	0.03260178862325891	0.9634307800952769	0.30010456591491175	-0.9525626109742134	-0.05061345365623285	0.9160780502628866	0.30259146642387913	-0.263133825788313
393														9.471912733963688	-0.5128277008650233	-2.6060691554376936	0.2654976654775647	0.03240032297199241	0.9635669196777534	0.3000332717200637	-0.9525837089099258	-0.0506390499551925	0.9162374285560038	0.3025466849772456	-0.2626299257936189
394														9.463996758577121	-0.5300990040490706	-2.571448066599731	0.2648961403869618	0.032150236926136416	0.9637408350141053	0.3000996191896489	-0.9525590935964132	-0.05070889240565313	0.9163897933577826	0.3026508474668024	-0.26197750124258307
395														9.435381676135247	-0.5237422175668	-2.54986603578323	0.2642378561608177	0.03193327106637517	0.9639287429942826	0.3002087151607526	-0.9525230828824328	-0.05073956954564726	0.9165440975278093	0.30278712452009726	-0.2612793036422632
396														9.413973693736704	-0.5242521986346282	-2.5506966007922696	0.26368630119404596	0.03173158222063946	0.964086428310438	0.3004778888425659	-0.9524330963820055	-0.05083537383456127	0.9166147352510308	0.3030912463367423	-0.26067819915505547
397														9.39860729360733	-0.5349525980113528	-2.494100102295422	0.2632609680001898	0.03157557811368494	0.9642077813388509	0.3006463492688807	-0.9523765684866524	-0.05089837393161237	0.9166817525176864	0.3032851045870446	-0.260216659606429
398														9.369274581191405	-0.5283928796170309	-2.4750652420100288	0.26291533035718595	0.03143422588625128	0.9643067035472189	0.30065518839280814	-0.9523722185541134	-0.05092754675812755	0.916778046615241	0.303313446403631	-0.2598441195699738
399														9.396121738737095	-0.5824577405458702	-2.4731387632322286	0.2625992697055562	0.03131471252398879	0.9643967089998019	0.30063491595577263	-0.9523781355111524	-0.05093657142532104	0.916875275519181	0.3033072300157733	-0.25950809883659637
400														9.424718880976013	-0.5361290869786739	-2.475181193883459	0.26239263210060526	0.03122012181842454	0.9644560179774705	0.30071129704535243	-0.9523514791072876	-0.05098407664617771	0.9169093861710752	0.3034006661756105	-0.2592782546137983
401														9.434929302239128	-0.520108499919815	-2.501448817453216	0.26222316949200225	0.03116486183978115	0.9645038935992303	0.30092213295566816	-0.9522817321760135	-0.05104284926668476	0.9168886951418798	0.30362518662053994	-0.2590885307586241
402														9.426961257690104	-0.5345212363588189	-2.5511895053403317	0.26202373437547904	0.031045131017060856	0.9645619536681211	0.30111416750685693	-0.9522152742659629	-0.05115006922038773	0.9168826646581238	0.30384580183825394	-0.25885113087388195
403														9.478658885603856	-0.48889286845964186	-2.5458780906151324	0.2617821872217793	0.030950207998806517	0.9646305878823311	0.30120646102394744	-0.9521838957995192	-0.05119078449759373	0.9169213457493561	0.30395380110286574	-0.2585871854990284
404														9.47359256495796	-0.5565673734407025	-2.6044823159978425	0.26149187838819143	0.030799801108876063	0.9647141388974608	0.3011429488408436	-0.9522020708031065	-0.05122636744604439	0.9170250388623294	0.3039121396225063	-0.25826825102906836
405														9.486501119803691	-0.5169340765361738	-2.636074400484777	0.2611478307331418	0.030678052854207438	0.9648112082560241	0.3011978012914603	-0.9521834808413772	-0.05124942253322237	0.917105062138774	0.30398269010894885	-0.2579008125492483
406														9.48771809692898	-0.5175658830211187	-2.631566926143905	0.26067037607386856	0.03054086930827085	0.964944666983244	0.30140432839565034	-0.9521161253166355	-0.05128659411975661	0.9171730403047593	0.3042073950677939	-0.2573936186547606
407														9.473102981661267	-0.4479187388202887	-2.6527430496827673	0.2600683723837349	0.030383376940739976	0.9651120619344429	0.3017715723403218	-0.951996492845119	-0.051347791947106036	0.9172231788463072	0.30459732109174936	-0.25675301784166993
408														9.437189996999964	-0.43481605385004274	-2.608764988088182	0.259347800481347	0.030139555481345753	0.9653135892449013	0.3020318085772685	-0.9519097998748403	-0.051424891927797506	0.9173415421711978	0.30489234181531744	-0.25597881730592476
409														9.422226466209992	-0.4449217604413071	-2.550017801402463	0.2586101173545719	0.02992965102872358	0.9655180076990553	0.3021136437241429	-0.9518844786254292	-0.051412893594080716	0.9175228353984308	0.3049920578331401	-0.25520911265299745
410														9.424297671106943	-0.4446307477656745	-2.5424032395365193	0.2578952440154757	0.02969560388149428	0.9657164253673597	0.30189645477823496	-0.9519568237963323	-0.05134915987561772	0.9177954966693457	0.304789069255628	-0.25447013489947434
411														9.437290885685748	-0.48413954623164085	-2.4923580269053107	0.25723755256759523	0.02948633150229188	0.9658982336683151	0.3016078495850658	-0.9520530858802889	-0.05126038172401695	0.9180749134017911	0.3045085843130807	-0.2537971147628307
412														9.474719007310476	-0.5207142850541391	-2.516014674101476	0.2566223016452366	0.029276848019250595	0.9660682483491315	0.3013978708337053	-0.9521224081787221	-0.05120784413408194	0.9183160228130677	0.304311987956454	-0.2531598234925533
413														9.463904734616106	-0.4830333869583848	-2.4715662126842592	0.2559948556071204	0.029099634643402317	0.9662400556623134	0.30131736981420904	-0.9521507029279414	-0.05115546463550713	0.918517542865098	0.304240447964185	-0.2525139070855607
414														9.488827563920072	-0.4828523282883904	-2.4569099366357747	0.2553330134193302	0.02888274965824969	0.9664216673017958	0.30125983753983676	-0.9521698776542558	-0.051137406791415846	0.9187206117986442	0.30420110266081957	-0.2518216166183241
415														9.48080851058369	-0.49924927211508663	-2.421255292916857	0.254683353795917	0.02864781825432519	0.9666000681815259	0.30111774899956134	-0.9522158577631532	-0.05111811285463408	0.9189474906308306	0.30407936913518	-0.2511398947392667
416														9.453716563797778	-0.48874203737995564	-2.4809597314194076	0.25402558159766886	0.028436703607669978	0.9667793738914253	0.3008291717424891	-0.9523116281236572	-0.05103305173314715	0.9192240278205824	0.30379913895269617	-0.2504661051897168
417														9.4605612101395	-0.518532664941384	-2.4903661492472264	0.25345955590578606	0.028237764452430397	0.9669337527353004	0.3006590765527206	-0.9523671928897175	-0.050998525408341405	0.9194358994549361	0.3036434727869002	-0.24987650595324895
418														9.472040422361212	-0.5018932598444513	-2.5129846400915348	0.2529272177073403	0.028025309140335325	0.9670793165973577	0.3006040251849368	-0.9523834364109329	-0.051019702985380555	0.9196004798745148	0.3036122067666107	-0.2493082134966098
419														9.445401134618356	-0.47156274526866326	-2.498953740875623	0.2523346951855673	0.02782686875750534	0.9672398187527019	0.3005817811933614	-0.9523906301545986	-0.05101647193165043	0.9197705118235925	0.3036078934561472	-0.24868544913381563
420														9.472590801771775	-0.44836243609465104	-2.490930370411371	0.2517180016323891	0.02758087959890637	0.9674075370466928	0.3004317472623432	-0.9524378978911687	-0.05101779981092913	0.9199884851948383	0.3034820352857861	-0.24803193618504993
421														9.454120559590578	-0.5018013232576864	-2.50135496074293	0.25105169748705775	0.027338360392399452	0.9675875460339095	0.30023154055478574	-0.9525027098361596	-0.050986368873195964	0.920235875873663	0.3033005140217023	-0.24733526022224223
422														9.484337953268943	-0.5321424314044064	-2.5018622331627496	0.2503331001360812	0.027102435958223092	0.9677803453994037	0.30006743367116295	-0.9525568208298015	-0.05094151882917766	0.9204851298235409	0.30315171293553933	-0.2465890604183148
423														9.440513846934978	-0.5117226054243129	-2.435367756166754	0.24955927191166027	0.02681479478948956	0.9679881903119066	0.30009661580775415	-0.9525454835418774	-0.05098159437193586	0.9206857178123572	0.30321290962683134	-0.24576358650535657
424														9.50938882492257	-0.5360664804309495	-2.3968194472143978	0.2488564152324726	0.026595589930659358	0.9681751696846415	0.3001746844156044	-0.9525204181389222	-0.05099031147626243	0.9208505000452769	0.30331094214468124	-0.24502413950807034
425														9.526866121285742	-0.5296764683610361	-2.3583687480665425	0.24806338917528953	0.026339935590262126	0.9683856477374959	0.30027653081296657	-0.9524871621673756	-0.05101187067015822	0.9210312481093126	0.3034376603182938	-0.24418645807407385
426														9.524307757662733	-0.5768438679041001	-2.3363043267267867	0.24713105176266137	0.026018660032544993	0.9686326819722691	0.3002515136618877	-0.9524946575191556	-0.05101917229053593	0.9212900041780686	0.30344185065276835	-0.24320314856925063
427														9.521525248652491	-0.5468394563013457	-2.310325779548012	0.24615086309315848	0.02568289362990847	0.968891191813244	0.3002653908367978	-0.9524894052176619	-0.0510355563674002	0.921547854245301	0.30348693863640963	-0.24216777327502104
428														9.467747637470708	-0.5635209034049079	-2.2877974637248326	0.24523822858683847	0.0253468492624285	0.969131440245366	0.300364240460674	-0.9524549794851673	-0.05109633163341562	0.9217589350215555	0.3036232028129229	-0.24119165910443657
429														9.443999865836561	-0.5102087070733873	-2.277550929248196	0.24447697919187072	0.025078733530027736	0.9693307298181296	0.30047137405850655	-0.9524187714454444	-0.05114134501304696	0.9219262226537496	0.30375901784618725	-0.24037990569202938
430														9.410312253106577	-0.5710450297379919	-2.3179213383643598	0.24389161683603172	0.024884116846663723	0.9694831922039021	0.30058454945474	-0.9523813855335654	-0.05117250353712968	0.9220443632853018	0.30389221315777115	-0.239757617013255
431														9.416578594728046	-0.5249123719157391	-2.3249682782956262	0.24343494455465142	0.02471720193804483	0.9696022316898966	0.30077007388206517	-0.9523193566903628	-0.05123675955630744	0.9221045441958581	0.3041001525833351	-0.2392620044473034
432														9.43075657378229	-0.5627880127350433	-2.358258311371841	0.24306589916631266	0.02460799157689536	0.969697589670627	0.30094993696259315	-0.9522606847113215	-0.051271081472276686	0.9221432123616611	0.3042926800034419	-0.2388678730839287
433														9.48021474805387	-0.5405519364112902	-2.3441869207345	0.24268304148022268	0.024476721774341736	0.9697967990610662	0.30126751036732324	-0.9521555746341339	-0.0513580460124535	0.9221403518852124	0.3046319940261101	-0.2384460518454704
434														9.52239673218465	-0.5321030570016431	-2.3818210455927487	0.2422309009027121	0.024277973289916654	0.9699148264980768	0.3016109283480583	-0.9520394417069351	-0.05149513894892957	0.9221469723145452	0.30501062513834043	-0.23793587372196717
435														9.55457254887374	-0.5402896301294968	-2.3899974587603205	0.24167747377130666	0.024071670233471898	0.970058015462833	0.30191216009570215	-0.9519385237890117	-0.05159548926741292	0.922193605626208	0.30534177837067694	-0.2373296275722142
436														9.54833840242995	-0.5345909340484574	-2.361279338657709	0.24106309310316504	0.02382551437766625	0.9702169499695281	0.30227373898583787	-0.9518164592925794	-0.0517302091553713	0.9222359632236512	0.30574134932059244	-0.23664964705776997
437														9.542177385816128	-0.5289763798221528	-2.332114164173754	0.2404259742799681	0.02358004379196238	0.9703810243539889	0.30261668889611115	-0.9517008752566102	-0.05185155385671564	0.9222898082994747	0.30611995291155186	-0.23594932493301796
438														9.551731410487516	-0.5371986887928841	-2.346921145792826	0.2397656819523405	0.02331551439761778	0.9705507738116043	0.302887846671164	-0.9516084119222885	-0.05196520660639775	0.9223726850340023	0.30642750716460593	-0.23522502578605609
439														9.501483326435606	-0.48735076744244754	-2.266023523650376	0.2391044688006248	0.02301715643718416	0.9707210018893773	0.3031429833260527	-0.9515194004677126	-0.052107218249920734	0.9224605057452329	0.3067263292303263	-0.23449003027237209
440														9.501326258711686	-0.5328435492334397	-2.3267780770388753	0.23849561020772025	0.022732805546725465	0.9708774708806575	0.3032781124462333	-0.9514700604734152	-0.052221743879016264	0.922573699182183	0.30690054345779594	-0.2338157950238018
441														9.464088259480626	-0.520000551863419	-2.2844517565156433	0.2379414750075295	0.022503190286244867	0.9710187747403147	0.3034417224220014	-0.9514131853640155	-0.052307473740053095	0.9226629804889812	0.3070937269669284	-0.2332090634875741
442														9.47577785558876	-0.5047538350393223	-2.3073967333599206	0.23754879411714597	0.022264993985586096	0.9711204047162802	0.3036531045790333	-0.9513370058598686	-0.05246611631420425	0.9226946203880269	0.30734698847459485	-0.2327497930881846
443														9.4944713349293	-0.4758449592172468	-2.278491383888346	0.2370987428861464	0.02204444639172548	0.9712354135353033	0.30377557845491976	-0.9512923836414311	-0.05256613701028043	0.9227700602296264	0.3075009645661083	-0.2322467927329137
444														9.51423108350136	-0.4673730203098843	-2.323081758132735	0.23650139693559424	0.02176591880932907	0.9713873244107619	0.30377614604649494	-0.9512878902011421	-0.05264411695335949	0.9229231508314503	0.30753470492782775	-0.23159288185154314
445														9.525842446737967	-0.5082261152141837	-2.2727900082004826	0.23584537284680496	0.021465564209762866	0.971553492948231	0.30371272257615006	-0.9513045859984142	-0.05270831816486313	0.9231118795964737	0.3075041694213958	-0.2308801497234515
446														9.492117705968921	-0.492217437463791	-2.310880339953762	0.23520422783093992	0.02117000180003417	0.9717153915803941	0.3036330976565994	-0.9513266534697328	-0.052768744589366506	0.9233016371792645	0.30745638621090043	-0.23018396416828063
447														9.53153819808638	-0.48615303862457676	-2.265660184670966	0.234657175017353	0.020948381230887353	0.9718524453520097	0.30359674391242775	-0.9513366138091288	-0.05279833626121752	0.9234527748069457	0.3074407464048743	-0.22959782261895817
448														9.553357257708207	-0.5101705726241974	-2.244678037310541	0.2341066958964051	0.020700636579411097	0.9719905033392433	0.3035542031949484	-0.9513472697164416	-0.05285090468244111	0.9236064641713744	0.3074245534245429	-0.2290005312058736
449														9.53190515893725	-0.5103401524095714	-2.2467484206594257	0.2335129902841901	0.02046150020846854	0.9721383699750541	0.30340280088833443	-0.9513953869853211	-0.052854120332906984	0.9238064861114854	0.30729162798922877	-0.22837125823115317
450														9.545821141844934	-0.5272761046383488	-2.203095965378001	0.23286704423328936	0.020173776355525835	0.9722993152613084	0.30325848708297964	-0.9514394105575279	-0.05288986717781563	0.9240168990457882	0.3071743263775505	-0.22767675219992162
451														9.506754694414303	-0.4804466388608358	-2.2256966970557928	0.23218431192838884	0.01992551547780569	0.9724676956728615	0.30316060904586356	-0.9514707792587829	-0.052886683953772884	0.9242208017661595	0.307093357221593	-0.22695721960997273
452														9.519028414915216	-0.46400427787443366	-2.2470552972313027	0.23155643183316288	0.019710483842528076	0.9726217742284964	0.30303550827756387	-0.9515119831670316	-0.05286233642681862	0.9244193310395739	0.3069795477165166	-0.22630169615827156
453														9.515409162758083	-0.5105530681228623	-2.227803793803166	0.2310116485118418	0.01951081657784126	0.9727553373219333	0.302731796913663	-0.9516117526999324	-0.052806545624463436	0.92465511267135	0.3066828983817481	-0.22573994429631722
454														9.522206686438883	-0.5403497400267221	-2.2379943983682193	0.23053887433150572	0.01931563868602823	0.9728713859108578	0.3022353784855234	-0.9517741547941663	-0.05272318519932806	0.9249354590530492	0.30619089530552834	-0.2252588116330287
455														9.522322973698158	-0.5963009728260771	-2.1615276823110636	0.23011079527264228	0.019119407785890885	0.9729766030819597	0.30177005658919176	-0.9519250989978765	-0.05266344884300156	0.9251939552575711	0.30573363266706566	-0.22481790633989013
456														9.52343266167667	-0.595944197062627	-2.156731977805076	0.22962698047435492	0.01895168025577454	0.9730941802588856	0.3014985416039287	-0.9520143433706363	-0.05260531748102901	0.9254026579002969	0.3054660764013881	-0.22432208299453493
457														9.51899986048725	-0.5656190914513954	-2.136282825613158	0.22919105374825355	0.018808396932777277	0.9731997251780257	0.3015755091458181	-0.9519889684872513	-0.052623342368386256	0.9254856417931109	0.3055540019102988	-0.2238595067255249
458														9.494242709233019	-0.5121545009852595	-2.1307515205203615	0.22872495735716647	0.018632788872748746	0.973312751925498	0.30171263814025306	-0.9519425114294991	-0.05267768901296804	0.9255562532166326	0.3057094602921569	-0.22335475821989348
459														9.471938336118342	-0.43520506241862017	-2.13229319685326	0.2284042451371885	0.018497787247386932	0.9733906372419359	0.3016012858269188	-0.9519777078397483	-0.05267929539893762	0.925671737275618	0.305608042504005	-0.22301470616533325
460														9.497421912524871	-0.533144658286288	-2.1979321689487046	0.2282448346416549	0.018368993330351302	0.9734304677497173	0.3011963000800234	-0.9521071907281281	-0.05265630239483904	0.9258429047508591	0.3052121843043324	-0.2228462211361687
461														9.545175932743511	-0.5539135125031008	-2.2534302635235153	0.22812522554034992	0.018252479262148014	0.9734606969328288	0.3007566707788835	-0.952247832113587	-0.05262595573455792	0.9260152841363722	0.3047801063648319	-0.22272130636756554
462														9.593468441031249	-0.6520086694733276	-2.311004583830873	0.22784382540106424	0.01810567266628979	0.9735293400015799	0.30061873903644076	-0.9522902863889664	-0.05264583734125333	0.9261293457000219	0.3046561915775265	-0.22241636622948363
463														9.558063703991179	-0.614928537124728	-2.2770203806711566	0.2272202923870163	0.01791852600460922	0.9736785224874694	0.30083854975760504	-0.95221892937563	-0.052680902787162726	0.9262111561125251	0.304890204769769	-0.22175404692620287
464														9.60002876610715	-0.5856511248629473	-2.236363573892913	0.22638451396178183	0.017637437499167158	0.9738783151075658	0.301138482259934	-0.9521198346183001	-0.052758269765079635	0.9263183396330184	0.3052158929755862	-0.22085649715288957
465														9.540833284048416	-0.5282040791059913	-2.132582877512424	0.22553296673379863	0.017346916770860088	0.9740810876897242	0.3013550676027914	-0.952047914334051	-0.05281942864420633	0.9264556136946703	0.30545679447464946	-0.21994577186866637
466														9.488881878779374	-0.5214905585233143	-2.1190474680901334	0.22474372116002894	0.01708625416906495	0.9742680943752663	0.30147021429527815	-0.9520099226038359	-0.05284711114712887	0.9266099339484234	0.30558986760412726	-0.21910924929310882
467														9.48334297383248	-0.5480586484161325	-2.0244841457548017	0.22417703393739574	0.016907492465615237	0.9744017621872187	0.30161233630505885	-0.9519634851776159	-0.05287269122232585	0.9267009528664769	0.3057444350875621	-0.21850785882743817
468														9.546249838675372	-0.48545566566160075	-2.042971810585663	0.22374779120893262	0.016764627110052777	0.9745028851711957	0.3017493414480919	-0.9519182077954164	-0.052906149011291426	0.926760088083624	0.305893237822321	-0.21804831159587146
469														9.575639479703089	-0.5159884731964981	-2.0454275660486565	0.22337447363647728	0.016689455603165898	0.9745898145370165	0.30178401387798137	-0.9519093710111515	-0.052867365631812935	0.9268388497982379	0.3059248460861318	-0.21766886560060777
470														9.590155010856295	-0.4759134560168653	-2.0756483005165363	0.22290053966039702	0.016548995588987425	0.9747007131238286	0.30170058993607957	-0.9519377656673579	-0.052832228123188524	0.9269800987353105	0.3058441123206964	-0.21718028342241358
471														9.550841542037121	-0.5496582902249366	-2.1708965504134023	0.22233532298922454	0.01639588402431491	0.9748323851505648	0.3015612929404533	-0.9519855141594584	-0.05276710557377787	0.927161146053565	0.30570370592718255	-0.21660437075698014
