// Start Time: 1748432634.6645443
// Update Rate: 100Hz 
// Filter Profile: 46.1 human
// Option Flags: AHS Disabled ICC Disabled 
// Firmware Version: 4.0.2 
PacketCounter	SampleTimeFine	Year	Month	Day	Second	UTC_Nano	UTC_Year	UTC_Month	UTC_Day	UTC_Hour	UTC_Minute	UTC_Second	UTC_Valid	Acc_X	Acc_Y	Acc_Z	Mat[1][1]	Mat[2][1]	Mat[3][1]	Mat[1][2]	Mat[2][2]	Mat[3][2]	Mat[1][3]	Mat[2][3]	Mat[3][3]
0														9.467188889943383	1.465365047505482	-1.5957487489022686	0.1924845637805635	0.0710996799192658	0.9787208632810399	-0.43298624563556176	-0.8888781552248183	0.14972820794541233	0.8806092230930965	-0.45259304090927166	-0.14031014048838802
1														9.495267402036715	1.5014693635877296	-1.6641332619236522	0.19179645636645393	0.0712453333185824	0.9788453513224625	-0.4326076381786308	-0.8891043588648079	0.14947933113680248	0.880945373286436	-0.4521255815898091	-0.13970578999203676
2														9.50825319128121	1.4686968007830603	-1.646722112323276	0.19123751110145149	0.07138087645325555	0.9789448323702863	-0.4323330719025613	-0.8892682701709533	0.1492985552725004	0.881201639403274	-0.45178171072313916	-0.1392011370968531
3														9.509326490033578	1.4664015750013104	-1.6425645548814358	0.19072621155401742	0.07150435855395895	0.979035565714566	-0.4321437896883371	-0.8893863931265087	0.14914284681211795	0.8814052741276601	-0.4515295897604137	-0.13872913288396932
4														9.520604381089862	1.4842676758946378	-1.6488098594066276	0.19029331465428379	0.07165502502888643	0.9791087844494074	-0.4319336221821788	-0.8895048295760195	0.14904530918321415	0.8816018378080149	-0.4512723296957689	-0.13831660791273293
5														9.501557263206736	1.5032247752973775	-1.6256651555333625	0.1899313287361673	0.07186390002548917	0.9791637606844122	-0.43154695147400546	-0.8896990298537293	0.14900625809282558	0.8818692187836056	-0.45085609250675523	-0.1379690719383651
6														9.491939651063758	1.4822911801805585	-1.6124720798941548	0.18957890019950385	0.07196845041609798	0.9792243781400931	-0.4315263544186768	-0.8897210615759659	0.1489343413396079	0.8819551269998225	-0.4507959346897906	-0.13761605729668647
7														9.488327683749688	1.4609351637977896	-1.6541601810176347	0.18928688492237455	0.07204534944498778	0.9792752130120181	-0.43149931101893535	-0.8897458828676104	0.14886439638248267	0.8820310764290384	-0.4507346575796966	-0.13732970789288723
8														9.482706322366097	1.4600683243187464	-1.5981095143353892	0.18908744122554388	0.07206297542201431	0.9793124461294788	-0.4315308429981489	-0.8897425799776724	0.14879271795347632	0.8820584284003435	-0.45073835974765003	-0.13714175126457517
9														9.483113782478892	1.4584984597566224	-1.597124915089563	0.18890909760801894	0.07198424119455799	0.9793526544920214	-0.4316476533199484	-0.8897086813862377	0.14865653584469415	0.8820394867715994	-0.45081784712409834	-0.13700223534704653
10														9.487693856470395	1.4766489029835574	-1.5526255396296318	0.18882028155005282	0.07184983934482841	0.9793796515455491	-0.4317162064950271	-0.8897009189251788	0.1485038447759376	0.8820249533459368	-0.4508546056655238	-0.1369748379275666
11														9.465951085337972	1.4848444994398553	-1.5556317787327052	0.18883129433771684	0.07169281549889067	0.9793890353095572	-0.431635770585957	-0.8897649733862603	0.14835381250785254	0.8820619614456856	-0.4507531833950704	-0.13707028791755116
12														9.45788132198258	1.4727958040421953	-1.5246701224164594	0.18885500956229312	0.071405611583499	0.9794054441331296	-0.43185486820979346	-0.8896946171897566	0.14813797942146562	0.8819496347109218	-0.4509376085202465	-0.13718642445706059
13														9.47779539459691	1.4498998550986544	-1.5463350688901756	0.18899328268997317	0.07110601396768973	0.9794005686519153	-0.4319510890036084	-0.8896800113909458	0.1479450372266805	0.8818728909580252	-0.4510137604431087	-0.137429225728378
14														9.45691607252732	1.4079626026021717	-1.5293498681644289	0.18917578168267335	0.07076629367612136	0.9793899403731358	-0.43210067673292657	-0.8896406823763954	0.1477445817206451	0.8817604713252326	-0.45114475275703525	-0.13772030811792835
15														9.525710276623276	1.4448551317834846	-1.503505489277542	0.18942966543856588	0.07050652551778716	0.9793596028585432	-0.4320894734339614	-0.8896659980589554	0.14762485849383689	0.8817114543882232	-0.45113550265654445	-0.1380640048797368
16														9.55477826913946	1.523037315275973	-1.438717184799192	0.1897020596965624	0.0702914461113204	0.9793223377164748	-0.432059223882174	-0.8896928845664558	0.14755134092970046	0.8816677126929484	-0.45111604244961034	-0.13840650504721985
17														9.564850165575859	1.5413225750662123	-1.4523064292131318	0.1899356399486169	0.07006354994145364	0.9792933940586507	-0.4320414814077937	-0.8897182868568012	0.14745008774347534	0.8816261174785315	-0.4511013954780022	-0.13871885227873898
18														9.576179643086771	1.5094360739062243	-1.4435338100512143	0.19019190627521843	0.06974196912638464	0.9792666115669284	-0.43212277595132376	-0.889705343992339	0.14728987533295124	0.8815310234424658	-0.45117674875136093	-0.13907766209794703
19														9.56774191501885	1.4977567346329441	-1.4151625968609383	0.19044139800523985	0.06945660298532444	0.9792384052045493	-0.4321853290834836	-0.8896970278051847	0.14715651545080113	0.8814464902935464	-0.45123716493254395	-0.13941702095809283
20														9.63125352584208	1.4546222347587279	-1.433556744096657	0.1906880629550186	0.06910306602395128	0.9792154149688166	-0.43234485461920186	-0.8896494697418795	0.1469753301486112	0.881314920633234	-0.4513851872337876	-0.13976917906017217
21														9.613485991500843	1.4826904630342126	-1.3957087518681	0.19091514012319705	0.06874884488498664	0.9791961017072727	-0.4325036439356561	-0.8896038068766006	0.1467844159747175	0.8811878388028961	-0.45152924945969974	-0.14010470951485182
22														9.636291835055282	1.5297882213939493	-1.3975078063896624	0.19116422071711542	0.06839292073611516	0.9791724307346495	-0.4326498903593422	-0.8895630487984526	0.14660032259327266	0.8810620370267169	-0.45166358122565725	-0.1404624373444619
23														9.623430790061523	1.4979365704461998	-1.4134888226931233	0.19140081771440343	0.06811568532185389	0.9791455358583789	-0.43270579946400156	-0.8895577209813611	0.14646758055169168	0.8809832110139655	-0.451715966571452	-0.14078802312676253
24														9.605700894997462	1.5265184283560194	-1.3754375856702974	0.1916643881773623	0.06782757624048508	0.97911397814858	-0.4327788938178383	-0.8895431070110684	0.14634032197211633	0.8808899995858763	-0.4517880926611896	-0.14113939194696434
25														9.59729040975695	1.5150936831776283	-1.3472548044098327	0.19194554890342352	0.0675715508258348	0.9790766015870029	-0.4326448342136884	-0.8896285629804098	0.14621719241464365	0.8808946325664457	-0.4516581732332566	-0.14152576043683351
26														9.605005914118351	1.523330927034949	-1.3837996773126813	0.19231622414912858	0.06731426916915759	0.9790215825482322	-0.4326354110295759	-0.8896434311202679	0.1461545982438723	0.8808184098055016	-0.45166730524887455	-0.1419703290019712
27														9.611382556892492	1.5525103221801813	-1.3218612972079504	0.1926454584605199	0.06713917765035021	0.978968874969461	-0.432598426374729	-0.8896633315228466	0.14614293702323994	0.8807646273736505	-0.4516541678852363	-0.1423452977770973
28														9.625885326804903	1.5920231704495582	-1.2914049926372606	0.19296114791685737	0.06704839027912907	0.978912921947395	-0.43265235606846764	-0.8896250520027729	0.14621629744138623	0.8806690264696567	-0.4517430466648509	-0.1426544272251855
29														9.627696985437176	1.6027224804191122	-1.2721373582090474	0.19321152509963213	0.06709172213512643	0.9788605658568628	-0.43275415889997065	-0.8895471444021238	0.14638891980203445	0.8805641058568385	-0.4518900073103747	-0.14283653863621992
30														9.567145400269622	1.525410794022991	-1.312885223155878	0.19345789730437873	0.06719963650259328	0.9788045008194882	-0.4329884946316269	-0.8893917515123566	0.14663995314517683	0.880394800920136	-0.4521797443447698	-0.1429631886783886
31														9.632570144342415	1.4962619335584864	-1.3072717035878851	0.19371047459971336	0.06735428100391905	0.9787439158742187	-0.43298382699407356	-0.8893515054262071	0.1468976016063781	0.8803415573468748	-0.45223589046711576	-0.14311338784856908
32														9.56730723805301	1.4796416081976165	-1.2938051031414257	0.19399884042909016	0.06750719204074201	0.9786762636004528	-0.4330686292807196	-0.8892626979672421	0.14718497320358584	0.8802363388574043	-0.45238770211710666	-0.1432806851188148
33														9.632598237272841	1.4507946426230078	-1.2891125897680742	0.19436065995619123	0.0676761016467016	0.9785928055771197	-0.43284564353943067	-0.889323860988977	0.14747107901074816	0.8802661999249598	-0.4522422089340661	-0.1435562667670992
34														9.581009138505586	1.5233766341458015	-1.264559593405932	0.19463817483948176	0.06775763576745297	0.978532004428246	-0.43286338211477327	-0.8892809467329537	0.1476776564071271	0.8801961561602705	-0.4523143824520141	-0.14375822100922775
35														9.65447531973944	1.503355711544531	-1.2920194106515026	0.19495779762674958	0.0678366401372017	0.9784629003694639	-0.4328617896383662	-0.8892450228462747	0.1478984800942852	0.880126200164271	-0.452373164100198	-0.14400136175181544
36														9.64375030116619	1.484380026069733	-1.2840045824221114	0.1951290162596792	0.06780631884387839	0.9784308714152328	-0.4331390622863633	-0.8890937189569148	0.1479963230389602	0.8799518280765257	-0.4526750070814653	-0.14411841738159475
37														9.645889504089316	1.4946825182789856	-1.2630078450610494	0.19519412705120887	0.06775898309677342	0.9784211633925382	-0.43367137992032834	-0.8888217615314778	0.14807096429104313	0.8796751599327532	-0.4532158386881159	-0.1441076561446787
38														9.604115111663482	1.4452796959288625	-1.3445724450153878	0.19525268899702697	0.06768213707389753	0.9784147973945099	-0.4341334455199843	-0.8885906083374167	0.14810429519593998	0.8794342152318027	-0.4536803490296328	-0.14411662632733768
39														9.64137631710282	1.364822111649352	-1.2859335495165032	0.19529973859266508	0.06766013168823029	0.9784069289848514	-0.43442250065131005	-0.8884410849953915	0.14815373576145174	0.8792810148260335	-0.45397637060990614	-0.14411922805218585
40														9.637674203881483	1.4044212207401858	-1.3309781909528258	0.19535446957978597	0.06762664726550097	0.9783983175551908	-0.43463252918528417	-0.8883334037107418	0.14818342830995504	0.8791650560555758	-0.4541920303476449	-0.14414716015059215
41														9.614620090660203	1.3545216413275554	-1.3338009186417294	0.19537966997393913	0.06760484435011138	0.9783947922905523	-0.4346955243134567	-0.8883021865496036	0.1481857837751097	0.8791283101474578	-0.4542563267491073	-0.14416866478428875
42														9.59718512689308	1.3041177664393893	-1.3912798328192775	0.19544685512516974	0.067561082097812	0.9783843963429985	-0.4345426291491944	-0.8883825446480534	0.1481524816422431	0.8791889616423688	-0.45410566452139983	-0.14427340425661
43														9.580885269838374	1.3931319621512823	-1.3509921441147532	0.19555036389232577	0.06753790449879057	0.9783653134885208	-0.4341505051223502	-0.888580392276311	0.14811558109829523	0.8793596500201653	-0.4537218508271227	-0.14444060370416306
44														9.586642768070645	1.4714795847483537	-1.3084787094323573	0.19557826063837686	0.06746694981447907	0.9783646327665353	-0.43381755820229406	-0.8887606628346756	0.1480094942666409	0.879517748633344	-0.453379195464898	-0.14455391713314264
45														9.616665248192087	1.4693087107393268	-1.3396419174459553	0.19556924403784853	0.06738667119831579	0.9783719677767112	-0.4336620427874628	-0.8888536534583711	0.1479067793548028	0.8795964435079696	-0.4532088031785301	-0.1446093955786248
46														9.60169973375	1.4278160444263532	-1.3750383396059447	0.19555492628452403	0.06725048447209736	0.9783842001709364	-0.4335540645754298	-0.8889309712521357	0.14775859175986777	0.8796528541964601	-0.4530773672199963	-0.14467810966769706
47														9.5591359176603	1.3968552852507028	-1.358467058739684	0.19555144127148083	0.06716941846059973	0.9783904655301541	-0.4332481744876929	-0.889100963136546	0.14763297955656088	0.8798043266088933	-0.45275572505859185	-0.1447639468477585
48														9.567185787533687	1.404673371583381	-1.392044117118623	0.19557104360644395	0.06706532332932569	0.978393688302117	-0.43286644581542955	-0.8893114763405403	0.14748470475316114	0.8799878447966226	-0.45235753608815044	-0.14489324537207904
49														9.562611303514531	1.4635076802981728	-1.3398340809391156	0.19573146566480915	0.06715266243744641	0.9783556169799753	-0.432089948678697	-0.8896846397818715	0.14751107750620762	0.8803337262649583	-0.45161018773247774	-0.14512328805773944
50														9.572771554739578	1.482587631917519	-1.3519045007738388	0.19583364183562113	0.06718052577681519	0.9783332569639801	-0.4315676093668456	-0.8899403147523938	0.14749791430320883	0.8805671940691319	-0.45110199859318034	-0.14528731394879235
51														9.612927310827848	1.5007670103173445	-1.393686892885106	0.19590977913665947	0.06721148853578215	0.9783158867397741	-0.43097023557700664	-0.890235551065203	0.14746294336657723	0.8808427864751607	-0.4505144608427563	-0.14543969914103888
52														9.58979321483527	1.4498577467300728	-1.39760000360883	0.19596976717436615	0.06709391707344356	0.9783119424014852	-0.4305529251454723	-0.8904619562445582	0.14731491143055517	0.8810335004994432	-0.45008433740006637	-0.14561613998743766
53														9.557380898495843	1.4387621031323599	-1.392253279871687	0.19607541149778196	0.06700047068588075	0.978297178741637	-0.430062606973564	-0.8907182195685569	0.14719785124696133	0.8812494465751897	-0.4495909143393482	-0.14583354433885065
54														9.535148580306412	1.4478750782090641	-1.3975968280524762	0.19630293362989015	0.06690364884638109	0.9782581765665644	-0.42971257164702326	-0.8908938311756359	0.1471573557172731	0.8813695388523485	-0.44925725741966405	-0.14613573361420162
55														9.565966112003087	1.396754081098878	-1.4082999821062008	0.19653493807793015	0.06684915253149126	0.9782153182814741	-0.42936526242641065	-0.8910612039225232	0.1471577462644873	0.8814870898295697	-0.44893331539323866	-0.14642195461689206
56														9.597817833841876	1.4058691375791985	-1.4194841454442542	0.196796176324403	0.06686487428598412	0.9781617215833043	-0.42886082701726036	-0.8912955752432564	0.147209335987443	0.881674348064049	-0.4484654793164262	-0.1467278358980399
57														9.547834213180996	1.4273686157225793	-1.373024021927289	0.19702917624163302	0.06700590063263376	0.9781051645860748	-0.4280760683620004	-0.8916552848002381	0.14731507995971668	0.8820036187030498	-0.4477287821530076	-0.14699848375581698
58														9.534571180718693	1.3984037665301485	-1.3876910894867558	0.19725053492982125	0.06721556318349284	0.9780461617612051	-0.42734529789463227	-0.8919773845822121	0.14748675113794016	0.8823084624082711	-0.44705526890956393	-0.14721876138233903
59														9.52364149440726	1.3803996080392236	-1.3800258445457971	0.19747060003794986	0.06755245195362242	0.9779785418687394	-0.4264196923179202	-0.8923781682435488	0.1477411616502974	0.8827069774982763	-0.4462038447585841	-0.14741275656643543
60														9.537702086780412	1.3415747168523506	-1.446586805139539	0.19774032607630793	0.06792227174860987	0.9778984243998675	-0.42516765337326307	-0.8929335436504731	0.14799376050658855	0.8832503778478152	-0.44503511279933483	-0.14769061719478
61														9.592224369110589	1.40198079231065	-1.4566633757886869	0.19809806669088392	0.06826760584447308	0.9778019686856837	-0.4235105174194721	-0.8936871598298859	0.1481961605112774	0.8839660613442272	-0.44346679058014815	-0.14812564951458607
62														9.640222831222115	1.5935663934102446	-1.3381713373084392	0.19831700661951357	0.06859881062463918	0.9777344056881503	-0.4220200750588386	-0.89436655448136	0.1483493258241255	0.8846295389216934	-0.44204374150758563	-0.1484180226965942
63														9.646403146882703	1.7350386767734747	-1.2988352621047543	0.19849408725735496	0.06897077590237069	0.9776723016406337	-0.42089497874888826	-0.8948580300080103	0.14858170477604365	0.8851257053028356	-0.44098995249507383	-0.14859457463363202
64														9.668979688245953	1.7861532996260423	-1.2982440735335867	0.19848186174330684	0.06927270226482288	0.977653437205557	-0.42061113242444326	-0.8949544047303426	0.1488048679794628	0.8852633652419704	-0.44074698657470945	-0.14849534668054298
65														9.724608898826832	1.7374863703833874	-1.2792106116932604	0.1983511006022533	0.06961819317694157	0.9776554342244781	-0.4206435549256899	-0.8948955476658681	0.14906695967679762	0.8852772676339051	-0.44081205285992797	-0.1482190725381291
66														9.644759219742197	1.5994992573234939	-1.391118526614415	0.19809879717111833	0.07007867034753687	0.9776736912291734	-0.420805349025129	-0.894763858279328	0.1494004556516796	0.8852568693837936	-0.4410063694317934	-0.1477621647425118
67														9.603140767919243	1.634041170989977	-1.3694368438169024	0.19781327282906824	0.07081379140276886	0.9776785340999452	-0.4207458151806146	-0.894702752941634	0.14993312804934558	0.8853490092052132	-0.4410129145794106	-0.14718947337877397
68														9.520479508044973	1.679502140700092	-1.4279029389184759	0.1974792071410269	0.07178043252973032	0.9776755761768806	-0.4204791689808406	-0.8947125231320726	0.15062127805798725	0.8855502420530031	-0.4408367843731789	-0.14650494306808332
69														9.454315272103575	1.6354652817078486	-1.5258177618682491	0.19711541658590825	0.07289954338715768	0.9776661849108353	-0.420158059467873	-0.894727407017157	0.15142678823955116	0.8857836742728752	-0.4406228815056006	-0.14573523487937423
70														9.42754103710085	1.6320282995963828	-1.56553803106635	0.1968201744592165	0.07389333701707887	0.9776510592590404	-0.42007318130449056	-0.8946381178853787	0.1521879113965083	0.8858895762309025	-0.4406386419402947	-0.1450422212820962
71														9.42973315518167	1.648273492380458	-1.5379273325870524	0.196553838151303	0.0746128628045894	0.9776499933064465	-0.4202257201176252	-0.8944706782475567	0.15274995877897757	0.8858763643193189	-0.4408572631356543	-0.14445740092126025
72														9.412590916747526	1.6020810839542092	-1.5893494469713791	0.1963764853028011	0.07513123445790879	0.9776459346966824	-0.42046523262221935	-0.894284148695234	0.1531824061319828	0.8858020457055076	-0.4411475478808326	-0.14402630600923855
73														9.448256911539199	1.6035592911034664	-1.6704353600833317	0.19626288885234222	0.07545325512321271	0.9776439457955255	-0.420949865082455	-0.8940009929311964	0.15350386224814508	0.8855970243549804	-0.44166619853611844	-0.14369717994539044
74														9.43617281261617	1.6360483969556352	-1.6822177543794559	0.1964014498071625	0.07567098740485365	0.9775992901894001	-0.42115868858434646	-0.8938517235537815	0.15380004983694706	0.8854670121148261	-0.44193098778554596	-0.1436842805992829
75														9.497852493022021	1.6473686827374137	-1.720634559219978	0.19665042483212436	0.07589571564031741	0.9775318157281582	-0.4214071557192991	-0.8936726779098498	0.15415950786769203	0.8852935216762382	-0.44225443480521776	-0.14375811411256723
76														9.596601676785719	1.7494801201092696	-1.72506723515218	0.1970998918184531	0.0762146841105841	0.9774164693573963	-0.42134869299343725	-0.8936160302118472	0.15464691869268368	0.8852213912676741	-0.44231404281838405	-0.14401866534508845
77														9.53128202242329	1.7953785749361821	-1.7131437537531888	0.19759083569967484	0.07672237879585694	0.9772776157466255	-0.4212878723899992	-0.8935270089276987	0.15532550625646724	0.8851408872177421	-0.44240610405895753	-0.14423054068664876
78														9.530729761340984	1.7809241704980403	-1.8134362719469117	0.19811157880953884	0.07738189426523309	0.9771201792929649	-0.42147082856597373	-0.8932888842731231	0.15619638248688789	0.8849373667155791	-0.4427719635139547	-0.1443566601043877
79														9.5140398492544	1.749371525215782	-1.8491023593736085	0.19872306611426516	0.07810052491179578	0.9769388164069681	-0.42185917997952904	-0.8929300437258372	0.1571965943612463	0.8846151565857014	-0.4433691971938024	-0.14449837271948218
80														9.48007984872798	1.668260144987898	-1.941602962665689	0.1995017867700985	0.07886468252788462	0.9767186897593978	-0.42195153996805645	-0.8926972849497695	0.15826703814090978	0.8843958022255218	-0.44370251215548295	-0.144817629150562
81														9.374404539483056	1.6782370969733007	-1.989480921537645	0.200426860068376	0.07954201988905787	0.9764743421284049	-0.4219687227475625	-0.8925030342026197	0.15931331068654914	0.8841784156978291	-0.4439722975716918	-0.14531733620938242
82														9.368416426460005	1.758683118202609	-1.9203355116818315	0.201596057262733	0.08004150409445016	0.9761928023287303	-0.4221805771354004	-0.8922186301189634	0.16034174864414164	0.883811399556343	-0.4444539050238382	-0.14607578965495904
83														9.382395423161654	1.7373911798112895	-1.9709039485088613	0.2029557690588974	0.08032350791347709	0.9758878469794496	-0.4224856002648443	-0.8919058796387711	0.16127560086586185	0.883354330591392	-0.4450303764264459	-0.14708191827403588
84														9.36851237133095	1.7865862104129446	-1.9728535833528151	0.204598766061864	0.08050689684033491	0.9755295918049348	-0.42286482683536736	-0.8915468282476016	0.1622639555389207	0.8827936809648435	-0.4457161569909506	-0.14836584595438684
85														9.385714642033452	1.7262437705388278	-1.9836076669166693	0.20646941039574412	0.08065589548371724	0.9751230738191734	-0.4230394397519893	-0.8912759563111539	0.16329360708846227	0.882274342245742	-0.44623065361465	-0.14990059636134007
86														9.419401390445637	1.657266154185265	-1.9398181252249214	0.20850388921119783	0.0808884999417297	0.9746708053291536	-0.423009849945229	-0.8910787609844437	0.16444241719137712	0.881809954033815	-0.4465822346439734	-0.15157675503610618
87														9.413500342519587	1.749920932975774	-1.8591448225442224	0.21072774250368953	0.081393024646494	0.9741503960262988	-0.42259851358342015	-0.8910106829401656	0.16586277220517118	0.8814784823558562	-0.44662639691961314	-0.15336409853098476
88														9.46412010892015	1.7734204511991662	-1.861051761990495	0.21304919828099989	0.08196191295053817	0.9735975985679671	-0.42202774013545935	-0.8910013306879203	0.16735953892298336	0.8811938638392697	-0.4465410099171685	-0.15523691827067054
89														9.410566894300308	1.8790156108074287	-1.8082233756718196	0.21545407003421618	0.08278898666988416	0.9729982155131967	-0.42131820664890757	-0.8910072750528379	0.16910648878462584	0.8809486434814686	-0.4463765445104504	-0.1570906364461943
90														9.443178723258944	1.876882445101099	-1.768376695271964	0.21801798084739948	0.083628108200138	0.9723551303644614	-0.42088083805203225	-0.8908550702208341	0.17098702881345074	0.880526819686852	-0.4465238889249923	-0.1590249553732344
91														9.364814707054093	1.703545518936735	-1.9344937476849278	0.2207435743326322	0.08450284058619645	0.9716643166874647	-0.4205448780068272	-0.8906260473503951	0.17299494028217924	0.8800081135836627	-0.44681597298426545	-0.16106274030031792
92														9.331320151372138	1.7155146584243894	-1.705922923182915	0.223706652019747	0.08536024272509013	0.9709114083190233	-0.4199516037870701	-0.8905041161337248	0.17505161988842316	0.8795430542723781	-0.4468960148746092	-0.16336452359802428
93														9.476518268519728	1.9665250004495867	-1.7192872049995895	0.22688418911504915	0.08626889550193395	0.9700934194181938	-0.4196143365130226	-0.8902173464702865	0.17730449694279687	0.8788898527815321	-0.44729269356013274	-0.16577657544230628
94														9.510966306182333	1.7291241317714963	-1.6827712989058505	0.2300965329619984	0.08692361865106427	0.9692780148334494	-0.419418528401707	-0.8898957170701025	0.17937031742636544	0.8781478711197874	-0.44780564674967305	-0.16830454297758157
95														9.531622188678172	1.6983852847146865	-1.6613516923047222	0.2331175539689237	0.08731579671047876	0.9685206026081021	-0.4192675837826684	-0.8896129463452235	0.18111736218268712	0.8774228736593264	-0.4482909293525643	-0.1707757109182247
96														9.525635982652041	1.7353571719893446	-1.5882398241629276	0.23612422452253307	0.08755835732841608	0.967770057738708	-0.41901969237185843	-0.889405254721779	0.18270410580466112	0.8767370460966194	-0.44865557718057747	-0.17332145010510774
97														9.531728316062797	1.6709332322749444	-1.5241554569448341	0.23900712669188018	0.0876665828723382	0.9670523065677367	-0.41869506090355024	-0.8892711106116021	0.1840960016040017	0.8761107460620857	-0.4489002807741333	-0.1758365677424364
98														9.575931472868671	1.6849435196878169	-1.5013163377151624	0.24170713085775103	0.087723858978459	0.9663758003274093	-0.4184415314100062	-0.889125615514567	0.18537077608698335	0.8754909181046725	-0.44917720823943097	-0.1782006956060161
99														9.562708277150387	1.746784453084837	-1.491860972999676	0.24414139688767766	0.08788867841888345	0.9657487036136866	-0.4181829782640135	-0.888986019255058	0.18661954415142593	0.8749388407288671	-0.4494212253274522	-0.18028473925764887
100														9.586995557802636	1.7096322938557305	-1.4644655379916875	0.24619527075112752	0.08818442868781115	0.965200184001632	-0.4181623760889589	-0.8887344875529741	0.18785962274419038	0.8743729844199304	-0.4498605530283332	-0.1819268175548266
101														9.545404718126365	1.6897321271816255	-1.514190305762922	0.24784497432282404	0.08854128714911882	0.9647452042756657	-0.4183838198080906	-0.8883848397888623	0.18901681342173882	0.8738008056906963	-0.4504806509754825	-0.18313747587808338
102														9.549419605111973	1.6498517777295754	-1.557426794470697	0.24918498841285297	0.08893942061005128	0.964363324173641	-0.41850936975473335	-0.8881059799453517	0.19004650960436684	0.8733594614917631	-0.4509518243081573	-0.18408069745620415
103														9.52734479322115	1.6674024901803708	-1.622070116839802	0.25021581255006614	0.08921113903564598	0.9640712732064334	-0.41895095889157946	-0.887718800118892	0.19088065894506231	0.872852874884271	-0.4516599435276918	-0.18474618864492437
104														9.475802930564003	1.6124668692503652	-1.6747790513600838	0.2509943691967502	0.08936286573728405	0.9638548152386572	-0.4194347195186864	-0.88735814766378	0.19149421358617222	0.8723968951651575	-0.45233814343025036	-0.18524000999856338
105														9.4172363290694	1.6051626006770487	-1.6942099015511536	0.2516084772608163	0.08935377912787149	0.9636955309256454	-0.4198931069813969	-0.8870586866257715	0.19187669267337107	0.871999399586951	-0.45292691312984446	-0.1856724494443585
106														9.405700033703077	1.636384064551805	-1.7657899947807336	0.25219311871753486	0.08913387705102982	0.9635630663497724	-0.4204038558636338	-0.8867764179043327	0.19206296525814115	0.871584321133941	-0.4535225866598188	-0.1861666848361297
107														9.389574802420288	1.72610648547499	-1.7839796116045659	0.2527778828764021	0.08872726965089028	0.9634473589920843	-0.42097149053638105	-0.8865011198759529	0.19209052192718726	0.8711408302244258	-0.45414010622161505	-0.1867362252936443
108														9.38094851943669	1.7752244363695169	-1.7582556619313177	0.25336584066460954	0.08820317325463986	0.9633410356733111	-0.42158468479266	-0.8862244565889912	0.1920223062350332	0.8706733625950601	-0.4547817199177638	-0.18735389746693687
109														9.411493413365205	1.7847584986008325	-1.7737846550644856	0.2539181257082179	0.0877100990809063	0.9632406365784427	-0.42219765906709394	-0.8859446929662746	0.19196650146095692	0.8702153308894827	-0.4554217161314459	-0.18792641741063743
110														9.400069148917046	1.8236981536117067	-1.7693796426948194	0.25445499109591524	0.0872628144683757	0.9631395842334777	-0.42297931927485455	-0.8855682044246063	0.19198294397669852	0.8696787642412335	-0.4562391440059011	-0.18842688370984723
111														9.421704506281356	1.8141324924192703	-1.7727762599323214	0.2548687390797389	0.08690299323536457	0.9630627163412765	-0.4238972911115768	-0.8851143770578189	0.19205110287060642	0.8691104719356285	-0.4571874990551287	-0.18875004180011606
112														9.414840475600307	1.7840354028556475	-1.8969652879484062	0.25526996326945484	0.08664876696494411	0.9629793544182902	-0.42469710650287434	-0.884701689127207	0.19218555872789664	0.8686021031407295	-0.45803374596084334	-0.1890382870758731
113														9.418438150395671	1.7348300594007913	-1.8786237899257299	0.2556919801683798	0.08631895966532244	0.962897008241208	-0.4253983100563298	-0.8843528963451422	0.19224003882432142	0.8681347182775214	-0.4587689962587428	-0.1894020036666827
114														9.414365755382399	1.7249084957696772	-1.9055991703799244	0.25623306736752954	0.08601292533285526	0.9627805522875466	-0.4258449661988524	-0.8841206469470502	0.1923193864513639	0.867756117783405	-0.4592738380504766	-0.1899127740091731
115														9.431411891473145	1.7751191283902725	-1.8558735944040383	0.2567976286347386	0.08561211420937953	0.9626658526343266	-0.4263082642974728	-0.8838955792393608	0.19232750399459464	0.8673616556657615	-0.45978165568203666	-0.19048513689795893
116														9.403304222995676	1.8334718156678815	-1.8856490057389566	0.25740500670142014	0.08512670519981383	0.9625466776145801	-0.4268105018789381	-0.8836617239547603	0.1922882032344954	0.8669345177179713	-0.46032097679676254	-0.1911259802067306
117														9.438116731917821	1.793210954922442	-1.8798753470449348	0.2580584869796378	0.0845802820498143	0.9624198632541593	-0.42724139813320317	-0.883472544458028	0.192200548672588	0.8665279020429558	-0.4607845907549773	-0.19185139015342595
118														9.442807806888798	1.8013967808229034	-1.9200366692956035	0.2587223835089184	0.08390339458511134	0.9623008618143075	-0.42780222757132436	-0.8832386384688276	0.19202802295692264	0.8660531059678019	-0.46135640007788625	-0.19261954664752057
119														9.4645546543969	1.7995574191314105	-1.8505254269113611	0.2594171043394355	0.08324525862058216	0.962170979033007	-0.42817657657568764	-0.8830964981018515	0.1918473203153264	0.8656602019545933	-0.46174755219431274	-0.19344666653755954
120														9.47546235357089	1.8274523536001162	-1.847568407361826	0.26016236338684373	0.08257980107234622	0.9620270896039386	-0.4286130596000677	-0.8829168465813566	0.19169947095154688	0.8652204284558019	-0.4622103617160544	-0.19430695228188188
121														9.473430058290527	1.8950015570724712	-1.7799954713588002	0.2608931279097313	0.08187804748493291	0.9618891626115411	-0.42902746337493824	-0.8827572739279055	0.19150726095226528	0.8647948956137188	-0.4626397958103346	-0.19517737536156532
122														9.511311020579264	1.8639133162670747	-1.7546172000236653	0.26169127433949735	0.08120030678996765	0.9617297890321296	-0.42958007931128156	-0.8825111996550437	0.19140255469122613	0.8642792560240483	-0.46322833749742676	-0.19606344622567218
123														9.510806648669524	1.8722721320375832	-1.6866687044061626	0.26245741230338515	0.08068068872426551	0.9615647316712433	-0.43001105829581054	-0.8823016543257145	0.19140083729551796	0.8638325048702028	-0.46371803635516107	-0.19687302072296653
124														9.544423181636402	1.891628035863744	-1.6817264977209123	0.2630850215796198	0.08015026239243409	0.961437573043032	-0.4305250032536502	-0.8820639873974693	0.1913409096610608	0.8633854834278232	-0.464261841609777	-0.1975511311817852
125														9.562364718911427	1.940385446567664	-1.6327042733009183	0.263619344523154	0.07966916214238084	0.9613311946445482	-0.4310454823798515	-0.8818223969076668	0.1912826506297392	0.8629627067916112	-0.4648032755000214	-0.19812440983217433
126														9.56504050423696	1.9489960397427362	-1.6159979861352778	0.264030143170505	0.0792199027250314	0.9612555802228662	-0.43171732982584476	-0.8815054880204523	0.1912281927903598	0.8625011481878766	-0.46548069949468457	-0.19854341533411213
127														9.571555270973281	1.8980811483945592	-1.652372574920309	0.264282667958415	0.0788446229718559	0.961217039406402	-0.4324952516037721	-0.8811327041393653	0.19118842809186987	0.8620339487264829	-0.46624959316279957	-0.19876817682554676
128														9.536731117104543	1.8758913733681781	-1.6670794296748208	0.26441964224647635	0.0784472799085878	0.9612118793841395	-0.4333169482567588	-0.8807520427220494	0.1910818191100008	0.8615791752054454	-0.4670351844517513	-0.19889560411538437
129														9.504301202423656	1.9232418407679612	-1.6581500090252244	0.2644449536364665	0.07817344705034504	0.9612272253075617	-0.43404031631951956	-0.8804112497054201	0.19101056306233927	0.861207216821514	-0.4677231484205238	-0.19888988442385436
130														9.47999952275819	1.861299060851288	-1.681586383571516	0.2644116212265148	0.07788917799396378	0.9612594709607756	-0.43473724550887916	-0.8800924793020222	0.19089461816240863	0.860865855942561	-0.4683700500965491	-0.19884535258546404
131														9.543261583178817	1.8806660348277222	-1.7005069785776812	0.26435204429282066	0.0776960647746652	0.9612914845127558	-0.43517511210990634	-0.879898898506964	0.1907892822104065	0.8606628947958297	-0.4687656663246176	-0.1987916788925035
132														9.51339495541936	1.928681048322233	-1.744287179516474	0.2642232004605144	0.07758451655380375	0.9613359158637088	-0.43563733465043375	-0.8796830723303879	0.19072966448362513	0.8604686008199657	-0.46918901846322314	-0.1986339647604317
133														9.576827332190119	1.948705940638043	-1.7616483287031273	0.26400763047338666	0.07751617237336547	0.9614006522113507	-0.4362034996826517	-0.8794110389122655	0.19069014527200118	0.86024791654292	-0.46970998249966195	-0.19835839892410084
134														9.4822552672038	1.9748534087353031	-1.7298791989115887	0.2636787986405244	0.07737379548494022	0.9615023592897441	-0.43681638168311304	-0.8791400129875175	0.19053683700948776	0.860037754892634	-0.4702405058441498	-0.198012441080543
135														9.44178638082543	1.9324661359256055	-1.7834427074348898	0.26333325867727053	0.07725189073014141	0.9616068532685427	-0.43736602412114967	-0.8789008972996912	0.19037902634023565	0.859864265927401	-0.47070729557169233	-0.19765648503582134
136														9.404634049311163	1.8998066238930449	-1.815359085566024	0.263069478913211	0.07700779184692227	0.9616986270444567	-0.4380938014359659	-0.8785790562945419	0.19019112225332052	0.8595744705420914	-0.471347686782755	-0.1973906982530581
137														9.417898650670802	1.9274960810933917	-1.8014035897706429	0.26281335314747983	0.07676659754205314	0.9617879344789036	-0.43898395623285436	-0.8781658876521942	0.19004673092212526	0.8591985961217178	-0.4721562911429347	-0.19709441685806034
138														9.37599603129804	1.9454836895834897	-1.8560543615134741	0.26268955153554124	0.07658742201022162	0.9618360391999692	-0.4395203460935374	-0.8779197744066327	0.1899440314293252	0.8589622022440064	-0.4726428212674298	-0.1969586215947175
139														9.388868878204265	1.9742188462171204	-1.8431264395158653	0.26259137909518426	0.07649858890544226	0.9618699150718689	-0.44005896931941235	-0.8776514114487474	0.18993710407278744	0.8587164090352674	-0.4731553295456964	-0.1967998043090432
140														9.421650938824177	1.9246767495534303	-1.8520794920267152	0.26252183165371007	0.07649268648703753	0.9618893682847196	-0.44057396823463035	-0.8773761915522238	0.19001472840626402	0.8584735676881217	-0.47366643053029545	-0.19662971842912452
141														9.44649235596383	1.9164844354381638	-1.904507432336765	0.26249331142991367	0.076589319872153	0.961889462223222	-0.44110012749685634	-0.8770696810409977	0.19020896961210731	0.8582120594449926	-0.4742181467216997	-0.19644136617072533
142														9.404903963436963	1.947144190998441	-1.882724601195794	0.26251981253027434	0.07680646617276299	0.9618649150390721	-0.44144404178662144	-0.8768336726988928	0.19049899840277912	0.8580271009706866	-0.47461929709549594	-0.19628045451449339
143														9.379817293162393	1.8900049343907384	-1.905142309880545	0.2625332424707624	0.07712353742850153	0.9618358781893627	-0.4418383390585715	-0.8765510972455195	0.19088492883315517	0.8578200153503944	-0.4750896061714995	-0.19604766607143997
144														9.370273980112568	1.8047501646519617	-1.9712124616328954	0.2626622576393549	0.07749245046957215	0.9617710010870665	-0.4421419881224085	-0.8762953210478783	0.19135561828375874	0.8576240439440589	-0.4755012412495014	-0.19590704127014513
145														9.34151502089511	1.7394890425118912	-2.0163386648405557	0.2627691386237196	0.07790232527109053	0.9617086916027667	-0.44246306795817536	-0.8760237281795273	0.1918563555358036	0.8574256896547873	-0.4759345074522321	-0.19572309862715137
146														9.368398306791743	1.4367659317075594	-2.0196333945756386	0.26308174521974	0.0786319265413423	0.9615638384738334	-0.44224405600873884	-0.875964749263112	0.19262905537159325	0.8574428204009146	-0.4759230801051887	-0.19567583286168694
147														9.349026208210267	1.351175074064862	-1.8700227108636638	0.2635778979929853	0.0793533218024115	0.9613686816245484	-0.4414758127073981	-0.8761908155973224	0.19336173731439546	0.8576863054077182	-0.47538690030523756	-0.19591196118215032
148														9.393471630604301	1.3461257667396975	-1.7957607628108296	0.2642213518277967	0.07972338380380906	0.961161411685447	-0.4404731637857109	-0.8765997021176994	0.1937946186862938	0.8580037699351308	-0.4745704840400742	-0.1965003472136162
149														9.497370447395834	1.4864846770131988	-1.6104567061365218	0.2648477803461793	0.0795681141876936	0.9610018566320861	-0.43936148145193854	-0.877175319948736	0.19371356867599943	0.8583805344146966	-0.4735318080947123	-0.19735877193703022
150														9.579669213401344	1.5623513795864836	-1.5052178360369517	0.2652436582075751	0.07876405715933768	0.9609589091529688	-0.4386668121642936	-0.8776760555725132	0.19301857263043712	0.8586135508401201	-0.4727377336055115	-0.19824682983403552
151														9.668791124752994	1.643404302231126	-1.431753862135325	0.2652051427004086	0.07759298735304096	0.9610648056186886	-0.4383454739447381	-0.8780915955893643	0.1918551412589404	0.8587895421798171	-0.47215937782591577	-0.19886187209624995
152														9.704163690786675	1.71076785020703	-1.4226134629034468	0.2646660963607458	0.07644603949127893	0.9613052899486522	-0.43824395565012597	-0.8784344222636763	0.19051299461824542	0.8590076209052483	-0.47170856344609535	-0.19898979470899036
153														9.708076550395333	1.7571599411768182	-1.4747938446030733	0.263527352405196	0.07556686140124783	0.9616875708837422	-0.43833135099953136	-0.8786834366276886	0.1891587823154959	0.8593130752323241	-0.4713863252727216	-0.1984337952079902
154														9.667150693361176	1.8140445222920265	-1.5982558962048288	0.2618278157400594	0.07510246892522451	0.9621880346720828	-0.4385738278547109	-0.8788241667824126	0.18793903639229592	0.8597087834991892	-0.471198156873023	-0.19716263473034157
155														9.573677309240633	1.8714823735532429	-1.706518114621343	0.25965269325786955	0.07500850114990498	0.9627846091619765	-0.43897864802473063	-0.8788526982527427	0.1868573823862832	0.8601617437798048	-0.4711599086606571	-0.19526933965312376
156														9.475713776744422	1.9204269075815568	-1.7769333272093175	0.2571044837705989	0.07529102443945562	0.9634461822353712	-0.4395585911273649	-0.8787505152278505	0.18597251666016218	0.860630890330565	-0.4713054143818481	-0.19283588095366122
157														9.478717002849638	1.7642755524654228	-1.9282816233209605	0.2543493088136331	0.0758558677499497	0.9641329350426372	-0.440356308926906	-0.8784954511188141	0.1852891350074896	0.8610416658294181	-0.47169018401007085	-0.19004110085517573
158														9.380900759062126	1.6971250979481656	-1.939682340159407	0.25158391731847657	0.07662468749649182	0.9647974864253924	-0.44095702336646986	-0.8783094995094728	0.1847412423234252	0.8615465373910297	-0.4719121531996023	-0.1871803503897848
159														9.406250237965903	1.594087138463113	-2.089096569689269	0.24913659769049928	0.07730190861370931	0.9653783561981699	-0.441553433761123	-0.8781096209942256	0.1842662710621222	0.8619521569234365	-0.4721735998995027	-0.18463632018912318
160														9.36582061879178	1.428288747187541	-2.0178340648353688	0.24720725012639477	0.07782185107856074	0.9658324569922325	-0.441442637420423	-0.8782724369097904	0.1837550664113492	0.8625641850623333	-0.471785211785241	-0.18276143080121743
161														9.405593047752363	1.313810950454289	-2.0684581465640903	0.2459231432084093	0.07805685366368229	0.9661412604948736	-0.44090273545674663	-0.8786560089570725	0.18321679996765383	0.863207150978984	-0.47103157592645073	-0.18166636722021484
162														9.411814870946102	1.2572221324048367	-2.0392424519019214	0.2451178720826187	0.07808786685686966	0.9663433726349203	-0.4397111905009462	-0.8793821010185956	0.18259569917268248	0.8640435739787254	-0.4696694640466462	-0.18121616044990707
163														9.499169999223552	1.2788740953056452	-1.8996192800651714	0.24447136570315092	0.0778468856379396	0.9665265716718343	-0.43832805424147103	-0.8802438161595165	0.18176727147046337	0.8649290538628716	-0.4680926046301145	-0.1810719339778339
164														9.553827563366452	1.398311122435498	-1.828861420204607	0.2437747192030515	0.0773701514585832	0.9667407852887707	-0.43677191938698723	-0.8812437594883353	0.18066468054899926	0.8659123377758745	-0.46628671011100103	-0.18103184046288323
165														9.58097986373136	1.4543594717782995	-1.7273073646537984	0.24277144657687094	0.07651501809486802	0.9670612580043292	-0.4355612737111545	-0.8821536465329961	0.17914050561404235	0.8668035541978878	-0.4647046329815101	-0.18083473813244427
166														9.631248564253388	1.5469644758221317	-1.6992001621925694	0.24140690616355004	0.07539086344276463	0.9674910456256937	-0.43468145063435176	-0.8829660347780162	0.17726538833851188	0.8676259229247126	-0.46334350015700254	-0.18038308881738102
167														9.581137753563436	1.6461061956646523	-1.6853109297722162	0.23967247925446383	0.07413578444079588	0.9680191052625804	-0.434200962537641	-0.8836191794422064	0.17517611096627428	0.8683470658782726	-0.4622997200812804	-0.1795893704910319
168														9.567489377922408	1.6939713897861108	-1.7320992504643928	0.23764397306167107	0.0728374500373582	0.9686175963400204	-0.4340246024495171	-0.884140260098609	0.1729700694955695	0.8689925123589973	-0.4615091617127648	-0.17849735885771167
169														9.52940452388778	1.6818049960246433	-1.799462354220272	0.2353785205742589	0.07170368740477506	0.9692551435328225	-0.43399696255865805	-0.8845692938883358	0.17083266900610847	0.8696226702094034	-0.46086412913401076	-0.17708942920292547
170														9.450455628271817	1.7003815535617963	-1.8458262052678531	0.23306050985938292	0.07064234516821674	0.969893013591303	-0.43399900233914657	-0.8849689767053361	0.16874470728806834	0.8702457496091035	-0.46026032779096326	-0.17559261359477824
171														9.378239948644561	1.7995919909550928	-1.8480334717429678	0.23074478789684238	0.06961871279837314	0.9705205189416345	-0.4340472533849976	-0.88533197323549	0.16670416610239294	0.8708385755623033	-0.45971788304921557	-0.1740679273081832
172														9.410957341757205	1.898735559857629	-1.8108068010432465	0.22849231986969026	0.0685286797175233	0.9711308252839782	-0.4342596195194206	-0.8856087687438483	0.1646684292111071	0.8713264845139367	-0.45934837409114493	-0.17259556368692214
173														9.338839239339457	1.9393756800198922	-1.8137527105851994	0.2263423336040546	0.06739612801703829	0.9717133887865195	-0.4348846149776747	-0.8856611400448959	0.16272589428266934	0.8715758829123199	-0.4594149616008232	-0.1711530700365133
174														9.313956654278101	1.9011475103595077	-1.8686222252413451	0.22439815678254083	0.06626148755734537	0.9722421933341951	-0.4357810586207699	-0.885548036362164	0.1609333534183546	0.8716308485706319	-0.4597978801188667	-0.16983984590854107
175														9.385109583389033	1.8638148686932345	-1.775489366530792	0.2226779488709758	0.06515099630925947	0.9727126393578557	-0.4370221433661321	-0.8852251517783869	0.15933636391798306	0.8714506166698645	-0.4605776572293134	-0.16864769303749783
176														9.422097071878074	1.788337053595855	-1.850349370019588	0.22120917296654324	0.0641683472437746	0.9731130073159335	-0.43796523825069456	-0.8850132489796707	0.1579176975973854	0.871351221884419	-0.4611225133762711	-0.16766954338245327
177														9.497367881691662	1.8742723464161235	-1.8146865428881476	0.2199481385207397	0.06345419687134313	0.9734456231658115	-0.43878634585013854	-0.8848018917691607	0.15681886052767247	0.871257343760582	-0.4616266643307423	-0.16676769388022372
178														9.582085449518862	1.882586668238186	-1.691219990817299	0.2188487681754181	0.0629056357680034	0.9737289651934593	-0.43942782011778675	-0.8846435619442936	0.15591330673500178	0.8712108858219301	-0.4620050316816213	-0.16596066740716564
179														9.621305552871435	1.953278443451001	-1.6700230865679835	0.21782361462190497	0.0625205774280293	0.973983598584244	-0.4401808141187943	-0.8843923950577075	0.15521257180334191	0.8710876671120786	-0.4625378567881313	-0.16512118956414662
180														9.620982342000058	1.9366643854326742	-1.6845677821433285	0.2169113040565801	0.06225507442176173	0.974204183875852	-0.4408149030360409	-0.8841748385518131	0.15465146663773155	0.8709946655598988	-0.46298937415519203	-0.1643445526495596
181														9.623296264754494	1.9312090751366953	-1.6775985402007823	0.2161644708163568	0.062094198324863875	0.9743804349898847	-0.4413214761841654	-0.8839939059373492	0.15424049054725586	0.8709238062054071	-0.4633563259523079	-0.16368457161463024
182														9.548937815110639	1.938669252085989	-1.6667891553703928	0.21559108843917052	0.06200666807178204	0.9745130351617926	-0.4417258849257406	-0.8838407723123203	0.1539601629803383	0.8708609103480216	-0.46366007194171543	-0.16315824378442567
183														9.566172918249844	1.976002579194157	-1.6286388962827931	0.21527333703695217	0.06209094591417569	0.9745779110961101	-0.44193840145561397	-0.8837410177410341	0.15392291213752926	0.8708316942324914	-0.4638389030660579	-0.16280550458336696
184														9.60181976741826	1.9949430546471858	-1.6121715032260726	0.2150927045907881	0.062276789996904086	0.974605935678365	-0.4421066879347747	-0.883637204879092	0.15403560184843368	0.8707909076897642	-0.4640117364691835	-0.1625309309137476
185														9.613770016015128	2.0354760829785823	-1.5217664731660403	0.21505188419678145	0.062494219840701165	0.9746010258510486	-0.4423525267751125	-0.8834752105684553	0.15425885506737297	0.870676133334943	-0.4642908838191048	-0.162348532618521
186														9.596214740699802	2.007472618342339	-1.4786050936028983	0.21514596509685457	0.06264387882028505	0.9745706532360252	-0.4426105544440649	-0.8833059036945814	0.1544881147306053	0.8705217463092241	-0.4645927517134212	-0.1623128591889469
187														9.606429556236831	1.9193551717742243	-1.46716101196384	0.21531464562929115	0.06279746536170508	0.9745235152225309	-0.4428912704441348	-0.8831173580715901	0.15476128209935236	0.8703372483939276	-0.4649303283469476	-0.16233565178754317
188														9.618924293990995	1.9513014580706451	-1.456054518400781	0.21555593436986864	0.06300517453940346	0.974456765146198	-0.4430063562342871	-0.8830023439721907	0.1550878102096909	0.8702189422748468	-0.46512063867439435	-0.16242470250910335
189														9.649078778166768	1.973465770786589	-1.388857731023254	0.21581131805552473	0.06337872382935891	0.9743760117967288	-0.44292854931932557	-0.8829626352155926	0.15553547830322922	0.8701952511919466	-0.46514526997369154	-0.16248108389620847
190														9.658375928810411	1.9972506247528556	-1.398990654255988	0.2159643346315973	0.06386701267946654	0.9743102231109617	-0.4429311461150442	-0.8828700912321792	0.15605256104561868	0.8701559664613836	-0.4652541313079165	-0.16237976269403503
191														9.648554953963991	2.04244808467606	-1.3871805960950738	0.21603395846301437	0.06451123538794212	0.9742523437485395	-0.4431472980992348	-0.8826450871718029	0.15671031324973084	0.8700286207810344	-0.4655920431023305	-0.1620933324404467
192														9.647702378348686	2.0487760754247235	-1.3837754899295094	0.21599975409714134	0.06529522179077449	0.974207698717921	-0.4434993412849607	-0.8823331160724123	0.15746938293443713	0.8698577127954777	-0.46607382064780256	-0.16162534825014163
193														9.604892769037386	1.9575774809198492	-1.4367694421244932	0.215926398994836	0.0662450802140589	0.9741598326581502	-0.4439965401997746	-0.8819188854890813	0.1583860843266416	0.8696222527671151	-0.4667233321413544	-0.16101698272889775
194														9.56409227458834	1.8173275575510681	-1.467226647910424	0.21586451700443027	0.06718817502505792	0.9741089566548737	-0.44467859092033224	-0.8814040557270846	0.15933562478289207	0.8692890549613244	-0.46756030593352227	-0.16038671777862162
195														9.521402845375995	1.7278163300955778	-1.5203583499570092	0.21594063301567246	0.06822617853543325	0.9740199338695499	-0.44510092734060447	-0.8809996357511364	0.1603895454414021	0.8690539727159212	-0.46817179578528306	-0.1598760836956502
196														9.534161082970405	1.6578344586507059	-1.4827735105893713	0.21616190257614926	0.06935938862814534	0.9738908086042242	-0.4452798162572041	-0.8806962111302267	0.16155515756178734	0.8689073121505022	-0.4685759905394143	-0.15948863276546305
197														9.586049695519188	1.6084142898822085	-1.486650325050124	0.21646924090350866	0.07063754767409683	0.973730663274629	-0.4450584709709794	-0.8805750972805629	0.16282031650350443	0.8689442014074511	-0.4686126704517464	-0.15917958390588355
198														9.572543217837051	1.6498874717366614	-1.4953294457082957	0.21670810777874588	0.071862115884684	0.9735879171002133	-0.44490641508905276	-0.8804299528468347	0.16401640144427077	0.8689625295923658	-0.46869919397274085	-0.15882439275419907
199														9.605386493136454	1.620539184154674	-1.4783501438556998	0.21686146892917751	0.0730821705299097	0.9734629421012989	-0.44489661212417597	-0.8802149639592607	0.16519268065694742	0.8689292881554346	-0.4689142923529149	-0.15837069998221015
200														9.582455272542015	1.5121487519650736	-1.553234271008172	0.21691886739691008	0.07417305830865939	0.9733676398917228	-0.44512781369777654	-0.8798991349940558	0.16624903521329157	0.8687965437545662	-0.46933556189346326	-0.15785023250622016
201														9.546833189821493	1.5022184292644178	-1.562504778810685	0.2169440826562744	0.07521206906808875	0.9732822867323355	-0.44541333696015073	-0.8795644630225402	0.16725224855257764	0.8686438995690066	-0.4697972967720941	-0.15731584690418898
202														9.55226597642391	1.401759793839301	-1.5911119352779095	0.2169428114080858	0.07621267146058203	0.9732047293797935	-0.4456224507784395	-0.8792789947922739	0.16819358096938672	0.8685369583043504	-0.4701702649316838	-0.1567911797056749
203														9.50477594637493	1.4211378303837878	-1.6118790102216454	0.21692929283914586	0.07725204468733762	0.9731257901730554	-0.44594086680709477	-0.8789276239023597	0.16918325937482473	0.8683768912284833	-0.4706573631985139	-0.15621530413943796
204														9.520994234976984	1.4002262241860033	-1.6495806491371048	0.21689659017520874	0.07825976909576837	0.9730525565001331	-0.44614526393858944	-0.8786441970032044	0.17011401628837253	0.8682800657826564	-0.47101993971982903	-0.15565970496822473
205														9.48624984663596	1.448931637641475	-1.6578960552999724	0.2168363207430486	0.07928415678869166	0.9729830586854654	-0.4462884748011103	-0.8783926351712934	0.1710350131889077	0.8682215196977764	-0.4713177282461771	-0.15508382176921698
206														9.480547095260338	1.4377333108440629	-1.6969300055294496	0.2167297264093545	0.08025255421182462	0.9729274141645946	-0.4466366399394627	-0.87804304874148	0.17191892397392933	0.8680690857035015	-0.47180497252492487	-0.15445429856964765
207														9.447957053634095	1.3760259122804679	-1.6839287828167915	0.21657241479475237	0.08113745312884824	0.972889049609324	-0.44716145336839797	-0.8776159936869993	0.17273332697034074	0.8678381322409333	-0.472447755127003	-0.1537858735515834
208														9.4279420819091	1.3431257891516182	-1.6596721160220766	0.21656789134515414	0.08185614886461418	0.9728298511720165	-0.44753005897366144	-0.8772877709373802	0.17344455390341296	0.867649234860116	-0.47293312197051385	-0.15335927552606138
209														9.484487912026346	1.3587172015322428	-1.6407338061120647	0.21662597249193277	0.0825064664860446	0.9727619806663457	-0.4477624508831796	-0.8770392183827205	0.17410053704028355	0.8675148273205553	-0.4732809867368582	-0.15304617594821907
210														9.501826274435198	1.4131371711437817	-1.5820370556366596	0.21678764314673077	0.08300250039123042	0.9726837629505745	-0.44800995287696205	-0.8767993804949281	0.1746709148281203	0.8673466434488968	-0.4736385027555446	-0.15289332492106394
211														9.504113727550527	1.4868294805645872	-1.5584113071749741	0.21695806557489322	0.08330808323269825	0.9726196384250598	-0.4483525815626903	-0.8765404854509555	0.17509066214814056	0.8671269574797404	-0.47406385712633375	-0.1528211339390974
212														9.525812988483967	1.4797019247448568	-1.556819928281002	0.21713506341728872	0.08348702151405388	0.9725647955141512	-0.4486741791254619	-0.8763148871332926	0.1753958368224814	0.8669162850130707	-0.47444929742521225	-0.15282021774575372
213														9.562564637105783	1.5116158224613416	-1.5213586732200137	0.21744638347003714	0.0836748522767107	0.9724790945888102	-0.4489650146351407	-0.8760909435258731	0.17576994710590668	0.8666876518962696	-0.47482963025533276	-0.15293572598354693
214														9.557296711169798	1.5135479526310303	-1.468768796946077	0.21778661033664115	0.08379342336282652	0.9723927470725059	-0.44924542775864557	-0.8758820426863668	0.17609427286970292	0.8664568875576141	-0.47519397039598044	-0.1531115688094028
215														9.584017002244877	1.5256691743958444	-1.4244978465568927	0.21812178998237658	0.08401705934496573	0.9722983176340012	-0.44941233290355787	-0.875716584041005	0.17649084811891957	0.8662860034475139	-0.4754593549133074	-0.15325456618435845
216														9.591230054121429	1.5579016350433306	-1.3590155754297766	0.21838047845146524	0.08430922278105804	0.9722149564707196	-0.44955545339987535	-0.8755590962496195	0.17690721662211037	0.8661465585856367	-0.4756976181657878	-0.1533033434783947
217														9.637749139891541	1.6107439029574044	-1.3327398433692599	0.21853223880851347	0.08464280066457949	0.9721518692555169	-0.4498078918704157	-0.8753444270580536	0.17732736514565597	0.865977205827285	-0.47603332899500295	-0.15321797764460954
218														9.640041722444963	1.6236095655775735	-1.3090582642046567	0.2184819129163424	0.08501869998349795	0.9721303793121229	-0.4501409147461568	-0.8750976855471566	0.17769974007156858	0.8658168458744083	-0.47641983733166043	-0.15292262094590575
219														9.644460988171861	1.5671540430902862	-1.3617788647772793	0.21835788186565247	0.0853108248437276	0.9721326548324717	-0.4505533351563748	-0.8748296727724821	0.17797397510945234	0.8656335989358396	-0.47685963008130117	-0.15258887768153812
220														9.609995215615161	1.5489374500187614	-1.3730259016886237	0.21814752906959584	0.0855436117693556	0.9721594241924953	-0.4508728568279458	-0.8746321803201511	0.17813538706339574	0.8655202611935997	-0.4771800914056169	-0.15222955635976426
221														9.613025792256702	1.618740272254282	-1.3467926633368992	0.21788462582728957	0.08567330603974388	0.9722069607137784	-0.45117580683681946	-0.8744679036956712	0.17817484876166798	0.8654286112402612	-0.4774578201666809	-0.1518793890178463
222														9.584202039847517	1.6776751349121368	-1.3121380071660869	0.21755222019093295	0.08578950515044961	0.9722711516321136	-0.4515463894581522	-0.87427569629608	0.1781793058503456	0.8653189525587097	-0.4777888316736225	-0.15146267748409897
223														9.62668806084339	1.7072417806669484	-1.3260881789599304	0.21716551588407057	0.08589898108835178	0.9723479334882078	-0.4520369498215411	-0.8740237695068014	0.1781713959454745	0.8651599474703177	-0.4782298771355722	-0.15097830939592777
224														9.612349584309024	1.7276787274276257	-1.3554377560195876	0.21680111418776843	0.08612252371791157	0.9724094753731065	-0.4525138306035377	-0.8737559863326454	0.17827425349830872	0.8650020288990399	-0.47867879340568686	-0.15045963825631398
225														9.625390134468654	1.7577753446966604	-1.337980881253109	0.21636923391680557	0.08635474799221471	0.9724850703807517	-0.4530819258819589	-0.8734426735871663	0.17836665718681202	0.8648127676285484	-0.4792084655513754	-0.1498603466249378
226														9.618743157175729	1.8081850603170664	-1.2993390978512578	0.21598842709980248	0.08675426925562135	0.9725341619320507	-0.45359210464045063	-0.873125221938635	0.1786240449168467	0.8646405044680705	-0.4797145438492899	-0.1492338917694902
227														9.619107177921023	1.7505114932390344	-1.2944196096489733	0.2155946271568402	0.0872285592705618	0.9725791151308386	-0.45413698286765203	-0.8727757125715272	0.1789473563289736	0.8644527503183553	-0.4802642335140571	-0.14855203961637875
228														9.61479307625717	1.8119006097066375	-1.2324546760767663	0.21520872303912092	0.08777564512528144	0.9726153616156347	-0.45457863217349126	-0.8724689559155587	0.17932146590660283	0.8643167664109895	-0.48072170440542406	-0.14786199719466625
229														9.609939683151074	1.736245561123715	-1.2717047717554795	0.21478432468866665	0.08841129422049726	0.9726516009971349	-0.45485869370113624	-0.872239394361798	0.17972759300635938	0.8642749924836013	-0.4810217063476661	-0.1471287034872883
230														9.684162025363015	1.7203998973754369	-1.2913112457626397	0.21432739198856965	0.08910308964254274	0.9726892661377173	-0.4551867043561516	-0.8719758444573541	0.1801754446651088	0.8642157330324203	-0.4813717545712848	-0.14632976689723554
231														9.622876410055717	1.713628536998332	-1.245534004272263	0.21381426515097773	0.08985615822469409	0.9727329185583503	-0.4554608691679738	-0.8717364407221011	0.18064045663670247	0.8641983896506064	-0.4816652870471997	-0.14546372255321066
232														9.596005001769235	1.6490271751845909	-1.2855428123338317	0.2133072127050724	0.0906557289767132	0.9727700508402249	-0.45552152635437243	-0.8716065077791038	0.18111387198361723	0.8642917169774195	-0.4817505935656084	-0.144624318713722
233														9.621037972189198	1.6523912844815982	-1.253684873696834	0.21278788348298933	0.09140566432382227	0.9728136107047184	-0.45561980812513336	-0.8714658955267343	0.1815427866311535	0.8643679234486014	-0.48186325597964885	-0.14379115219597144
234														9.619053709249004	1.6457331452105954	-1.2687818032534837	0.21224024696193405	0.09201987850584084	0.9728753360679401	-0.4554940116805922	-0.8714783023105286	0.1817987181612659	0.8645688421939908	-0.4817238945306005	-0.14304826648936758
235														9.622080029632036	1.657062959841187	-1.2394398247750817	0.21162668058040662	0.09260715930629676	0.9729532682054866	-0.455377022386005	-0.871497568431118	0.18199932884905232	0.8647808482785538	-0.4815764760283332	-0.14226096508444536
236														9.627839530720099	1.659617366219771	-1.286348499027056	0.21094292817168542	0.09319808666550344	0.9730453215016476	-0.45519285866738946	-0.8715607295026835	0.18215750384477813	0.8650448210772465	-0.48134811875672645	-0.14142646886914462
237														9.631257607079307	1.6102618155705302	-1.2571306931420758	0.21019120814397868	0.09381691572279605	0.9731485201875592	-0.4549385187744839	-0.8716645905081406	0.1822958743075491	0.8653615430294166	-0.48103973638207576	-0.14053530470031322
238														9.61776920641238	1.512106924486466	-1.284981592285089	0.20940959516358332	0.09445231987132291	0.9732555577669978	-0.45461074525701267	-0.8718089850344696	0.18242303557947934	0.8657232189044534	-0.480653568471195	-0.1396261270880868
239														9.613756050643739	1.451927172937532	-1.2231336414778233	0.2085892003716749	0.09514780472313683	0.9733639816351706	-0.454056615973861	-0.8720712813200835	0.18254936260396243	0.8662119457607765	-0.4800401811860285	-0.13870216100772897
240														9.629487582196106	1.4316584894218074	-1.1802711534382562	0.20769926109710024	0.095796411448731	0.9734906596846544	-0.4533571391358634	-0.8724292210220057	0.18257754161309464	0.8667919711985475	-0.4792601609360842	-0.13777291753191045
241														9.568909099106294	1.3607456059837877	-1.1345472063611197	0.20671119969977514	0.09644404034664275	0.9736370098760088	-0.45256185582692365	-0.8728492343836227	0.1825430926833853	0.867443512033591	-0.47836467377675307	-0.13678081851374546
242														9.516134119720396	1.2398941068688736	-1.1218983443136517	0.2057244613241861	0.09701243867305553	0.9737895217938936	-0.45154274163810504	-0.8734056183603375	0.18240553251077665	0.8682088449715407	-0.47723287036760487	-0.13587563782326806
243														9.596455056008587	1.1774467803410509	-1.0946654803005664	0.2045886577641009	0.09750474849346133	0.9739796225463397	-0.4502896698941249	-0.8741174933239992	0.1820928912714828	0.8691275477747347	-0.47582710293361274	-0.134929143675047
244														9.501915339255037	1.0825722976260297	-1.0628832096916578	0.20329540863918316	0.09780816477430282	0.9742199647562713	-0.4488709062408038	-0.8749676523595229	0.1815117540409566	0.8701642869922823	-0.47419950466860256	-0.13397366687250467
245														9.558276851985477	1.0160725412624172	-1.0586232114024812	0.2018209567579226	0.09796376799342982	0.9745108524659163	-0.4473632727115537	-0.8759072348050754	0.1807003548555877	0.8712831937103604	-0.4724294827555291	-0.1329510443028506
246														9.550474476080353	1.1058529591761064	-1.036297116174098	0.2001143972764134	0.0978678638031027	0.9748723553559796	-0.44563572139954893	-0.8770294315130246	0.1795220879798499	0.8725611908716785	-0.4703628997854302	-0.131892799993176
247														9.571177121482052	1.0633795641286845	-1.0661881392944978	0.19806334537956077	0.09762381617377486	0.9753155908385376	-0.4437801536484001	-0.8782732683109614	0.17803157416083265	0.8739737332694038	-0.46808723191949025	-0.13063022953776876
248														9.528108296123703	0.9975952570501273	-1.0785716291313967	0.1956233287154242	0.09719449644231196	0.9758507791274356	-0.44199685326820437	-0.8795396688978185	0.1762065621255966	0.8754257792430509	-0.4657930878581623	-0.12909881618456376
249														9.574738349100372	1.1284770410923117	-1.077938390196855	0.1929400649135356	0.09674242290232327	0.9764297388763555	-0.44025122960259855	-0.8808020058465462	0.1742603837081172	0.8768996443063254	-0.4634962029053617	-0.12735102554652272
250														9.44719256320929	1.2583703583583563	-1.1944764604477591	0.19001037473925042	0.09610781809367847	0.9770667043721841	-0.4386264886541647	-0.8820441426153369	0.1720608436829615	0.8783523558016832	-0.46126068310581925	-0.1254421032922578
251														9.427644649349824	1.1167190598653296	-1.1993262555079431	0.18689196177775125	0.09543811088507612	0.9777335841698145	-0.43707028807489345	-0.8832613028275937	0.16976169829920912	0.8797959751584417	-0.4590653961234608	-0.12336127502995764
252														9.375235266305188	1.2731491990196033	-1.3617941510853224	0.1837186107763309	0.0947651356294367	0.9784002458725927	-0.4352797831334938	-0.8845926663788115	0.16741363440318568	0.8813506580525563	-0.4566348471787489	-0.1212667880846483
253														9.246691581935167	1.410122529994974	-1.403052343398746	0.18065150810387393	0.09396476295918602	0.9790483419841026	-0.4336035046343014	-0.8858631597482289	0.1650286731744989	0.8828097379326124	-0.45433147098006343	-0.11928906525094612
254														9.248795872488644	1.4758503922834583	-1.4526131151297361	0.17777263344201955	0.09310630590701682	0.9796571372676454	-0.4319479751139924	-0.8871031019872704	0.16269306450947502	0.8842046355872667	-0.4520832912693317	-0.11748557426798167
255														9.174717270702631	1.5530418655894553	-1.503120293225149	0.17517676160159518	0.09212233416048074	0.980217617543983	-0.43053761615609876	-0.8882025541528831	0.16041690643731443	0.8854097713880287	-0.4501218705474319	-0.11593031693857864
256														9.13705035752394	1.6603249161478666	-1.5196475678829806	0.17285420524170841	0.09093448815371435	0.9807407111945944	-0.4293872012824405	-0.8891702650320396	0.15812296214555624	0.886424308728664	-0.44844972811573214	-0.1146507141182978
257														9.171458957408586	1.6269395615351252	-1.5608982221489003	0.17086245073182937	0.08964545487697681	0.9812082935594322	-0.4285468785928971	-0.8899619092331857	0.1559338736846727	0.88721676932878	-0.44713699526422845	-0.11364379300199123
258														9.14509627279358	1.6569641896560319	-1.547607623207425	0.16929270071914015	0.08837462426003717	0.9815955925278579	-0.42778499606697207	-0.890670583813399	0.15396723115481217	0.8878851156671115	-0.4459773950733332	-0.11297869029336349
259														9.219923490911803	1.6872234259789136	-1.491453087816787	0.168104490260917	0.08707640546366568	0.9819157703009176	-0.4270230441295084	-0.8913480057869654	0.15215141261903417	0.8884774618055795	-0.4448779969734702	-0.11265597042495279
260														9.259572783082918	1.6996931554813544	-1.4533742937204122	0.16727782962355525	0.08581082728696968	0.9821683306016127	-0.42627859373354404	-0.8919789677318597	0.1505326597405297	0.8889908257349932	-0.44385811138733494	-0.11262898700904328
261														9.367543885562702	1.7526617940269233	-1.3877030152731806	0.16671022006151587	0.08459738986753873	0.9823700851281251	-0.4257031126713142	-0.8924942241030412	0.14910036822444064	0.8893731288885415	-0.44305455823217654	-0.11277453631336992
262														9.438669126720368	1.777794936234703	-1.3605960069668601	0.16635207825430343	0.0835092861582859	0.9825238853004072	-0.4251212952182356	-0.8929751537337601	0.14787582346731826	0.8897184219810468	-0.44229127725911715	-0.11304669675870638
263														9.587776439966524	1.7532473401729098	-1.2899282354889774	0.16612140111002682	0.08251331313775528	0.9826470542612302	-0.42468600239185544	-0.8933579027295002	0.14681095668639468	0.8899693699592517	-0.4417048910593817	-0.11336361739355894
264														9.625749268458579	1.7720900506097104	-1.2568112518804324	0.1659283194560936	0.08155343799902123	0.9827598025728446	-0.4243043019171122	-0.8937043760184825	0.14580242679752234	0.8901874253083497	-0.44118196363400286	-0.11368739062418837
265														9.663822767482225	1.7414972493776688	-1.2008327728525638	0.1657857236822063	0.08044585991023356	0.9828751484529815	-0.42422578057825666	-0.8939174238255787	0.14472085707944737	0.8902514144419745	-0.44095362908626123	-0.11407153930634922
266														9.694905361191573	1.7119336948265622	-1.092115889355965	0.16583846622253828	0.07924648357552763	0.9829636808966398	-0.4240483270947276	-0.8941773800361215	0.1436308787131164	0.8903261309256965	-0.4406436291070741	-0.11468466644773567
267														9.75662735099877	1.729587729389711	-1.0372004273345259	0.16595491648149735	0.07792561076244853	0.983049624832297	-0.42399380318633284	-0.8943881948465982	0.14247460046841348	0.89033039965802	-0.4404513095750133	-0.11538814210501608
268														9.78595461179563	1.7374865875187229	-0.9757605532705232	0.1660435241583802	0.07645885009839395	0.9831498320839492	-0.4240604843166441	-0.8945604956364244	0.14118861599948151	0.8902821203001886	-0.4403584493209448	-0.11611280026532045
269														9.811021883708978	1.8056856616574892	-0.8613699064896807	0.16606754548761182	0.07496347270253181	0.9832609257445848	-0.42420477435686166	-0.8947011514434742	0.13985763839907603	0.8902088966914257	-0.4403297938660288	-0.11678096114237346
270														9.808437079677212	1.8035677980889822	-0.7913709619607157	0.16592202915106308	0.07349043980539863	0.9833966826767327	-0.42448800186189317	-0.8947797055474327	0.13848904222264952	0.8901010147829801	-0.44041847576782983	-0.11726785443867543
271														9.798076210988066	1.8582906043743153	-0.8539061951535022	0.1654971280103788	0.0720648789643531	0.9835737663440246	-0.4250214346216844	-0.894744825669547	0.1370710656911126	0.8899255478591689	-0.4407248009329917	-0.1174485807071895
272														9.794232765301789	1.8950647274443126	-0.8243439310757911	0.16489734902043368	0.07082705728751654	0.9837643987469886	-0.4255321318165997	-0.8947046658790615	0.13574227656060975	0.8897928236829364	-0.4410069033589247	-0.11739523888181685
273														9.764677511155204	1.9222587699019043	-0.8389207091224088	0.16407284825130214	0.06973113324022776	0.9839805229392191	-0.42611556177914156	-0.8946219883609905	0.1344508309780002	0.8896660207495575	-0.44134914410029363	-0.11706965672447517
274														9.815584400971616	1.9581351370309832	-0.8082087313451065	0.16313198167944631	0.068915655130424	0.984194385795449	-0.42669010944329955	-0.894511337139994	0.13336048226999192	0.8895636610477081	-0.44170136993897163	-0.11651777863242119
275														9.92540147936914	1.9809518684925216	-0.8555289137994259	0.1620857689435513	0.06824294632708935	0.9844140916212935	-0.42747237594250365	-0.8942836085174999	0.1323789837662705	0.8893793180145629	-0.44226658003235747	-0.1157786719324152
276														9.987143678933556	1.9561113126406038	-0.9278592843609749	0.16098124080254045	0.06764697807006143	0.9846364438043432	-0.42835616313523994	-0.8939972474351756	0.1314531060203056	0.8891546758656396	-0.4429365732656524	-0.11493978619238515
277														10.003507571449259	1.9435090606997647	-1.027137216902411	0.15982009040444095	0.06715219991595581	0.9848594421284511	-0.42925564535037186	-0.8936916237535727	0.13059430526458124	0.8889303288998256	-0.4436280690839459	-0.1140044151903668
278														9.93625879826541	1.8980013539845053	-1.0475324315350358	0.15875038044596268	0.06683051096258394	0.9850543129760622	-0.43015895267729254	-0.8933536036165961	0.12993311485843942	0.888685316712185	-0.44435686301633914	-0.11307248184435292
279														9.866085275727828	1.7627473979397754	-1.187801458635547	0.15781201606849238	0.06669163114733592	0.9852144913262827	-0.4307796202596115	-0.8931231615876196	0.12946017536184637	0.8885517915987696	-0.4448406957222357	-0.11221617118746452
280														9.765870350834106	1.7627067019557876	-1.2268060130966454	0.15711583270927137	0.06669783414755096	0.9853253341065058	-0.43101712170570317	-0.893049180219889	0.12917972946679465	0.8885599900449055	-0.4449882702146305	-0.11156425710229828
281														9.682666595305866	1.8146042686531596	-1.2122396766082941	0.15672325045034236	0.0668079625500353	0.9853803929996742	-0.4309748125666782	-0.8930816951098849	0.12909607582250945	0.8886498375071002	-0.4449064868032018	-0.11117411703735963
282														9.600106699986176	1.8288428922506381	-1.1555672137433624	0.156667483857652	0.06688398422699948	0.9853841038679463	-0.43081891434572306	-0.8931534255739683	0.12912018210744383	0.8887352600992524	-0.44475104388793674	-0.11111321441172389
283														9.551712881356814	1.7810783934923395	-1.183406544176456	0.1568394088951252	0.06700003404746233	0.9853488698197546	-0.43068934899093514	-0.8931917594038474	0.1292871439812363	0.8887677337095408	-0.4446565825113796	-0.1112314665286242
284														9.551104352826883	1.782491620974878	-1.1861875473598427	0.1572425318883009	0.06713799250945557	0.9852752286174442	-0.43036240813681564	-0.8933106712458754	0.129554013063758	0.888854872196827	-0.44439682109579015	-0.11157276357569829
285														9.541001949133282	1.7761788655852757	-1.1585515340220929	0.1578204309351972	0.06738645783797823	0.985165862623893	-0.4298186133098323	-0.8935116322465928	0.12997277673590932	0.8890155629862966	-0.4439549845874917	-0.11205043698298739
286														9.576682874967517	1.8091194621998763	-1.1265793743029686	0.1584535958507446	0.0677565920110324	0.9850388328391017	-0.4293769439314127	-0.8936413684976264	0.13053943668413104	0.889116357954396	-0.4436374068411503	-0.11250756983052457
287														9.577055761378734	1.8257864248393993	-1.1093534018261086	0.15915596222648032	0.06838053622901677	0.984882471136935	-0.4291024074594516	-0.8936487808989186	0.13138866127021537	0.8891234467723063	-0.4435267282395828	-0.11288727889724914
288														9.550262535186905	1.7041238588879495	-1.212135932408028	0.15992904481060805	0.06920543997821618	0.984699602774058	-0.42905177184172627	-0.8935118541866309	0.13248072881534076	0.8890091550177881	-0.4436746257173043	-0.1132057807232833
289														9.489315646489766	1.4775894114717172	-1.261316732478828	0.1609009996368752	0.07021837178361803	0.9844695264861743	-0.42894883624730273	-0.8933606348269122	0.13382702277096914	0.8888834367890648	-0.4438199594494533	-0.11362253032012026
290														9.483956087311322	1.4311875003216143	-1.2648702700627195	0.16202026179873863	0.07139846449846363	0.9842010435037805	-0.42870668057243067	-0.893243760423186	0.13537417219549072	0.8887969491392489	-0.443866921196329	-0.11411458920074946
291														9.493235440967972	1.3768839305737997	-1.212516890828718	0.16333009634720014	0.0726287254734628	0.9838944800451489	-0.4283616455130346	-0.8931552440303112	0.13704017919763414	0.8887235679785807	-0.44384544415511884	-0.1147677717051509
292														9.463422413160123	1.2839152509142604	-1.220404941925726	0.16476495395178137	0.0738462511487227	0.9835645587049933	-0.4280155182725799	-0.8930569919734331	0.1387513070396785	0.8886254700756238	-0.4438422470638008	-0.11553715270091136
293														9.499105478463157	1.2083083549824862	-1.2436080808770757	0.1662772773727419	0.07503786928470657	0.9832198051314467	-0.4277366003710166	-0.8929198861503951	0.14048301541542646	0.8884780626062492	-0.44391823018476834	-0.11637584447414118
294														9.493523426245474	1.114894722339328	-1.2284089121881152	0.16784806244207445	0.07611903859158434	0.9828697369938373	-0.4273211625339134	-0.8928592348572308	0.14212322393200105	0.8883826045038854	-0.4438561463966155	-0.11733741654237956
295														9.494877162019284	1.0688837632320922	-1.2914348747913014	0.16948274371993222	0.0771577481539773	0.9825081584806163	-0.42683926172367964	-0.8928301155257872	0.14374501543147325	0.888303914340328	-0.4437353566147483	-0.11838534139678902
296														9.478831608589486	1.0045863136152535	-1.2908450327914738	0.17116091897054525	0.07816435962479504	0.982137603750923	-0.4261633411012541	-0.8928962249213854	0.14533113301201356	0.8883066736879642	-0.44342605291703957	-0.11951815375013225
297														9.521253853641374	1.0574094453780942	-1.297976282297019	0.1729060859789855	0.07912910745045162	0.9817545873514026	-0.4252015218138576	-0.8931029320572672	0.1468700738676607	0.8884295983805399	-0.4428382742094539	-0.1207771154506736
298														9.51126249661764	1.1219992191471286	-1.2796786265846465	0.17468405119346708	0.08000750708440571	0.981368575545792	-0.4242205761168495	-0.8933262540811149	0.14834118298197477	0.8885507217135814	-0.4422295813031306	-0.12210901835135402
299														9.492674285920113	1.176905014941233	-1.2295286719829308	0.17637842012210564	0.08077954606325163	0.9810022007381254	-0.4233705828933464	-0.8935037878090636	0.14969412383725791	0.8886214055804522	-0.44173028661013414	-0.12339510296422102
300														9.469854159264349	1.210185038294013	-1.2228960685741381	0.1780297825782265	0.08148443814324713	0.9806455439431869	-0.4227868273383326	-0.8935600466697213	0.15100245569126494	0.8885700282725817	-0.44148695262270765	-0.12462975374917035
301														9.528010192146665	1.1692723605434723	-1.2703986992414935	0.17956095826896662	0.08206285232833871	0.9803180864052584	-0.42246939689761914	-0.8935107174898091	0.15217820611312435	0.8884128944080519	-0.4414796552487825	-0.12577059692521037
302														9.512402525264628	1.1494014168263682	-1.2936156325802177	0.1809997157479119	0.08250258066030439	0.9800165442907411	-0.4220554795539537	-0.8935365367509958	0.15317189582139237	0.8883176656341234	-0.44134542217567785	-0.12690919291728026
303														9.464563667688452	1.1191760886144546	-1.3087623624854239	0.1823462747055486	0.08289565047179906	0.9797337124106051	-0.4216216074165744	-0.8935855674574104	0.15407807693271053	0.8882483077723666	-0.4411724660092417	-0.12799140195674003
304														9.485506149514123	1.1761328044513806	-1.318255408854635	0.18362512720790924	0.08318656574712702	0.9794701669459253	-0.42124048330878583	-0.8936288178396208	0.1548676568827179	0.8881656759184405	-0.44103007970631847	-0.12905115619233598
305														9.529350210382708	1.1723488403481455	-1.3012371697988658	0.1848031307812018	0.08340444272769415	0.9792300555981468	-0.4208794361826101	-0.8936808569546665	0.15554750435600675	0.8880925081612134	-0.44088345948340646	-0.130051805454093
306														9.505468484722366	1.1875683892009452	-1.313864831606184	0.18584763250004754	0.08338933806077478	0.9790336438508704	-0.42065153618200823	-0.8937139098126328	0.1559734994001667	0.8879825125540728	-0.4408193118560063	-0.13101676111457317
307														9.530311345824419	1.200934079210744	-1.277065659081138	0.1868208405014904	0.08321947729514195	0.9788628566622803	-0.42051800255848076	-0.8937302441269406	0.15623975248644265	0.8878415303862184	-0.44081829514157267	-0.1319721470232833
308														9.53837589969686	1.270796180052032	-1.3202743695653552	0.18764177275877936	0.08292956899612514	0.9787304285154614	-0.42042355306467627	-0.8937583458950302	0.15633315442174178	0.8877131299831129	-0.44081595448565125	-0.13284085639022458
309														9.561480821294573	1.2709299618999172	-1.3041601185192064	0.18832463744951727	0.08260805388014644	0.9786264559900489	-0.42037534973485646	-0.8937794717628099	0.15634200072498114	0.8875913453075156	-0.4408334893012641	-0.13359430543876977
310														9.57098145983715	1.289773051383075	-1.3221088234762082	0.18891622249250023	0.08228823578197278	0.9785393743386384	-0.42032134812759037	-0.8938104446926858	0.15631011888699792	0.8874911972450028	-0.4408305062154307	-0.13426779063676414
311														9.53675230173716	1.3286199791818616	-1.3448267214944594	0.1894971148496516	0.08188743197468135	0.9784606747070882	-0.4202715322096751	-0.8938531156245333	0.1562000220948989	0.8873909412867534	-0.44081862049249554	-0.13496763000550627
312														9.574562326530621	1.4160032653391819	-1.3178087057880004	0.19002954458098215	0.08137579087680949	0.9784000985514658	-0.42009054377508215	-0.8939824390305221	0.15594657333777634	0.8873627821906327	-0.4406510857404216	-0.13569787551279938
313														9.577880045044767	1.4828905083694166	-1.3044165732458364	0.1903969208751059	0.08082733718281412	0.9783741380909524	-0.4200488953072644	-0.8940613980532481	0.15560572631563993	0.8873037462292296	-0.4405918270633338	-0.13627510356836198
314														9.542822326438726	1.459572520330647	-1.3245351890913077	0.19077535684672636	0.08026400185387161	0.9783467959912813	-0.4201082679761642	-0.894091555910435	0.15527180306715363	0.8871943453370696	-0.44063361158229775	-0.13685106483279258
315														9.533628457540495	1.4955823834354398	-1.3215428780155072	0.19109660053223027	0.07961626007638731	0.9783370280207503	-0.42023520133135683	-0.8941058722003692	0.1548452933053212	0.8870650848878109	-0.44072206709928424	-0.1374030376109449
316														9.479337267634106	1.4918900035628968	-1.3218389528253982	0.19137900527397794	0.07891210044396343	0.9783388762304522	-0.4203360759782522	-0.8941448451660517	0.15434564812194115	0.8869564022946942	-0.4407696408176258	-0.13795094839091676
317														9.502755072662094	1.5358513772224245	-1.3267696907526114	0.19168666747528612	0.07822114502161687	0.9783341320754002	-0.4204294858645328	-0.8941831729644413	0.1538684522666327	0.8868456849575941	-0.44081504699675533	-0.13851651675285764
318														9.535143699497043	1.539498695753996	-1.3407749888966343	0.19198979183727793	0.07755937999107237	0.9783273799734316	-0.4203215389193358	-0.8943170806664231	0.15338436409480471	0.8868312825733877	-0.44066030205100937	-0.13909987219819153
319														9.533752427763945	1.606234922196844	-1.2724156405625724	0.1923108783597739	0.07692438978727617	0.9783144506345323	-0.42015611772671246	-0.8944736934294069	0.15292366886643652	0.8868400999060138	-0.4404536865762504	-0.13969676868160208
320														9.566118403636523	1.6105658468694215	-1.286271478178804	0.19260106196560944	0.07641382441751832	0.9782973772670598	-0.42000684334537947	-0.894605034140355	0.15256501707070252	0.8868478350161142	-0.44027577758562025	-0.14020755043366273
321														9.598503388963898	1.6156460365206886	-1.2990047372417068	0.19274646399799372	0.07600420406100725	0.9783006498931313	-0.41989319741959785	-0.8947140118894108	0.15223843039621174	0.8868700600296624	-0.4401252070647719	-0.14053931382063484
322														9.558299756866536	1.5945013616220889	-1.2622388069792985	0.19289721570336982	0.075650099935576	0.9782983831907448	-0.4197446368392863	-0.8948311460607302	0.15195940209245462	0.886907607374378	-0.43994804513644337	-0.1408567128754562
323														9.520827149989127	1.5618376762121253	-1.3009443079806593	0.1929595827434868	0.07545983296383463	0.9783007784094472	-0.41946841765923454	-0.8949928438649093	0.1517697467121182	0.8870247155597853	-0.4396517065128631	-0.14104442898040948
324														9.488436434947795	1.5509357255627727	-1.2954224081291723	0.1930578859224525	0.07533050965087226	0.978291350773835	-0.41902576743226694	-0.895224609621913	0.15162554057642996	0.8872125218407113	-0.4392017903458896	-0.14126474594183874
325														9.512816944487602	1.5494488870907988	-1.2737331059295711	0.19315646098580663	0.075310662583838	0.9782734207166329	-0.41833449564710357	-0.8955620094642401	0.15154186535758307	0.887517228751714	-0.43851680846411767	-0.141478540292591
326														9.508980767963514	1.6098726423996734	-1.2238922794865916	0.19324497561327642	0.0753304122363615	0.9782544190508543	-0.41753606412582706	-0.8959462509256799	0.15147260678595495	0.887873873111794	-0.4377278200486223	-0.14168394757679287
327														9.570930982592657	1.639055693132245	-1.1659941519356622	0.1932215236106114	0.07541444567723557	0.9782525768924858	-0.4167235443462446	-0.8963351490860012	0.1514093395417831	0.8882606207645912	-0.4369164243836237	-0.14176426807461673
328														9.572128803233554	1.5424118583925617	-1.3397319153130516	0.193209633356121	0.0754575013808517	0.978251605193547	-0.415806812989294	-0.8967797272396152	0.1512971086429842	0.888692709461532	-0.4359957411459422	-0.1418907391358612
329														9.66430523190361	1.4110268484557789	-1.2621116806965136	0.1931442754070377	0.07549084188588337	0.9782619391905479	-0.4144738192832891	-0.8974322453556711	0.15108546629177155	0.8893293776808534	-0.4346452551072416	-0.14204492319877893
330														9.726157703103995	1.5968645675966417	-1.2540612532849973	0.1930046219080806	0.07555954044000221	0.9782841978538825	-0.41298928336945173	-0.8981561433641962	0.150848911030673	0.8900500366519319	-0.43313542684205464	-0.14214300640638494
331														9.750077406613055	1.643144745898189	-1.254497464825246	0.19265730829993183	0.07563175655534632	0.9783470748967253	-0.4115566641870971	-0.8988666832463803	0.150531717298519	0.890788568472797	-0.43164629403019905	-0.14204648228020605
332														9.7157785970986	1.6202945833660234	-1.2673194517834763	0.19221346407593615	0.07575007577709361	0.9784252195480724	-0.41022314365560975	-0.8995263640807105	0.15023079821743135	0.8914992746139719	-0.43024905153120585	-0.14182664425015507
333														9.754363493270048	1.6231836374114392	-1.3277013021676174	0.19166131954186727	0.07583916969907417	0.9785266265824479	-0.40914235537496885	-0.9000742159682986	0.1498964268662713	0.8921146067796968	-0.42908603576486587	-0.1414803953977346
334														9.701159718526725	1.621091471218998	-1.3189205291976913	0.19102120883228924	0.0759374669158446	0.9786441635725706	-0.4081924943210554	-0.9005623690157387	0.14955369300928703	0.892686834985375	-0.42804312940539757	-0.1410294083254554
335														9.71828414039569	1.6340076243479245	-1.379778135549364	0.19031944289561498	0.076030328129024	0.9787736709068626	-0.4074208009052069	-0.9009690338357512	0.14920821377803792	0.8931891180739173	-0.4271699770274894	-0.140495587406408
336														9.667878163798688	1.6428310302385718	-1.3476368938911143	0.18959584223199838	0.07609643036226396	0.978908958940749	-0.4069583346753952	-0.9012325998246903	0.14887818796405133	0.8935537647207185	-0.42660184516636995	-0.1399018772357264
337														9.634778267338204	1.5950387742434649	-1.4535074405390986	0.18881794326008705	0.07607642291033534	0.9790608572403448	-0.4067814329391062	-0.9013764308156339	0.14849038954113042	0.893798998723448	-0.42630142838986246	-0.13924956744537853
338														9.564564178699607	1.4922808458209982	-1.473044594543774	0.18820451847173747	0.07603215647750583	0.9791823989473067	-0.4066918437233237	-0.9014701617198888	0.1481664326952712	0.8939691289276974	-0.42611108728839564	-0.1387390998030339
339														9.493389614423537	1.4388972441060395	-1.5175410076134996	0.18763815607422202	0.07603247669343108	0.9792910623879547	-0.4066887718969806	-0.9015123826251903	0.14791777035359402	0.8940895733638727	-0.42602169717200533	-0.13823656658313183
340														9.50507852467243	1.4550553163140498	-1.5241984109768671	0.18711265427526658	0.07603548211078776	0.9793913722665958	-0.40661098059707274	-0.9015867640611452	0.14767808682279374	0.894235072600014	-0.4258637250693392	-0.13778143054169067
341														9.450032265845222	1.394230809752984	-1.5124818279167218	0.18661198815814206	0.07601262824540683	0.9794886656939381	-0.4064689041979558	-0.9016937499966375	0.14741577641865378	0.8944042686591889	-0.42564123574229396	-0.13737009368852604
342														9.45653590717022	1.3886225311831666	-1.5638052450820354	0.18622805647667262	0.07595870674422253	0.9795659170523783	-0.40630666779980806	-0.9018065031363396	0.14717310420869684	0.8945579929117722	-0.4254119248102393	-0.13707914336947702
343														9.456638095497592	1.4345106109176022	-1.5862110333053803	0.1858857797910478	0.07588107454463536	0.9796369426463182	-0.40615103569512956	-0.9019165692624429	0.14692800377613136	0.8946998452415468	-0.4251923854160805	-0.13683428776785278
344														9.486635949968724	1.4781796966083718	-1.638924234627174	0.18560691430621695	0.07580055326843818	0.9796960495408379	-0.40596452893145407	-0.902037092278157	0.14670339261186394	0.8948423741705506	-0.42495100926879414	-0.1366519853871358
345														9.460287168068811	1.4404350563180222	-1.562093395323254	0.18547130432331904	0.07579830905049326	0.9797219052454086	-0.40583377808675014	-0.9021091446837306	0.14662208442735716	0.8949297960379027	-0.4247984315214388	-0.13655384557193628
346														9.454903861362107	1.4663308564549233	-1.6296120956138194	0.18540535425368443	0.07582326041235907	0.9797324572527467	-0.4057603405078267	-0.9021449494442719	0.14660503491751	0.894976759857505	-0.4247179338956991	-0.13649643197655514
347														9.489853161985813	1.4852818600155235	-1.6164511270688449	0.18546158615169783	0.07581874652121282	0.9797221635433432	-0.4057359808584422	-0.9021531914692195	0.14662173426453717	0.8949761526984589	-0.4247012323950271	-0.13655236835445572
348														9.51199032501091	1.4260006520470163	-1.5911458920777606	0.1857260652617465	0.0758127470565525	0.9796725249113243	-0.40570975783822166	-0.9021477432741778	0.1467277809419888	0.8949331936391909	-0.4247138762614755	-0.13679437939371297
349														9.49259633070571	1.3993178991540376	-1.5512846206629085	0.18616692165668614	0.07579534617273084	0.9795901912429656	-0.40562228506902176	-0.9021605094042251	0.1468910382797224	0.8948812430352193	-0.42468986421866195	-0.1372081633638318
350														9.535383147208782	1.3790225121555808	-1.5506491365569364	0.186698815261006	0.07568978682266408	0.9794971202361322	-0.4055668706071349	-0.9021647739545472	0.14701780198831707	0.8947955441585926	-0.4246996312763648	-0.13773582448893834
351														9.555037956052077	1.4423454414175294	-1.4805985639255512	0.18729947742804348	0.07554894610917562	0.9793933134839008	-0.4054291130312462	-0.9022084961429233	0.1471294117239022	0.8947324404881487	-0.42463182432469354	-0.13835343764722202
352														9.602867791719847	1.4430292736821415	-1.4379894046747055	0.18785968868293412	0.07526088445787243	0.9793081928783038	-0.40554043702759707	-0.9021589706864682	0.14712629114266743	0.8945645260703199	-0.42478817177571004	-0.1389579714015471
353														9.60460137876632	1.4531574933657143	-1.4225539668317024	0.1883879771263588	0.07491186464463429	0.9792334668554289	-0.4058528589751406	-0.9020252591562359	0.14708463110002484	0.8943117056909985	-0.4251336782467248	-0.13952751945213926
354														9.590757664395387	1.4220584866179096	-1.4391839935195638	0.1888523808398752	0.07458233341499057	0.9791691650544792	-0.40610823930873086	-0.9019201222433184	0.14702445734693254	0.8940978001408308	-0.42541458441733354	-0.1400412623063434
355														9.641570293448511	1.4325605267731045	-1.374175520221009	0.18931678109654942	0.07427017963988664	0.9791032105000477	-0.4062627463750457	-0.9018602646425695	0.14696477117540796	0.8939293804898947	-0.42559605669589295	-0.14056407514674513
356														9.634908631072202	1.4828468670653756	-1.3495518908174988	0.18973406728356612	0.07393895064344252	0.9790475041027284	-0.4065995171940374	-0.9017197178198841	0.14689582401281717	0.8936877622131856	-0.4259513846351194	-0.1410234079782986
357														9.617826912158067	1.5140353168790515	-1.3132758213852331	0.1900676508276702	0.07364888958136756	0.9790046624875092	-0.4070362850003891	-0.9015310494901219	0.14684423549571465	0.8934180157137711	-0.4264007596952313	-0.14137411831518798
358														9.593062308230708	1.512568126484347	-1.3410368265376824	0.19031644905814177	0.07335577309871247	0.9789783346790624	-0.4076173136387171	-0.9012796377055743	0.14677581639788306	0.8931000922852128	-0.4269823710768391	-0.14162725708614504
359														9.603515084913719	1.530238774200548	-1.3543368329387238	0.19049084661299603	0.07305018930998688	0.9789672656419312	-0.40826352253311904	-0.9010036963776601	0.14667390798176405	0.8927676817210141	-0.4276166612230733	-0.14180922931501266
360														9.575727910799374	1.5905918538178025	-1.3283677426252742	0.19055213882255084	0.07277085515354687	0.9789761411956747	-0.4090925821349738	-0.9006435680115112	0.14657565501008213	0.8923750005643881	-0.4284221820117586	-0.1418495411624323
361														9.59638621391663	1.6762769925768266	-1.3744328831842314	0.19051874233987942	0.07249850135458336	0.9790028478602962	-0.4101511694134777	-0.900177771703873	0.14647865905655597	0.8918960853406565	-0.42944609281211243	-0.1417653918360301
362														9.572224972219296	1.674975676655347	-1.397725612127944	0.1904665285668743	0.07227156633112056	0.979029786163695	-0.41149943146488444	-0.8995650861199294	0.14646116802115422	0.8912859919238947	-0.43076615063638685	-0.1415973307168914
363														9.542773791402004	1.6529785223683409	-1.463412151119474	0.19037841318620535	0.07210255337327504	0.9790593861404714	-0.41322351380879035	-0.8987614892435327	0.1465404827624897	0.890506814925197	-0.4324685043443061	-0.1413103156955639
364														9.527039100373846	1.382670638832233	-1.5176144220418262	0.1904396014137793	0.07202083225583927	0.9790535010583112	-0.4146590402141966	-0.8980706825935207	0.1467205828595586	0.8898261844776212	-0.4339147943861601	-0.14116413365587693
365														9.500768640663278	1.2522269428568826	-1.6141620504775975	0.19076428933062256	0.07202304650420702	0.9789901259402134	-0.41557484740000605	-0.8975993551473002	0.1470134138356506	0.8893292596809372	-0.43488858160614363	-0.14129893652803044
366														9.583876534072648	1.2746676851802161	-1.5556558503274167	0.19140193028917052	0.07212589686137724	0.9788580878163713	-0.41571917997202334	-0.8974663685209403	0.1474166909723102	0.8891247744186241	-0.4351459207849467	-0.14179267660656159
367														9.600469582938436	1.4017782902536644	-1.4334541418353268	0.1921753034014651	0.07220335558063021	0.9787008369289629	-0.4153646818371445	-0.8975710758715315	0.14777802556926284	0.8891236324858782	-0.4349170486445881	-0.14250027001166826
368														9.671017300900427	1.5030496367514812	-1.4161965796679448	0.1929770615171022	0.072210686732644	0.9785425235777064	-0.4150928696511116	-0.8976436277503156	0.14810073303012347	0.8890769164099536	-0.43476606845619237	-0.14325048839747673
369														9.653189824701911	1.5369002131805038	-1.3826188833972965	0.19365762964886207	0.07208001858272764	0.9784176988382303	-0.4149702289114271	-0.897672988257626	0.14826636594258907	0.8889861818925995	-0.4347271294429847	-0.1439301612945682
370														9.668013833735367	1.5785074769389182	-1.3567254443266727	0.19430926658728703	0.07188941273792515	0.9783025203149115	-0.4151352044270068	-0.897572846079766	0.14841074093749795	0.8887669384960598	-0.43496539898762765	-0.14456289537732708
371														9.643237631244467	1.5301805766206855	-1.363249136264598	0.19489919206770762	0.0717335500194389	0.9781966074020928	-0.4152957513265555	-0.8974740629548794	0.14855889489819685	0.8885627405318474	-0.43519490360626967	-0.14512633122098512
372														9.607116214484213	1.5120529704323278	-1.3823805961033293	0.19546904182399788	0.07169142723413219	0.9780859844356944	-0.4153257560726499	-0.8974233372425675	0.14878128281169886	0.8884235307729584	-0.43530643578236483	-0.1456431836213558
373														9.602859216124559	1.576320727605671	-1.335716265172685	0.19609611260545412	0.07184871300140241	0.9779489133186207	-0.4150921583009246	-0.8974670269170504	0.1491691513475569	0.8883945152566562	-0.4351904158373806	-0.14616595781911212
374														9.603364373924489	1.6399513335894345	-1.342919530162307	0.19669211582878587	0.07216686082724874	0.977805786324225	-0.4148854513388396	-0.8974750492489735	0.14969501742850308	0.8883593157265605	-0.43512122468789427	-0.14658528571430407
375														9.616108068923857	1.6260812395274364	-1.311955561524432	0.1972745684159496	0.07264250081835474	0.9776532164991616	-0.41470492780990675	-0.8974467085752711	0.15036365291383655	0.8883144530550435	-0.4351005313054306	-0.14691820905269415
376														9.623387283774969	1.5913369680204505	-1.3236214935015795	0.19776863471816297	0.07308403932151875	0.9775204807666003	-0.41472568114500863	-0.897331175611192	0.15099460478787005	0.8881948978239647	-0.43526484405783006	-0.14715413350222406
377														9.617634518667726	1.5263598211260994	-1.3456334972595867	0.19819319568696803	0.07351298926115205	0.9774023212542915	-0.41478160679773635	-0.8972051557771392	0.15158867737798845	0.8880741387100941	-0.4354523496971966	-0.1473281212040498
378														9.638837607011274	1.44775651714829	-1.4198200726383983	0.19863579671760911	0.07375655716031593	0.9772941167009128	-0.414820194069887	-0.8971146833433978	0.15201793157879812	0.8879572212973899	-0.4355975381077491	-0.14760338051781252
379														9.60821378150546	1.4535530637015897	-1.3930498503511228	0.19915457199263126	0.07405068951616792	0.9771662866864637	-0.4146867580768411	-0.8970946634035417	0.15249936907609052	0.887903344475147	-0.43558886610548975	-0.14795266335819152
380														9.601073344537937	1.5086111054880293	-1.3668095962428302	0.1997246925123466	0.0742687545060812	0.9770333665259155	-0.4145735223019241	-0.8970724173604434	0.15293747943936611	0.8878281600664762	-0.43559755522179644	-0.14837765356605903
381														9.602621555130213	1.5230101273293293	-1.3496691415617434	0.2003101566435217	0.07446620681084881	0.9768984723033669	-0.4145720994200018	-0.8969971191024284	0.1533823415665452	0.88769691647991	-0.43571889144854403	-0.14880602174277735
382														9.628078929913299	1.5142777566065437	-1.4061517019819545	0.2008730397241194	0.07470944929483891	0.9767643114375409	-0.4145366730183762	-0.8969328016321423	0.15385348900551887	0.8875862598276562	-0.4358096459951034	-0.14919981173840147
383														9.61178557804939	1.501091477353573	-1.344755900363675	0.20131866575128105	0.07498557699826636	0.976651400481442	-0.4145632974645794	-0.8968416388806822	0.1543124984086102	0.8874728543541033	-0.43594981134535404	-0.14946469406696566
384														9.599115026359103	1.5349768382579803	-1.3610083066581042	0.20177669061840958	0.07531624956569064	0.9765314278989907	-0.4145070086636584	-0.8967813444016701	0.15481330725050535	0.8873951244467082	-0.43601683784515954	-0.14973045857045714
385														9.590519199246744	1.5306337887177557	-1.3311362946819838	0.2021643348819553	0.07564941760024743	0.9764254950166351	-0.4145078154308208	-0.8966977951021029	0.15529435020565588	0.8873065156125624	-0.4361309778905549	-0.14992303850883992
386														9.570825812086637	1.483383973464579	-1.3877012206467976	0.2025058160397169	0.07599638771187117	0.9763277848780274	-0.41454880821296247	-0.8965956268382878	0.15577409137488482	0.8872094905259418	-0.4362806791381042	-0.1500616171160825
387														9.567182480892349	1.4768072369967653	-1.4108405389857728	0.20276144473837188	0.07637603976494761	0.9762451009236522	-0.41459840969476447	-0.8964904700969023	0.15624658621553328	0.8871279249387775	-0.436430449871751	-0.1501083182856986
388														9.57208177572918	1.5020697549135056	-1.3680335337925706	0.2029734573980923	0.07670990249086945	0.9761748646895729	-0.4147719923813667	-0.8963348095911849	0.156678343912379	0.8869982919531787	-0.4366915387032081	-0.15011505619746507
389														9.571496042687706	1.5053778944629044	-1.3684952723639043	0.20314686750918592	0.07697191638303447	0.9761181661610077	-0.41505493584761266	-0.8961396089864286	0.15704522098486565	0.8868262233660773	-0.4370459075360097	-0.15010038060007164
390														9.540623625161542	1.4866661011192972	-1.43646218988425	0.20331122007449248	0.07722472213805726	0.9760639784781128	-0.4153165561251592	-0.8959568447519461	0.1573959673894953	0.8866660622805856	-0.4373758962641145	-0.15008537359451052
391														9.56489962001353	1.4896515289163408	-1.4128141854445	0.20351557354872035	0.07744235355405193	0.9760041460973128	-0.4156197431404533	-0.8957557926565229	0.15773962417271084	0.8864770952681176	-0.43774906258985147	-0.15011368280975373
392														9.541039811430188	1.5519324666494088	-1.439354227665302	0.20369489793770762	0.07768167603591997	0.9759477167156023	-0.41598620876819187	-0.895521655523431	0.15810262048188867	0.8862639915221726	-0.4381854877752391	-0.15009868631791085
393														9.550793817451249	1.57421148876622	-1.4504349985026304	0.2038603963473269	0.0779014941610165	0.9758956378673856	-0.4164037847042355	-0.895266127058459	0.15845014933958088	0.8860298115103685	-0.4386683473299936	-0.15007083049571146
394														9.535792019140768	1.5964279914961221	-1.4851968374036648	0.2040012528542962	0.07817182602770542	0.9758445851924227	-0.41690026037830374	-0.8949648347714703	0.15884620681331155	0.8857638859935417	-0.4392346868565471	-0.14998409292872034
395														9.510493232271354	1.5998465251232097	-1.508704138646396	0.20417519511404747	0.07849353366745898	0.9757823808988023	-0.41750984044799994	-0.8945957370543877	0.1593235713044425	0.8854366283530547	-0.43992866741838	-0.14988243644357413
396														9.521545414989724	1.574456945427188	-1.4952740193394976	0.2044078903369385	0.0788663927016306	0.9757035956017763	-0.4180729071207399	-0.8942358021353948	0.15986673985191677	0.8851172005444339	-0.4405932617295678	-0.14981695170735942
397														9.57213190112242	1.567541797260135	-1.5233077340314338	0.20469125041771252	0.07931801716310616	0.9756075769261668	-0.4184243704084257	-0.8939634226717337	0.1604694524616821	0.8848856074379027	-0.4410646790192485	-0.14979789942085775
398														9.536174930511734	1.5533731454719835	-1.5369244554625163	0.2049975243041418	0.07977115053555695	0.975506319083278	-0.4187584332739872	-0.8936969502488081	0.16108114625211348	0.8846566506792837	-0.4415227340219444	-0.14980082026043423
399														9.532409680304843	1.548136112730872	-1.559390864535007	0.2053069892790444	0.0802256394001063	0.9754039608982624	-0.418925533638624	-0.8935127673124446	0.16166734956462808	0.8845057588386686	-0.44181306163636863	-0.1498358473421159
400														9.503207740543496	1.614501413018078	-1.5319091532002993	0.20564787137816626	0.08063079509127336	0.9752987377622194	-0.4191043378512833	-0.8933278600950584	0.16222480812817014	0.8843418496214385	-0.44211311817331694	-0.1499182568842104
401														9.543431652229637	1.587675666401734	-1.5508117543226434	0.2060054731905025	0.08094905745609388	0.9751969006885366	-0.4192179942424407	-0.89318821106712	0.16269939432604927	0.8842047377835647	-0.4423370544140388	-0.1500663585665007
402														9.549903105845198	1.5999790736240505	-1.5855703513413408	0.20638048853509955	0.08112561440660829	0.9751029323303076	-0.41931906414672404	-0.8930768005431973	0.16305014803624826	0.8840693504443696	-0.442529618238912	-0.15029610968416157
403														9.529761006062472	1.6236177123228976	-1.568735863924078	0.20676614125656229	0.0812529205338062	0.9750106285239142	-0.4195016378667348	-0.8929317391193166	0.16337467704782124	0.8838926058390795	-0.44279890715547154	-0.1505423168578251
404														9.588603600728112	1.6460449252812772	-1.5346602442668709	0.2071989848146465	0.08136077344810216	0.9749097420970345	-0.41956969673240047	-0.8928431657484193	0.16368369179677658	0.8837589322183179	-0.44295767960412114	-0.15085968250023374
405														9.568362177854393	1.6696111271162661	-1.5185483538432334	0.20762957082478367	0.08149429167901479	0.9748069766588928	-0.4196733723596774	-0.8927324582729733	0.16402139640348506	0.8836086361344434	-0.44315622343551636	-0.1511566729555764
406														9.618666781256849	1.6608976739172672	-1.550276800805802	0.2080952844995585	0.08165347990635616	0.9746943427496798	-0.4198156469577756	-0.8925948945086928	0.1644055256566521	0.8834314773305693	-0.44340395072236116	-0.15146538002239907
407														9.600067830751458	1.6360017392015707	-1.5102364005598259	0.2085203757504399	0.08189144423797651	0.9745835234896565	-0.4198708798028454	-0.8924909275539266	0.16482836081062102	0.8833049853762176	-0.44356931317951886	-0.1517187108268787
408														9.59907162546483	1.6394570664575794	-1.5128191999627463	0.20886316798369292	0.08213500963314616	0.9744896188530582	-0.4199209606413078	-0.8923953728086338	0.16521769095293845	0.8832001833525042	-0.4437165072231395	-0.15189831251136615
409														9.58177968460947	1.67432847470993	-1.473213384359849	0.209186712866597	0.0824320198233312	0.9743951361064535	-0.4200168676032959	-0.8922691456440918	0.1656550713388456	0.8830779977379027	-0.4439152327183744	-0.15202801081316603
410														9.578202644870192	1.6672467054068356	-1.4960346294027391	0.20937477085381057	0.08272403117119778	0.9743299954310659	-0.42023756208263496	-0.892092354766353	0.16604704749638485	0.8829284210765659	-0.44421612446444336	-0.15201788717460923
411														9.532529023587685	1.6310628300300463	-1.4989478354085473	0.20951058020821373	0.08294493812911705	0.9742820197558688	-0.4205073160985734	-0.8919072294162883	0.1663583217712161	0.8827677576171395	-0.4445465457673897	-0.15198504781026972
412														9.494218104489013	1.6033024262164761	-1.5346258705274098	0.20969558761107132	0.08311867935974879	0.9742274096318267	-0.42077378434612045	-0.8917273552176699	0.16664857144165524	0.8825968405469694	-0.4448748240775052	-0.15201713047718246
413														9.49654923907396	1.6157842317942277	-1.5137661594350826	0.2098474592813036	0.08322275466337872	0.9741858225920871	-0.4209888151821327	-0.8915880065656179	0.16685096355697923	0.8824581923948162	-0.44513458600134337	-0.15206162902154802
414														9.43174351568579	1.5987862237898423	-1.49826555385064	0.21009501884515952	0.0832857082489564	0.9741270830122329	-0.42104973043401095	-0.8915250816164519	0.1670333899261626	0.8823702213685017	-0.4452488289150781	-0.15223755381591214
415														9.505491388802184	1.6380706299619125	-1.5287063979174	0.21040216437816972	0.08337349590302343	0.9740532785253025	-0.42092950492092585	-0.8915440910284682	0.16723482185013716	0.8823543965505053	-0.44519433277292675	-0.1524884420369712
416														9.548205698048893	1.6909517433043553	-1.452985532089985	0.21073480248300935	0.08346695047638295	0.9739733626750887	-0.42079118382851344	-0.8915689873759003	0.16745005333444943	0.8823409900002636	-0.4451269582126933	-0.15276245755312412
417														9.542739388443481	1.7315643493782344	-1.5009850861823522	0.2110008502197796	0.08364197585955874	0.9739007449842307	-0.42072650637365466	-0.8915484048718471	0.16772193835358717	0.8823082500130834	-0.4451353295850312	-0.15292707515046616
418														9.534778751074002	1.7251964412348597	-1.4700343616562672	0.21122127628744009	0.08390799976826227	0.9738300775897175	-0.42078594494659605	-0.8914533705793917	0.16807759106449377	0.8822271595110334	-0.4452755727159668	-0.15298661171345235
419														9.528442107253046	1.707495645736475	-1.514097664605034	0.21137179136068285	0.08430116712036254	0.9737634615444968	-0.4208999176585908	-0.8913147457725789	0.16852680286338614	0.8821367383416063	-0.4454787729965456	-0.15291644018065786
420														9.477999776044893	1.7111098092158197	-1.561339093121126	0.2114904259682852	0.08479294549967875	0.9736950015878901	-0.421001566182839	-0.8911677659056381	0.1690493841525316	0.8820597944557668	-0.445679446916999	-0.1527754875639677
421														9.486456160600458	1.6757847681400033	-1.5694626520132688	0.21163906316426961	0.08537036198749723	0.9736122473742171	-0.4210311767064321	-0.8910393046051664	0.1696517193839732	0.8820100085510069	-0.4458260411223922	-0.15263513970572962
422														9.478392245668607	1.6723482944052568	-1.5360433691557311	0.21182819840497452	0.085962477648022	0.9735190120368049	-0.4211400320615163	-0.8908641897374479	0.17029993787041206	0.8819126304548135	-0.446062156969244	-0.15250791574281547
423														9.483904313591678	1.6274780265653606	-1.5662183700158763	0.21205329668842643	0.08659007551623707	0.9734143815383366	-0.4212376352087822	-0.8906848253350859	0.17099531163608062	0.8818119153466247	-0.446298891708124	-0.15239765487965073
424														9.535099340869062	1.6822216829569108	-1.5953389764914692	0.21225635597959086	0.08729153711472254	0.9733074678098459	-0.4212465252393414	-0.8905387329474055	0.17173272866349718	0.8817588130095702	-0.44645375199294546	-0.15225124962172049
425														9.497548699752695	1.681597358732614	-1.5308130809379161	0.21244679838462405	0.08814826854062915	0.9731886973292547	-0.4212599055301358	-0.8903633369692754	0.17260712665958267	0.8817065554076728	-0.4466352101371155	-0.1520215090601022
426														9.487214593809568	1.7308421142217258	-1.5179549097463942	0.21242003988850433	0.0893426408555934	0.9730856175993535	-0.42141033278103723	-0.8900769917349878	0.17371321253540445	0.8816411163728369	-0.4469685014729154	-0.15142027807369374
427														9.501504491557096	1.7840289659530002	-1.4777914397958445	0.21230161354344085	0.09116315116545728	0.9729426009567245	-0.4213308111528006	-0.8898015724581309	0.17530975222263404	0.8817076456854477	-0.44714923853297817	-0.15049646513856457
428														9.50404841576704	1.73921248635336	-1.5204960161987313	0.21205099795740817	0.09332681989238262	0.9727921046935171	-0.4214080541970288	-0.8893934419066747	0.1771850934793146	0.881731039559764	-0.44751470387259257	-0.14926809335783903
429														9.47467887874857	1.784678522607365	-1.653881160814584	0.21180264942730448	0.09576902530429524	0.972608827580667	-0.42146107500414776	-0.8889420921872158	0.17931123499146376	0.881765388270555	-0.44789535667394575	-0.14791737395585575
430														9.50504165158115	1.815716166817714	-1.6487752648461464	0.21150626665507982	0.09850913544568982	0.9723996346149938	-0.4214751886711138	-0.8884543116029715	0.1816799425603701	0.8818297820442899	-0.44826876584012976	-0.14639449809295307
431														9.498440028040859	1.8406860162145766	-1.5786562592496376	0.21107692314570292	0.1015228867997374	0.9721829231020207	-0.42161825554428534	-0.8878555026406402	0.1842570297777779	0.8818642634255771	-0.4487824750216779	-0.1446019052650428
432														9.44961056869164	1.9573376426311986	-1.4902823273566597	0.2105677151555458	0.10471789697675471	0.9719544224843768	-0.42182912153284335	-0.8871875566695904	0.18697173988994106	0.8818851566734767	-0.4493688922738287	-0.14263999823187573
433														9.457502238982135	1.8612644255412356	-1.5775505205894067	0.21001210303345585	0.10792644749075789	0.9717236224932936	-0.4219610945036205	-0.8865534295898181	0.18966246652365695	0.8819545063691047	-0.44986097676343895	-0.14064618829059272
434														9.406238028034393	1.8856142721696325	-1.6077406757480794	0.20956839022855978	0.11102267399517893	0.9714705634634383	-0.42217620086792684	-0.8858795273314651	0.19231411408345397	0.8819571107699818	-0.45043471104471966	-0.13878121576180946
435														9.401630531637702	1.90007123685031	-1.613762066314401	0.209371866001689	0.1138939545333949	0.9711805130086347	-0.4222693022929669	-0.8852797234744956	0.19485493975244939	0.8819592156488761	-0.45089685996429907	-0.13725874692111084
436														9.319244055128896	1.9447623718954703	-1.52201541696794	0.20957381272170533	0.11648201057951219	0.9708299327032732	-0.4224052275739532	-0.8846666712517356	0.19732892462730875	0.8818461548022332	-0.4514386137535509	-0.1362003570949351
437														9.459938618305582	2.059785508279189	-1.4904466529940192	0.2100813114062643	0.11876686974433867	0.9704433385051165	-0.4229173007804944	-0.8838836671318104	0.19972636200102478	0.8814798916018254	-0.4523760533325729	-0.1354588759472044
438														9.408379719228996	1.7915863944826789	-1.4534116394070837	0.21095798045047565	0.12044618800296869	0.970046105234081	-0.42339277984159407	-0.8831987218786932	0.20173886995284107	0.8810421581639913	-0.45326894165318166	-0.13532177234407017
439														9.445249561080125	1.7312348127956885	-1.3946985344400784	0.2120251919859415	0.12174476665543474	0.9696512413003648	-0.42360959167527934	-0.8827010170398497	0.2034547329445002	0.8806816858570568	-0.45389109520768145	-0.1355826017125492
440														9.484462798091254	1.8083113522043373	-1.2981755747329988	0.21333033282059127	0.12262134868249872	0.9692544423142676	-0.4236136748249114	-0.8823725646825051	0.20486608210475804	0.880364483381736	-0.4542935856281754	-0.13629275276809721
441														9.53858180694431	1.901048820953998	-1.2695383543224625	0.21462832846752433	0.12305567799182965	0.9689127828309454	-0.4235521588487808	-0.8821702743973125	0.205862030749497	0.8800785472636934	-0.45456892445892166	-0.1372182333455927
442														9.589363628499362	1.930307702892151	-1.1876111138207328	0.21583937787098667	0.1229768369240733	0.9686537361412568	-0.4234171630821148	-0.8821236839093292	0.20633882885615104	0.8798472986648078	-0.4546806614167619	-0.13832652372504933
443														9.564463912310783	1.9637345537410325	-1.1027088490186485	0.21685930143664356	0.12259958986313244	0.9684737394198163	-0.42331792276766067	-0.8821430305677875	0.2064597052316792	0.8796442347017818	-0.4547449990775827	-0.13940231766310585
444														9.554853610138238	2.01336980243766	-1.0822708690854141	0.21778412171168493	0.12196771800778702	0.9683459878030387	-0.42344311101551857	-0.8821110167158599	0.2063397342297673	0.8793554503520002	-0.4549769554081666	-0.14046338307098405
445														9.532896619726506	1.9611702637099981	-1.0938355722500261	0.2186089235575086	0.12135127224380243	0.9682375779042243	-0.42363748180667965	-0.882050767309629	0.20619827326384382	0.8790571213234799	-0.4552585118515701	-0.14141522137723106
446														9.556963709672495	1.9601239254748823	-1.0784895297109407	0.21926084397549328	0.12083005349400361	0.9681553493483319	-0.42390981185489546	-0.8819487033495681	0.20607512240239648	0.8787634230623744	-0.45559475724886456	-0.14215577179645833
447														9.63918336045777	1.8895696170157397	-1.1425576073871366	0.2196952026283326	0.12048935433138583	0.9680993406850884	-0.42411697001973137	-0.8818658233578396	0.20600355660687752	0.8785549576909684	-0.45584535216036426	-0.14264011087494072
448														9.642361536370831	1.968695885790389	-1.104086965235946	0.21994711391788546	0.12022816227599833	0.9680746128656248	-0.42421883178085895	-0.8818407157801509	0.2059012742914304	0.8784427413563598	-0.45596287237897754	-0.1429552698232428
449														9.59994592096891	1.9964125245374933	-1.088847261424598	0.2200129103042645	0.12006353861161292	0.9680800927586033	-0.4243278477345548	-0.8818118639988881	0.2058001801451283	0.8783736089708118	-0.45606203876979773	-0.1430636916087633
450														9.569743632334813	2.0325492675621084	-1.1586189405418967	0.2199375726273488	0.11984108300679666	0.96812477448444	-0.42464958693638055	-0.8817003332190645	0.20561432517252395	0.8782369796709492	-0.4563361011635493	-0.14302856467608105
451														9.589232870890923	1.9394783306234906	-1.1997569903775824	0.21981313578211203	0.11950095133083435	0.9681950774346355	-0.4249936280981811	-0.8816074089216721	0.20530171117250812	0.8781017033428298	-0.45660475158000774	-0.14300174621654005
452														9.506447072504464	1.912589400643992	-1.2619840467123646	0.2196305847194045	0.11903165702289425	0.9682943100536099	-0.4252644214613031	-0.881586068708009	0.20483206609108098	0.8780162743907403	-0.4567685060140879	-0.14300333499139978
453														9.464003681744972	1.996144745265327	-1.2458020946303043	0.2194470216808131	0.11847113931551345	0.9684046642931379	-0.42549077338022046	-0.8816068738205778	0.20427168624312553	0.8779525080798636	-0.4568740627148714	-0.1430576260626646
454														9.4864542723324	2.040488413966695	-1.2455398108044389	0.21928106567241773	0.11792757781238083	0.9685085960531654	-0.4257831709713006	-0.881587375887804	0.2037458956467098	0.8778522116821219	-0.45705227826427103	-0.14310384124210768
455														9.462768376694859	2.034275776841196	-1.2705279220562453	0.21915849855022296	0.11740037047235313	0.9686003848472114	-0.42623738138128625	-0.8814749681335038	0.20328200920706802	0.8776623765585693	-0.4574046715622751	-0.14314230404241568
456														9.470828152562554	2.0390553847298993	-1.3037113265786655	0.21903465897207197	0.11695963874116547	0.968681712986533	-0.42657404584232206	-0.8814053877103472	0.20287712026959803	0.8775297154983988	-0.4576515982936239	-0.1431663822152074
457														9.41827042719179	1.974596621970077	-1.297441605866528	0.21897981572445252	0.11663638691631051	0.9687330868471427	-0.4268352284049993	-0.8813427764063152	0.20259960086056453	0.8774163937935835	-0.45785463165017426	-0.14321175991777496
458														9.482454224913813	1.9926771462566157	-1.314868465780197	0.21893626205931382	0.11648689739632512	0.9687609178174321	-0.42689953610532594	-0.8813452215701352	0.2024534180707921	0.8773959763006398	-0.4578879810067823	-0.14323022593356316
459														9.464207800886985	2.081469967355629	-1.2739032737987326	0.21888084531479368	0.11652313702834083	0.9687690819237347	-0.42695665650250114	-0.8813138809098633	0.20246939715374374	0.8773820086042832	-0.45793908094054353	-0.14315239825040904
460														9.551367667568451	2.032645327100005	-1.286788606756378	0.2187721789276285	0.11664808846087354	0.9687785903836237	-0.4270663239424343	-0.881242371894395	0.20254934443793132	0.8773557366778613	-0.4580448727323167	-0.14297484352879125
461														9.526746548778949	2.0326793561853376	-1.3087962387029004	0.21860905660879393	0.11694644946607341	0.9687794425594983	-0.42716942341174874	-0.8811439434784014	0.2027600418558989	0.8773462053663236	-0.45815813735937383	-0.14267009883189186
462														9.549251263036904	2.024726608725201	-1.303066482094779	0.2183078457773387	0.11735472588052179	0.9687979937972441	-0.42738332904551435	-0.8809796579869386	0.20302298457856924	0.8773170319365918	-0.458369622168315	-0.14216931788274395
463														9.507081773070402	2.0565990935428937	-1.2802172254092026	0.21794249236626212	0.11786728404274144	0.9688180290299976	-0.4276543112932281	-0.8807705807969146	0.2033592241207182	0.8772758175474212	-0.458639823123825	-0.14155088340045802
464														9.496305820920075	1.9691679226434444	-1.2858112150786567	0.21761016818934675	0.11834208003180949	0.9688348501134492	-0.42787573106963694	-0.880591561547923	0.20366850638283476	0.8772503482257663	-0.4588612577068758	-0.14098997380465117
465														9.51556124731533	2.0115497032253886	-1.3011949086252568	0.2172308042093553	0.1188381195907745	0.9688592668879656	-0.4281197951451926	-0.880401266500515	0.20397806487249584	0.8772252952961375	-0.45909814993791753	-0.14037332373419947
466														9.49337973743407	2.023780538941984	-1.297892892641715	0.2169013140804283	0.1193504466326851	0.968870110406324	-0.4283591758283857	-0.8802043420642146	0.20432506624232294	0.8771899659901554	-0.4593427773459403	-0.1397926194987002
467														9.491213276070738	2.016340902035418	-1.3144195046126494	0.21654200668144807	0.11989460045293462	0.9688832974742642	-0.4285905075157246	-0.8800080398861203	0.20468518901767893	0.8771657404446357	-0.4595771257558632	-0.13917301919622993
468														9.459456818420632	2.0092204051844584	-1.3002298985017704	0.2161679860671636	0.12052466145995272	0.9688886457068377	-0.42887842225411604	-0.8797653473085956	0.2051249194998162	0.8771172673733465	-0.45987687445114017	-0.1384866766897218
469														9.476869108620429	2.004297001391098	-1.237270290550055	0.2157835060485611	0.12123231054236686	0.9688860641984434	-0.42920343590151466	-0.8794876153090827	0.20563546661088838	0.8770529568547873	-0.46022196970429663	-0.13774559693061872
470														9.517011563684695	1.969170463115641	-1.2703031949005918	0.21539505992216373	0.12195460889282173	0.9688818511722298	-0.4295070203276343	-0.87921809135521	0.20615350427043225	0.8769998219215355	-0.4605460033520006	-0.13699887279132789
471														9.517042212775804	1.9734162457426287	-1.263466262026018	0.21497519283825206	0.12264404197449885	0.9688880768346334	-0.42976531554736763	-0.8789825318783239	0.20661917192081616	0.8769763052766185	-0.46081248639867567	-0.1362512838928226
472														9.509828016896156	1.9676147986941213	-1.2243293048496489	0.21455049676615362	0.1233378166333873	0.9688941466050383	-0.42999036432077664	-0.8787637881796095	0.20708088075799727	0.8769699943149036	-0.46104445292436935	-0.13550513458532293
473														9.525611340997802	1.9313152575005703	-1.2817410190171357	0.21413166262836902	0.12401962760250052	0.9688997693411573	-0.4301201931574321	-0.8785967655982525	0.20751950009216705	0.8770086946537211	-0.46117985152175367	-0.1347920400177608
474														9.571589626419748	1.9859830547088684	-1.2489040965879366	0.21357901260066642	0.12476271524017163	0.9689263492456095	-0.4301126679311314	-0.878503710648983	0.20792864944767153	0.8771471360391534	-0.4611566927432239	-0.13396793077614894
