// Start Time: 1748432634.6645443
// Update Rate: 100Hz 
// Filter Profile: 46.1 human
// Option Flags: AHS Disabled ICC Disabled 
// Firmware Version: 4.0.2 
PacketCounter	SampleTimeFine	Year	Month	Day	Second	UTC_Nano	UTC_Year	UTC_Month	UTC_Day	UTC_Hour	UTC_Minute	UTC_Second	UTC_Valid	Acc_X	Acc_Y	Acc_Z	Mat[1][1]	Mat[2][1]	Mat[3][1]	Mat[1][2]	Mat[2][2]	Mat[3][2]	Mat[1][3]	Mat[2][3]	Mat[3][3]
0														9.61690386963945	-1.573682333632431	0.4742546941044629	-0.022981539248325078	-0.16670358225885337	0.9857391970069185	0.1415032127283988	-0.9766154117418117	-0.1618616024136488	0.9896710007074676	0.13576543452012488	0.04603321787842424
1														9.610069963863296	-1.5721341133802549	0.4270471840229607	-0.023079085837574898	-0.1667629973660754	0.9857268681061628	0.14153247186126663	-0.9766038379085462	-0.16190584668608554	0.9896645468065137	0.13577572128985654	0.04614150303661102
2														9.643509776581224	-1.6179844253604871	0.44644386018478155	-0.02316217002506632	-0.1667788484277082	0.9857222375481123	0.14154058515553766	-0.9766019934752828	-0.16190987954393396	0.9896614454618091	0.13576951814465113	0.04622619721771776
3														9.586069887413819	-1.574877494962207	0.43221965901102544	-0.023327609840145647	-0.16680008301552018	0.9857147431813941	0.14156013120166155	-0.9765995520640055	-0.16190751731328695	0.9896547639825287	0.1357609929780993	0.046393974956735196
4														9.61983523063876	-1.5972844157886934	0.4772805319909014	-0.0234382834723732	-0.16684881344675268	0.9857038705003035	0.1415992094473162	-0.9765886801096175	-0.1619389198606994	0.9896465585004394	0.13577931850309774	0.046515222401602885
5														9.60695468722137	-1.5472351641284456	0.4324191251677646	-0.023512055315913383	-0.1668898752481071	0.9856951622050772	0.14167218723368558	-0.9765735821727585	-0.16196613833357573	0.9896343641058781	0.1358374327714518	0.04660490573766174
6														9.589042751364532	-1.5986155151032038	0.4342658046917705	-0.02361118689027586	-0.16692045802129743	0.9856876140784128	0.1417258232325487	-0.9765634298241948	-0.16198042646894872	0.9896243241163234	0.13587283843346482	0.046714760979210235
7														9.585973859070755	-1.57431390890687	0.43638245856530206	-0.023699899585187922	-0.1669696433726613	0.9856771545245728	0.14177403542992517	-0.9765507280169559	-0.1620148094695915	0.9896152977988804	0.13590369311229192	0.046816114329081726
8														9.568693119545332	-1.5790163319367834	0.4888592175504341	-0.023795498801192916	-0.1670159559155796	0.9856670049800836	0.14181407932057283	-0.9765397735563314	-0.16204578849512846	0.9896072661128056	0.13592549846204277	0.04692246503099018
9														9.613296179673673	-1.571656729104508	0.45897956155667574	-0.023896610327997503	-0.1670152857161137	0.9856646723668231	0.14179025673438048	-0.9765454381406742	-0.16203249779546394	0.9896082432508483	0.13588561948861058	0.04701726604308498
10														9.61636934104602	-1.595494726541746	0.45845205535761135	-0.02397973121690733	-0.1670311488243582	0.9856599656134865	0.1417983867642919	-0.9765435902982936	-0.16203651982921047	0.989605067692061	0.13587940082931232	0.047102000259627075
11														9.589313511947593	-1.574403365280655	0.46359473028134623	-0.023992235736182477	-0.16710167623328515	0.9856477070558255	0.14185461002984023	-0.976524554687529	-0.16210201635268334	0.9895967068648025	0.13592948132156624	0.04713315043563904
12														9.59602572387113	-1.5758760858709788	0.5125452643392903	-0.02405913081686656	-0.16711596844554802	0.9856436533123135	0.14184867753932115	-0.9765245300502413	-0.16210735606536025	0.9895959331488197	0.1359120866614239	0.04719951053406185
13														9.592648498611627	-1.5749755384869435	0.4890291580180321	-0.024148520042164723	-0.16716173829085199	0.985633705912777	0.14180571035351988	-0.9765249202907029	-0.1621425933009912	0.9895999138494848	0.13585298415131605	0.04728612065157678
14														9.592315311866239	-1.5983306515288236	0.46425874436466946	-0.02419910774013817	-0.16718758932697747	0.9856280805454026	0.14181711667297348	-0.9765202440343325	-0.16216077950506833	0.9895970435501235	0.13585478632039835	0.047340980457670045
15														9.58591446938648	-1.573226510625488	0.4415776694562811	-0.02423138814728809	-0.16721826912601212	0.9856220828994026	0.14183624256566918	-0.9765132994383376	-0.16218586965239887	0.9895935125713532	0.13586694406864694	0.047379883770847675
16														9.592650700702109	-1.5746567824506783	0.4900114198009587	-0.024248496083245252	-0.16724181320376233	0.9856176674319607	0.1418045202385632	-0.9765141661903498	-0.16220838840663282	0.9895976396887839	0.13583173099789309	0.047394645019287196
17														9.613296403218772	-1.5705891666508054	0.46261478772052717	-0.024252987989005215	-0.16726690765249833	0.9856132984989479	0.14176785231544817	-0.9765151696894483	-0.1622343965263023	0.9896027832537007	0.13579361167138462	0.04739648094290072
18														9.637297900726267	-1.5673719406047926	0.45922528211790026	-0.024236469305271513	-0.1673012908675865	0.9856078690988894	0.14172440316732782	-0.9765150975183752	-0.16227278843214202	0.9896094113853602	0.13575176754914545	0.04737795378447046
19														9.612698056024502	-1.6173726399070765	0.4115283492876105	-0.02421477239327191	-0.16733607664440375	0.9856024970804407	0.14170738839604163	-0.976511213462137	-0.16231101643658713	0.9896123791019973	0.1357368315379539	0.0473587551791817
20														9.637001855286814	-1.590766041503794	0.43360310758284343	-0.024227200184436193	-0.16737620420895613	0.9855953779497063	0.14164707656762845	-0.9765131555042392	-0.16235197204529794	0.989620709398842	0.13567337023806336	0.0473665297143217
21														9.61973258296182	-1.5954826642175999	0.485308230381868	-0.02429985358465675	-0.16739876089853312	0.9855897584519634	0.14159526646906195	-0.9765181813874393	-0.1623669360840535	0.989626342428959	0.13560935170335237	0.04743212098648869
22														9.633656340882528	-1.589826329837339	0.40969736737263823	-0.024304205773061416	-0.1674181631796909	0.9855863555362764	0.14159451867719772	-0.9765151855725346	-0.16238560474011124	0.9896263425466775	0.1356069724747858	0.04743892024392299
23														9.646506124173479	-1.6395628278165384	0.45575701261129803	-0.024351864674528934	-0.167433112535768	0.9855826396165154	0.1415828253232482	-0.9765154005825275	-0.16239450729206378	0.9896268439469292	0.13558696564098788	0.0474856240130585
24														9.616140439941997	-1.6175086228480189	0.43628143037464706	-0.0243875918997849	-0.1674433887648991	0.9855800104102441	0.1415637830455804	-0.9765171225144085	-0.16240075358816525	0.989628688292308	0.13556187146505094	0.04751882062656465
25														9.616460836977692	-1.593955625490708	0.46187378705778553	-0.024381534280571715	-0.1674937730716775	0.9855715990065557	0.14164026039367805	-0.9764982033407605	-0.16244782395550306	0.9896178946551728	0.1356358907313268	0.04753238605186144
26														9.63706249084098	-1.5900478096706248	0.4348879848894569	-0.02444352876522704	-0.16755095886287896	0.9855603431985452	0.14166866895562363	-0.9764862831492669	-0.16249469855251433	0.9896122989018711	0.1356510781581202	0.047605491875351236
27														9.592101814301948	-1.6206094604261931	0.44091895947549337	-0.024531099983468585	-0.16759078558960866	0.9855513957775413	0.1416864516004308	-0.9764792578787606	-0.16252140894486725	0.9896075861504301	0.13565245120529087	0.0476994540379273
28														9.616057337785968	-1.6174020855668148	0.438502445136014	-0.024595351004470023	-0.1676462717843957	0.9855403575022991	0.14174489623256273	-0.9764635467499965	-0.16256483709719527	0.9895976218145367	0.13569697647777618	0.047779467073241044
29														9.612976045680174	-1.5931783297004731	0.44045935855642454	-0.02466767417284421	-0.16768360667675922	0.9855321983084961	0.1417837015474698	-0.9764537023666586	-0.16259012611454512	0.9895902625967987	0.13572168281567834	0.047861644218309074
30														9.619663979722382	-1.5945485551432903	0.48971817179438126	-0.024767947271950308	-0.16771341056581454	0.9855246119221563	0.14185245822187428	-0.9764416228262838	-0.16260269772911204	0.9895779044038653	0.13577175379568499	0.04797501419383421
31														9.6129420769771	-1.5928050862536514	0.44254577368769943	-0.024851471983825812	-0.16776749911973768	0.9855133030960797	0.14198621883021553	-0.976416229266021	-0.16263843607285128	0.989556626981263	0.13588750297593083	0.048086053408770424
32														9.592584273204926	-1.5730932980376418	0.49629338399347667	-0.024921746650533594	-0.1677792951847818	0.9855095203249861	0.14202546255317383	-0.9764104857415459	-0.16263865260298718	0.9895492279469694	0.13591420617895686	0.04816278675803942
33														9.592565172652737	-1.5730108620613747	0.49692343964030267	-0.024960874242185238	-0.16784709409782328	0.9854969851602707	0.1420453014944728	-0.976397456848327	-0.16269953467500836	0.9895453941484497	0.13592409375469966	0.048213625216877054
34														9.612915693416781	-1.5924161314149252	0.4445140942017797	-0.024981457882006564	-0.16785497697600213	0.98549512097548	0.14202732829951817	-0.9763990907648196	-0.1627054196077541	0.9895474545357544	0.1359026204972525	0.04823186668364954
35														9.619646841520865	-1.593569901529253	0.4932277765482008	-0.025063610139811066	-0.16783997709481907	0.9854955898103099	0.14189940314064542	-0.976420988665794	-0.16268562407675335	0.989563729547061	0.13576374693460969	0.04828902756514264
36														9.585651533114975	-1.5941196945993998	0.42467337570017627	-0.02515815378771391	-0.167874055009321	0.9854873763538127	0.1418931047366453	-0.9764183679466618	-0.16270684547545225	0.9895622335791666	0.13574045966882806	0.048385054331953725
37														9.61632637590925	-1.59221686006427	0.4705884760968786	-0.02527597859551839	-0.1678775402826176	0.985483767687067	0.1418581006877505	-0.9764252609861943	-0.16269600172501641	0.9895642496449147	0.13568655488551773	0.04849489300943394
38														9.598746483856758	-1.6200318482736777	0.49757256440502423	-0.025374091304633972	-0.16789590418851413	0.9854781178936368	0.14186539756157351	-0.9764234496430773	-0.16270051002319905	0.9895606926637498	0.13567686738657284	0.048594476959892496
39														9.616369485424503	-1.5915851807157686	0.4718426615746813	-0.02539875901559735	-0.16790014451038382	0.9854767600069829	0.14183251817947573	-0.9764278152957664	-0.1627029757060588	0.989564772931685	0.13564019680806244	0.04861375507542892
40														9.616136032154872	-1.6147062720972747	0.4466363879040945	-0.025436702066306216	-0.1679087574852912	0.9854743138954646	0.14184356012966967	-0.9764257384123609	-0.1627058137117954	0.989562215647774	0.13564448579143337	0.048653826536531275
41														9.616455914908032	-1.5909227015091638	0.4723151224856034	-0.02546896034834034	-0.16791184870067027	0.9854729540300425	0.1418649720265432	-0.9764230229246416	-0.16270344192614244	0.989558316508271	0.13566020554543146	0.04868928897292002
42														9.609808375471488	-1.5891574980273306	0.42434969148215756	-0.025517135698726878	-0.16795262681602974	0.9854647588479908	0.14187793939513338	-0.9764156024600983	-0.1627366633106216	0.9895552162960508	0.1356631358110198	0.048744102034986525
43														9.589141046230132	-1.5930399433568085	0.45221334833380356	-0.025582460841867882	-0.16797727444694607	0.9854588641676783	0.14187208968738527	-0.9764138128361546	-0.1627525000437727	0.9895543683219279	0.13564549890113967	0.04881035507811948
44														9.592474016581694	-1.5936627507259997	0.4768557127701171	-0.025631916569096136	-0.16800403592589824	0.9854530170259794	0.14186860353561748	-0.9764109902776068	-0.16277247124731578	0.9895535883335727	0.13563267297267992	0.048861783005099024
45														9.610059176579902	-1.5654443877522681	0.45118300704861564	-0.025723382967004937	-0.16804358201950084	0.9854438908993187	0.1418079556459789	-0.9764148382844673	-0.1628022336868443	0.9895599078803875	0.13555595936724088	0.048946609645470374
46														9.616443346870216	-1.590270888462043	0.47475978577230715	-0.025791448481418455	-0.16805706433482073	0.9854398126280427	0.14181708261957163	-0.9764129010263325	-0.16280590218605306	0.9895568282127628	0.1355531992853839	0.04901646561098694
47														9.643802495397871	-1.5874167633435332	0.4963350194905745	-0.02585494725762122	-0.1680482313344549	0.9854396550005828	0.14181797496928134	-0.976415674962535	-0.1627884875016357	0.9895550432785023	0.1355441685681071	0.04907743564269268
48														9.613193161097177	-1.5887160854942965	0.45169514210491135	-0.025904421410734735	-0.1680749884471898	0.9854337924030476	0.1418144659422906	-0.9764128546864044	-0.16280845940137811	0.9895542522777003	0.13553130804955843	0.04912887478355005
49														9.643829883025319	-1.586856637133879	0.4975924498535554	-0.025974574790628424	-0.16810194839232315	0.985427347099293	0.14180748333270551	-0.9764109439463161	-0.16282599980564527	0.9895534139879919	0.13551163598956467	0.04919997333476139
50														9.616763669164826	-1.5656574452474614	0.502799011218104	-0.02603905744283419	-0.16813114164492854	0.985420664841499	0.14180300874213014	-0.9764081917263747	-0.16284639953437946	0.9895523605141713	0.13549524839936034	0.04926625074051705
51														9.589185937626578	-1.5913740013314834	0.45710069050103663	-0.026113159480593784	-0.16816939697431396	0.9854121761086763	0.14181208191270953	-0.9764023038091065	-0.16287379942720154	0.9895491075866443	0.13549020273645218	0.04934540137551868
52														9.619803307390361	-1.589593184294507	0.5029133488252368	-0.02617763767840353	-0.16819859370162255	0.9854054822063733	0.141807619591587	-0.9763995478757851	-0.16289420472727253	0.9895480434578942	0.13547382029292346	0.04941167578512895
53														9.59862929624659	-1.6403581471700603	0.4796332462082533	-0.026146509850102195	-0.1682409783071867	0.985399073087092	0.14181143791444284	-0.9763913130592701	-0.16294023400938623	0.9895483192342339	0.13548054104053525	0.04938772013433318
54														9.643572033332642	-1.609738029401177	0.47405527625942556	-0.026117309313413217	-0.16825810901681237	0.9853969225161576	0.14176763694498823	-0.9763938151604796	-0.16296335425916283	0.9895553664496302	0.1354412288280414	0.04935433379439563
55														9.619323625943055	-1.6363725565253404	0.45191268288302144	-0.026168371635030996	-0.16832458412039464	0.9853842147643056	0.14183526537249852	-0.9763747176456959	-0.16301891988048678	0.9895443263556635	0.13549629191599244	0.04942449852383263
56														9.6195302500555	-1.61299701165077	0.47803974825955425	-0.026266221442639126	-0.1683693235004392	0.9853739678493291	0.14190548460517272	-0.9763599158035858	-0.163046460406185	0.9895316665221469	0.13554735599051357	0.04953781620018849
57														9.595482962572715	-1.6162755691606938	0.4820504676278963	-0.026314627416839764	-0.1684369107801439	0.9853611254107578	0.1419486372540349	-0.9763439159817315	-0.1631046967661593	0.9895241910967291	0.1355786296298211	0.04960151632827847
58														9.595424506479567	-1.6164154451587915	0.48274456998150267	-0.026381109364579935	-0.1684908062337262	0.9853501333452004	0.1420371626378774	-0.9763243694396495	-0.16314462929576612	0.9895097177382728	0.13565240083751084	0.049688476013498795
59														9.59563473441327	-1.5930033955780718	0.5087704182773561	-0.026445112896718026	-0.16853369040806984	0.9853410836869214	0.14207963594960363	-0.9763128981055598	-0.16317629129610411	0.9895019115960857	0.1356816870110325	0.049763910191345184
60														9.595375711695299	-1.6164005472125031	0.48376321076212825	-0.026463195840643605	-0.16856962874397124	0.9853344505958467	0.1420945161368229	-0.9763053161825457	-0.1632086948588873	0.989499291434684	0.13569159833541253	0.04978897861413867
61														9.619387398105307	-1.613035561441508	0.4807763270335712	-0.026517841819775845	-0.16856917347725164	0.9853330593349735	0.14205484027884946	-0.9763120724233479	-0.16320281735858186	0.9895035252178602	0.13564354387004304	0.04983575611750851
62														9.595680823823125	-1.592469519909613	0.5095718416930021	-0.02654416689042227	-0.16857286918401762	0.9853317182447552	0.1421118481598467	-0.9763042418250893	-0.1632000306584842	0.9894946335461785	0.13569530267995866	0.049871384720181156
63														9.595704583281497	-1.5922650442297834	0.5097633464543361	-0.02654252733947665	-0.16860645110636546	0.985326016548711	0.14213097034461375	-0.9762960193385637	-0.16323256382405418	0.989491930998597	0.13571273804986836	0.04987756228682544
64														9.592414042635188	-1.5912490737947875	0.48603432465813906	-0.02662915924198439	-0.1686067035619755	0.9853236358638868	0.14215272931032685	-0.9762949614839315	-0.16321994280943092	0.9894864776376129	0.13572003424348622	0.049965817087854636
65														9.568658133997168	-1.570837398733046	0.5151846716122734	-0.026654811817213353	-0.16866297480840992	0.985313311559205	0.1422159027140819	-0.9762775549019496	-0.1632690197492762	0.9894767091863295	0.13577531706259588	0.05000905172410114
66														9.619944736627001	-1.5651878458722308	0.5331781126579794	-0.026656856663970885	-0.16868413659710163	0.9853096335940731	0.1421852068479491	-0.9762783061497464	-0.16329126092656504	0.9894810654814988	0.13574362232485176	0.050008899725204614
67														9.595736921181096	-1.591754482861409	0.5107481870446126	-0.02663925444599824	-0.16871445992330786	0.9853049178479459	0.14219353568431342	-0.9762717373929801	-0.16332327812435568	0.9894803426709168	0.1357531796330322	0.04999725679841294
68														9.59576098681857	-1.5917596553911375	0.5102797207613167	-0.026593781525302118	-0.16874318243137412	0.9853012276289504	0.14216711665994922	-0.9762695659988208	-0.16335925270724924	0.9894853620568528	0.135733094296883	0.04995243125026638
69														9.595800216195137	-1.591707207618456	0.5097053085034857	-0.026502210420497052	-0.16876423434572524	0.9853000893375221	0.1421620909420967	-0.9762646818383428	-0.16339281163518396	0.9894885409855938	0.13574205023050454	0.04986504845500972
70														9.61629150254842	-1.6110437337991506	0.4564081823762404	-0.02645911609088375	-0.16877810590263637	0.9852988714819516	0.14213423884881493	-0.976265221566884	-0.16341381614120265	0.9894936954435621	0.1357209200045491	0.04982026244974641
71														9.599206553653675	-1.5922256499512548	0.5328782481420377	-0.026430701494568554	-0.16880042403535633	0.9852958108426065	0.14211666962551917	-0.9762632830400297	-0.1634406754833512	0.9894969783850057	0.13570710752715562	0.04979267750941879
72														9.571944701951288	-1.59446504268628	0.5116934204899176	-0.026436284897551787	-0.16880590504210416	0.9852947220318049	0.14209957240472668	-0.9762648455354794	-0.1634462079522807	0.9894992846703878	0.1356890481745025	0.04979606251791624
73														9.616416437628095	-1.6105400750761494	0.4555525887833585	-0.026432468747975724	-0.16883387061073787	0.9852900327976959	0.14209787978827934	-0.9762603513264606	-0.16347452091262493	0.9894996296894525	0.1356865894719635	0.049795906276559
74														9.59555536506748	-1.6376408634129442	0.4573248238190903	-0.026453385385619976	-0.16881543700778734	0.9852926299478291	0.14201698882856623	-0.9762749741517613	-0.16345748599879023	0.9895106837653178	0.1356042885488789	0.049800438165197136
75														9.619863213494947	-1.6105664867970315	0.47953191841106324	-0.026520649657471806	-0.16880215235668453	0.9852930977640593	0.14191188708287558	-0.9762931036130316	-0.16344048501583433	0.989523962037465	0.13549025499047765	0.04984695934851524
76														9.622996311919481	-1.6344167304187807	0.4782907895524617	-0.0265112511049031	-0.16880520228726284	0.9852928281712039	0.14189575673812935	-0.9762945927417361	-0.16344559462696337	0.9895265270747251	0.13547572426085894	0.04983553302041949
77														9.650351097966212	-1.6316878195975706	0.49928216738544323	-0.026531786872741048	-0.16880991366555392	0.9852914682131211	0.14185687102387873	-0.9762996005011357	-0.1634494362322414	0.9895315520126957	0.1354337591206533	0.04984981907484498
78														9.644013860553265	-1.6063503353644055	0.4765519488500595	-0.026572199472300606	-0.16880371812267958	0.9852914406220951	0.1418664528654317	-0.9763002343220464	-0.16343733359945073	0.9895290939465019	0.13543691229010218	0.04989002929181996
79														9.596315384192343	-1.588976326200836	0.5085256922554234	-0.026640119317912936	-0.16880666140935463	0.9852891022976734	0.1418207158140498	-0.9763075465029117	-0.1634333479050567	0.9895338238831041	0.13538052188292188	0.049949231085071044
80														9.620116199426333	-1.6089659614191592	0.47982951541975516	-0.026599400409430873	-0.16881886546376174	0.9852881114483151	0.14182287145027422	-0.9763043030034445	-0.16345085215610766	0.9895346103252064	0.13538869450765484	0.04991148533208711
81														9.619927160161625	-1.632138711385289	0.4543697745086177	-0.026632764255470343	-0.16882526862613176	0.9852861130359176	0.1418466004392621	-0.9763007512626733	-0.16345147606480628	0.9895303117196244	0.1354063209649168	0.04994887817367932
82														9.61380724183249	-1.583558757947283	0.4567078099038946	-0.026593064652861598	-0.1688498129888132	0.9852829794358633	0.14189521226587468	-0.9762891244146688	-0.1634787273184557	0.9895244098294853	0.135459537144058	0.04992149986054584
83														9.617173308698195	-1.584081769002062	0.4806282091727288	-0.026579733559391527	-0.16885478364562748	0.9852824873120908	0.1419759233084795	-0.9762769445703655	-0.1634813894639277	0.989513190899756	0.13554109908193895	0.049922494879998724
84														9.613907624027547	-1.5830225420875046	0.4564535788507758	-0.02660033583154897	-0.1688758880740754	0.9852783142649805	0.1419893648412715	-0.9762720696934558	-0.16349882632125792	0.9895107085856228	0.13554991834615374	0.04994774500145083
85														9.610611265620081	-1.5821054769101814	0.4324402544304106	-0.026618627055551014	-0.1689070076057578	0.9852724859019184	0.14202694519406114	-0.9762621724639843	-0.16352528078173367	0.9895048234003312	0.1355824228931249	0.04997610498937671
86														9.617021092750058	-1.606919776916666	0.4555729537643927	-0.02663808959315478	-0.16892895981015255	0.9852681963406141	0.14202540676423014	-0.9762591822552323	-0.16354446764045472	0.9895045204627829	0.13557660417566386	0.04999788379435016
87														9.623447806604386	-1.631591738844884	0.478851626768472	-0.026699124372441152	-0.16893162214783058	0.9852660878139713	0.14203432050586667	-0.9762589071199873	-0.1635383687925421	0.9895015960351871	0.13557526805207268	0.05005934614462093
88														9.644179132894598	-1.6272277660960428	0.45176194293605904	-0.02670937282938407	-0.16893376900240484	0.9852654419463333	0.1420773369293262	-0.9762528891420281	-0.16353692785702598	0.9894951438658667	0.1356159213827253	0.05007676240915332
89														9.644006451204751	-1.6503076107329087	0.4264299043824417	-0.02669063673253691	-0.16893896788580134	0.9852650582662984	0.1421238726669923	-0.9762452207415464	-0.16354226914601094	0.9894889664513439	0.13566463838808518	0.050066866908982655
90														9.59980683921523	-1.6104432860954876	0.5081306642358397	-0.026773565323814197	-0.16898132934071833	0.9852555437723228	0.14219503703312905	-0.9762303174016698	-0.16356937008187789	0.989476501814469	0.13571911331893882	0.05016547255755227
91														9.59956614480515	-1.633710997007029	0.4835550731963406	-0.02683238001185484	-0.1690139820634192	0.985248342931855	0.1423584107531117	-0.9762038149052141	-0.1635854353307627	0.9894514168319475	0.1358690017317159	0.05025443361216242
92														9.627113486822553	-1.6074477968573604	0.5306969026815501	-0.0269225260772189	-0.16901179130126975	0.9852462595669969	0.14242530903082784	-0.9761970461056118	-0.1635675961862616	0.9894393407061877	0.13592035011658404	0.05035324703621957
93														9.590149927651328	-1.583755390236718	0.46329518639291684	-0.027003954803956676	-0.1690140909216802	0.9852436366172909	0.14244609745306594	-0.9761956655883779	-0.16355773233588175	0.9894341290582905	0.13592740546476387	0.05043654129973796
94														9.623880706584343	-1.6058038761256195	0.5078982377863899	-0.027062887853758266	-0.16900786530050213	0.9852430875512815	0.14249984454107098	-0.976190658270587	-0.16354079922456122	0.9894247795597123	0.1359711005022941	0.05050213284020316
95														9.62391259967087	-1.6053850735941773	0.508617367211035	-0.027181425703087403	-0.16901652441037016	0.9852383389682855	0.14249268454181543	-0.9761929084958361	-0.1635336058873124	0.989422561370426	0.13594417927472616	0.05061793330932135
96														9.596659508232566	-1.607351997647034	0.48842454975444244	-0.0272589757219725	-0.1689970362151667	0.9852395393979471	0.14255901763244838	-0.9761887957997852	-0.16350034081504783	0.9894108725571297	0.13599792904840563	0.05070195815039741
97														9.630626113297023	-1.6057474852780416	0.5584304413555762	-0.027299449063606818	-0.1689838060389085	0.9852406880440066	0.14260716075544372	-0.9761852960235173	-0.1634792510649231	0.9894028187659938	0.1360394836952922	0.050747621558293377
98														9.644834774349016	-1.5994794216224235	0.483005499040291	-0.027306586684169742	-0.16892243578365004	0.9852510142154528	0.14267535637883136	-0.9761862607473846	-0.1634139743418931	0.9893927900514706	0.13610876172002317	0.05075738347480652
99														9.596983204825158	-1.6050377217732035	0.48967334251142114	-0.02734388749525607	-0.16889461900912517	0.9852547485226393	0.14276537454085525	-0.9761793376429074	-0.1633767076154488	0.9893787746100358	0.13619290887860858	0.050804841524474065
100														9.621287087918002	-1.577496184723675	0.5125277100949361	-0.027426227074559884	-0.16884543959393727	0.9852608891033808	0.14282881382266155	-0.9761806361160876	-0.16331348876930435	0.9893673392681132	0.13624457126917128	0.050888945648476014
101														9.614800205779241	-1.5752078900399908	0.46461508884264036	-0.027463717971970614	-0.16881590203005126	0.9852649062140276	0.14284961291048226	-0.9761835229599953	-0.16327803769257587	0.9893632964116276	0.13626048848875072	0.050924915221584655
102														9.617982492994361	-1.5987382658166869	0.46398428000975694	-0.02755744434210522	-0.1687980458277207	0.9852653485158581	0.14292996746670597	-0.97617755168783	-0.1632434132843383	0.9893490848337098	0.13632537293364586	0.05102725774724953
103														9.624437294774781	-1.622988024380967	0.48811366440552423	-0.027714801706877346	-0.16878164866375978	0.985263743796904	0.14300586287280487	-0.9761734009787009	-0.1632017598118373	0.9893337217291002	0.1363753874275679	0.05119121754390832
104														9.597363967324828	-1.601568556512624	0.49355418428320896	-0.027801319779660327	-0.16880837937278736	0.9852567267834521	0.14309053660545146	-0.9761592742254422	-0.16321203900944803	0.9893190511419826	0.1364434036411828	0.05129339772657132
105														9.62137403947971	-1.5979620872078089	0.49124569851793665	-0.027893260961977473	-0.16879806417982948	0.9852558954515569	0.14310394709706012	-0.9761612337117023	-0.16318856002701024	0.989314523454573	0.13644214644892347	0.051383989279362885
106														9.621388685556186	-1.5975872203580657	0.49217724127823165	-0.027994829657185583	-0.16882723177635933	0.985248017162784	0.143187624177383	-0.9761471800725262	-0.16319922523986646	0.9892995470507921	0.13650658829224177	0.05150104424097368
107														9.570278365489141	-1.5796964649589962	0.5006020653289486	-0.028068381483572324	-0.16886984309945577	0.9852386218842918	0.14329264008338125	-0.9761273077201491	-0.16322591222274857	0.9892822576286445	0.13659595606964015	0.051596119297808885
108														9.573527763221458	-1.5804168833557277	0.5254740421195794	-0.028117704605874982	-0.16892309382843665	0.9852280868200654	0.143352071112158	-0.9761114055578173	-0.16326882019478606	0.9892722468539952	0.13664374230593868	0.05166148752287997
109														9.594228197766007	-1.5763118594887124	0.4987347314568596	-0.028164191059355637	-0.16893701873143036	0.9852243714221184	0.14345162168946857	-0.9760964072694452	-0.16327105055809046	0.9892564938258598	0.13673363674611042	0.05172525500709513
110														9.611665905522377	-1.5713436099226188	0.4479609961658531	-0.02824840836927217	-0.16896543768568756	0.9852170868860768	0.1435062526426591	-0.9760860747682882	-0.16328481281459617	0.9892461689979217	0.13677227610565107	0.051820474832014296
111														9.576604686313322	-1.6040617241457196	0.5265031460128871	-0.02834161580258826	-0.16901269568381377	0.9852063040355508	0.14352593086533605	-0.9760776569529571	-0.16331783358367535	0.98924064816552	0.13677396058796004	0.051921322422930405
112														9.579847449647554	-1.6047404946452342	0.5514551508145182	-0.028409530633780933	-0.16905271372624284	0.9851974820059993	0.1435979754881044	-0.9760626164699928	-0.16334439128868083	0.9892282446457371	0.1368318263838676	0.05200510824495108
113														9.573291205390248	-1.6031712026677152	0.5034991802680355	-0.02842860122787183	-0.16907304716920185	0.9851934426056375	0.14362101057629417	-0.9760564959708127	-0.16336071129320842	0.9892243526891513	0.1368503613225038	0.05203036279548234
114														9.621285980003766	-1.5966881638912465	0.49707796995305165	-0.028398134183690416	-0.1691174404640176	0.9851867017503763	0.14362521690830077	-0.976047852819629	-0.1634086474891568	0.9892246170829601	0.13685715303589874	0.05200746696369585
115														9.5909160010661	-1.5750144808965925	0.47703123760030036	-0.028419605122863623	-0.1691349609273373	0.9851830748834295	0.14356173882388415	-0.9760542190849864	-0.16342640102584602	0.989233214763093	0.1367900815063207	0.052020384571538514
116														9.651670651315772	-1.6183797695006368	0.5167830189079976	-0.028419237260428165	-0.16918422726925533	0.9851746262449318	0.14356401051467435	-0.9760457227527488	-0.16347514178310785	0.9892328956512103	0.13678978156050148	0.05202724115453683
117														9.617982721844927	-1.5961389142977933	0.4728440727627273	-0.0284318236842514	-0.1692460346138837	0.9851636468980491	0.14356256668859074	-0.9760359533045019	-0.16353472812450684	0.9892327435178092	0.13678303120068844	0.05204787726487897
118														9.621230599604443	-1.596958136609497	0.49728258162844124	-0.028462795282646225	-0.16928614831522953	0.9851558603963598	0.143546477727442	-0.976032229129805	-0.16357107455766254	0.9892341876506002	0.13675996376314783	0.05208103584568308
119														9.627592569784863	-1.621878237242734	0.5206855708550993	-0.02848292411859754	-0.16934007819029026	0.985146009966117	0.14361993371240403	-0.9760135780545882	-0.16361787828206742	0.9892229463948453	0.13682628903681898	0.052120331486992466
120														9.600303808574381	-1.6244554312022714	0.4998185612086176	-0.02846747955897161	-0.16938692049356782	0.9851384033592769	0.143623194117127	-0.9760049912451165	-0.16366623101976152	0.9892229176071254	0.136829559051857	0.05211229270067469
121														9.597024518013132	-1.623735900604149	0.4757083867204997	-0.028493308438118314	-0.16942330700418565	0.9851313995696287	0.14368022483991136	-0.9759916493233025	-0.16369573434006018	0.9892138921205071	0.13687966793846523	0.05215200994067931
122														9.59721646415001	-1.60013995776546	0.5009998870079174	-0.02846535676680323	-0.16943965759630347	0.9851293955099429	0.14365156936558454	-0.9759922543062517	-0.1637172750597972	0.9892188585358364	0.13685511304970696	0.052122240446940304
123														9.621067376103541	-1.6202612138441372	0.4723805266851214	-0.028489944776920073	-0.16944861530546573	0.9851271439858247	0.1434695639432158	-0.9760164931035211	-0.1637323713009965	0.9892445639317666	0.13667103555971233	0.05211737493853935
124														9.597221096243473	-1.600053269326003	0.5011880031843662	-0.028549711215258622	-0.16950763444976968	0.9851152601867295	0.14346798919314402	-0.9760082723725176	-0.16378274737373452	0.9892430692536593	0.13665655536290924	0.052183673787333795
125														9.64532882405603	-1.57021474416304	0.5207921925798036	-0.02860021770461485	-0.1695618649581404	0.9851044622268069	0.14350825647353482	-0.9759948519247461	-0.1638274376907594	0.9892357696076174	0.13668512343452324	0.052247192848174695
126														9.620967020351053	-1.6204108445107148	0.4739087905790816	-0.028675139224648594	-0.16961012089977656	0.9850939768767293	0.1434742971624876	-0.9759932386452794	-0.16386678788707826	0.9892385265668624	0.13663676301443062	0.05232143488820906
127														9.603646793522392	-1.601682546063371	0.5511733205871593	-0.028713180532391247	-0.16964715321546686	0.9850864919739797	0.14336119493225735	-0.9760035665578746	-0.1639042581933216	0.9892538203369796	0.1365169640454828	0.052344985208659045
128														9.621212726083032	-1.573714189331719	0.5253887512824161	-0.028771682231126194	-0.1697201998202563	0.9850722024676991	0.14337607093539942	-0.9759907008532933	-0.16396784480813575	0.9892499646624803	0.13651815125055666	0.052414709714084295
129														9.596833613180376	-1.6240352040761927	0.4785296559105426	-0.028840523501884263	-0.16977280371449302	0.9850611246633671	0.14336230048642287	-0.9759854251335986	-0.16401128231322823	0.989249955776283	0.13649045770935445	0.052486950291601664
130														9.624197841019416	-1.5982290231717635	0.5254773514856109	-0.028883977587871812	-0.16984341892408603	0.985047678484083	0.14337813836546	-0.9759724786678288	-0.16407446578255297	0.9892463926027525	0.13649517914986065	0.05254180041918172
131														9.621025456713815	-1.5742824095103654	0.5271129415054042	-0.028928660207310886	-0.1699120259126053	0.9850345354701446	0.14337166781176103	-0.9759629686986498	-0.16413667657714995	0.9892460247519237	0.13647779005828028	0.052593871632767075
132														9.59028919245846	-1.599715687288617	0.45699650950865567	-0.028971085298213295	-0.16997025985083017	0.9850232418490871	0.14334105579881737	-0.9759584614754107	-0.16419020432726694	0.9892492193270229	0.13643750305832564	0.05263829233633449
133														9.62401384403345	-1.5989393248808794	0.5266850043389198	-0.02900487708927274	-0.17004380868431931	0.9850095533715231	0.14328994793772756	-0.9759540232272953	-0.16426118033929873	0.9892556332541351	0.13637759227448956	0.0526729949819979
134														9.623791299569973	-1.6226746287728258	0.501703333255158	-0.029062356484178598	-0.17010447068103904	0.9849973850167881	0.14325838587766868	-0.9759495772822173	-0.1643151164025598	0.9892585174317743	0.1363337509825991	0.052732286425900055
135														9.599733327866629	-1.6260077168340235	0.5056938928475375	-0.02914157336158163	-0.17017108116714855	0.9849835388657089	0.14331895562557032	-0.9759319366825512	-0.1643670645885018	0.9892474137749401	0.1363768972276781	0.05282893375929487
136														9.575499964876444	-1.6528850705271305	0.4844746654463723	-0.029225544191059827	-0.17025229130303202	0.984967017149713	0.14327196420202123	-0.9759267902260941	-0.16443857331139575	0.9892517434103568	0.13631235243021836	0.05291437171987201
137														9.593180544005822	-1.6017353964671641	0.4842855746378031	-0.02931429214963399	-0.17034155479592294	0.9849489463852804	0.1432405754089166	-0.9759182502452115	-0.1645165839508216	0.9892536630370842	0.1362619666232395	0.05300817502686528
138														9.59927124364817	-1.6505540407869785	0.4827484890437962	-0.029415632365953126	-0.17042353063905424	0.9849317442224264	0.14322261921474283	-0.9759093595059443	-0.1645849427316085	0.9892532546915276	0.13622313398691654	0.05311549537566895
139														9.59282239494094	-1.6259423871964165	0.46059463625021874	-0.02949302387881425	-0.17050198685019113	0.9849158512393946	0.14325254373306906	-0.9758939069094963	-0.16465051220972568	0.9892466175107647	0.13623565956480385	0.0532069056275033
140														9.608828588819135	-1.653327803819041	0.5570570076307988	-0.029582747974160994	-0.17057907060821245	0.9848998130229981	0.1432805653587674	-0.9758792250614958	-0.16471313755692707	0.9892398802175183	0.13624433479529952	0.05330985484333156
141														9.602535983453206	-1.6051401607695348	0.5603914717960784	-0.029709815308081367	-0.17064446590973814	0.984884659809838	0.14333537220554615	-0.9758636651944436	-0.16475763420237868	0.9892281324088279	0.13627389041062668	0.053452117294783164
142														9.599227494201164	-1.6043804177124268	0.5374111625616984	-0.029838007655422272	-0.17068102324586146	0.9848744496649818	0.14337212856118517	-0.975855440083188	-0.16477436940216952	0.9892189474787622	0.13628700731835494	0.053588483699547995
143														9.616682726844587	-1.5996073620491817	0.4873421895100859	-0.03002534687997327	-0.1707311439001289	0.9848600687647411	0.14336516556830892	-0.9758523310216316	-0.16479883901659897	0.9892142881329142	0.13624648451318294	0.05377720345546366
144														9.595707536135338	-1.6270584055461674	0.49068755083113375	-0.03013483282817675	-0.17079416066900696	0.9848457983521007	0.14342078556829138	-0.9758366471543916	-0.16484330844001277	0.9892028963349185	0.13627983252060605	0.05390210692323205
145														9.595934711299495	-1.580114794007055	0.542206024202732	-0.030210295103734075	-0.17083270113772048	0.9848368018569045	0.14346701226506703	-0.9758255669177234	-0.1648686730141258	0.9891938912374463	0.13631086226597613	0.05398883557575296
146														9.619789068327504	-1.60016918451717	0.5145487817706328	-0.030321323291364388	-0.17085523744730952	0.9848294802607632	0.1434432673810394	-0.9758276265421135	-0.16487714311037202	0.9891939377073199	0.13626786530216853	0.05409641844963364
147														9.64997259022903	-1.64513974870201	0.5100903081650877	-0.03038674811842751	-0.17090292206098637	0.9848191898870592	0.14349894437525232	-0.9758134806453206	-0.1649124129774739	0.9891838547519746	0.1363093621945356	0.054176187353332905
148														9.650060973012888	-1.6216340556668707	0.5362745493948698	-0.030477885648073633	-0.17095275102412708	0.9848077250934345	0.1434791169256829	-0.9758099703782641	-0.16495043108945615	0.9891839270290682	0.1362720023616518	0.054268774444396706
149														9.59245701288982	-1.6024131277984273	0.4962282019301224	-0.03059000336038531	-0.17099927487719752	0.9847961716446119	0.143473554907937	-0.9758055303096862	-0.1649815324789745	0.9891812729406528	0.13624542197264605	0.054383768304566926
150														9.613318298872208	-1.5748917411928123	0.49533565628544984	-0.030699727096710372	-0.17103586085285613	0.9847864037741937	0.14346632294677178	-0.9758029284430656	-0.16500320912657737	0.989178922610222	0.13621813074719116	0.05449476965196792
151														9.59870917380724	-1.6271104829046434	0.5213453842230293	-0.030810513896767255	-0.17107797633980784	0.9847756283767857	0.1434541516460929	-0.9758001033067965	-0.16503049646033696	0.9891772432728712	0.13618547792595825	0.0546067486045585
152														9.595575896961913	-1.602783755272207	0.5234693330516186	-0.030931991044706564	-0.17110617832926364	0.9847669204779191	0.14336949700228	-0.9758098290011201	-0.16504655389955256	0.9891857253616853	0.13608031952622288	0.0547151476130483
153														9.601774513031362	-1.6509303908392778	0.5220623388462756	-0.031025003991460853	-0.1711173723807397	0.9847620494296276	0.1433143878501909	-0.9758176761403754	-0.16504802079129016	0.9891907982601003	0.1360099547882741	0.05479832877047214
154														9.622654320754801	-1.6233133111768645	0.5210719419319833	-0.031149779128878563	-0.17115635815619604	0.9847513352734939	0.14330618012002935	-0.9758151452628974	-0.1650701093928134	0.9891880660418558	0.13597905477777683	0.054924190136173834
155														9.622605857675303	-1.6232092572937218	0.5222896597860757	-0.03130355212539798	-0.17119667338495728	0.9847394511474884	0.14324594300496676	-0.975820207200436	-0.16509246812594428	0.9891919366012595	0.13589195061232426	0.05506986763945704
156														9.62575888875334	-1.6238448981198574	0.5477543701394195	-0.0314422384890804	-0.17123887083389508	0.9847276957384354	0.14322176823013824	-0.9758196464591299	-0.16511675472044507	0.9891910385480798	0.13584280142838506	0.05520708791686074
157														9.571366861301659	-1.6053559646197324	0.5322994215751969	-0.031599221689257107	-0.17130439150748542	0.984711274759705	0.14321167521481612	-0.9758136591927344	-0.16516088706183307	0.9891874975305738	0.13580319577659322	0.05536774102367814
158														9.60167530219537	-1.6036570824931955	0.5790736091468209	-0.03174824786934333	-0.1713654619345914	0.9846958551822846	0.14315802222643437	-0.9758142094168722	-0.16520414453741805	0.9891904919829357	0.1357221689926465	0.05551273200346968
159														9.601502933468817	-1.627100140144678	0.5551549394750723	-0.03192169040547432	-0.171409276004835	0.9846826218539431	0.143150733026265	-0.9758118503513027	-0.1652243939253822	0.9891859649811556	0.13568379716629828	0.05568692728850089
160														9.574206210122256	-1.629749399817895	0.5353138517065882	-0.032024078674178835	-0.1715036246115608	0.9846628687678676	0.14317939848623654	-0.9757944404118926	-0.1653023590586683	0.9891785067591135	0.13568978151039318	0.05580470373966934
161														9.598130349987109	-1.6266770162418465	0.5332194570390164	-0.03212117816878518	-0.17154023790977774	0.984653328177438	0.1431657367335477	-0.9757924031864598	-0.16532621603706218	0.9891773358395294	0.13565814631436515	0.055902286178300675
162														9.601191072279141	-1.6509030509392424	0.5327692935231266	-0.03217871533961425	-0.17160082202799912	0.9846408929952113	0.1431342976002147	-0.9757878650352608	-0.16538021435595207	0.9891800155328581	0.13561415976675317	0.05596156306941669
163														9.625178926899416	-1.6476002869783086	0.5302535487033068	-0.03228815845180749	-0.17160534954824286	0.9846365211742946	0.14304848013249127	-0.9758013845764701	-0.1653746963426644	0.9891888632387528	0.13551111343749486	0.05605471415817925
164														9.652237608750871	-1.6916513253246042	0.5014096759568266	-0.03238544123070297	-0.17161133058241437	0.984632283856276	0.14300921577995176	-0.9758079956961418	-0.16536964575605043	0.9891913603536455	0.13545592180193414	0.05614397430261264
165														9.64912657243525	-1.6903186775718047	0.4778567405297355	-0.03245363827116626	-0.17157532503382955	0.9846363131646629	0.14297109313893602	-0.9758208294579878	-0.16532687416927305	0.9891946359992163	0.13540907146665138	0.05619924799245374
166														9.679617934329324	-1.6876641418583163	0.5238312440509058	-0.03256055321121304	-0.17152187258104845	0.9846420961958059	0.14292589944438255	-0.97583844415442	-0.16526196833602003	0.9891976534760859	0.135349836115793	0.056288757499468434
167														9.67031067433925	-1.6376373790708605	0.5030780406609776	-0.03270856941469413	-0.17149080780022619	0.9846426013162699	0.14287992224401153	-0.9758533445281123	-0.16521373366897613	0.9891994123059265	0.13528175343823734	0.05642136014211829
168														9.66092280271721	-1.6111001908063975	0.4572162242942162	-0.032848837250307406	-0.17145303701291567	0.9846445094501626	0.14290926052589745	-0.9758588868273372	-0.1651556122450953	0.9891905262118339	0.13528964889879372	0.056558056487092334
169														9.636973019971474	-1.6135596466082538	0.4618238057709926	-0.033016612546415414	-0.171451495398041	0.9846391664065244	0.14297507924546643	-0.9758539912308359	-0.1651275704223862	0.9891754293403736	0.135326909831796	0.05673268427163014
170														9.681776623087151	-1.605995756797251	0.4336724109837986	-0.033252245293907634	-0.1715165927936887	0.9846198995446709	0.1430666225469901	-0.9758359546481479	-0.16515487013386917	0.9891543002463827	0.13537447326723787	0.05698703617233519
171														9.684785418276606	-1.6069436321709327	0.46042485277204537	-0.03349399924666291	-0.17164584820962137	0.9845891807281165	0.1432131698894617	-0.9757997575293695	-0.1652417053162888	0.9891249364891558	0.13547153205756063	0.05726538236404782
172														9.684562854295617	-1.6074161579048771	0.4634473446564375	-0.03380198725117717	-0.1717777300570198	0.9845556546556058	0.14339592801683498	-0.9757596604863465	-0.16531997095257395	0.9890879806599924	0.13559312823305925	0.05761484261812416
173														9.657146767883368	-1.5871738664539694	0.47119187299083054	-0.03414197766370436	-0.17197621055133622	0.9845092728692879	0.14368220426925155	-0.9756948772955818	-0.16545371133791173	0.9890347564861108	0.13580754553250132	0.058022073721105405
174														9.687090404922241	-1.586308772789352	0.5203681548199413	-0.03446436387568119	-0.17216373748606184	0.9844652635403015	0.14399005455156505	-0.9756284884905393	-0.16557752454938818	0.9889788025093775	0.1360466829455842	0.058414281187238126
175														9.680516190716766	-1.538847432559958	0.5263277224635302	-0.03480092795980139	-0.17235340214169084	0.9844202355616837	0.1442568986229685	-0.9755676365824832	-0.16570375268095158	0.9889281281330907	0.13624276576410208	0.05881382630069831
176														9.68637867258399	-1.5882563374180951	0.5276256583660097	-0.03508502618080783	-0.1725549729750626	0.9843748382803508	0.14449322999002925	-0.9755077063275064	-0.1658505995849745	0.9888835863866585	0.13641662727549914	0.059158738812089384
177														9.682841835520133	-1.612325912658611	0.4819832003859148	-0.03548678058858251	-0.17279857300034598	0.984317703575681	0.14471719706116484	-0.9754450762323605	-0.16602360111985584	0.9888364987591317	0.1365560559736884	0.059622330537250134
178														9.682352458873034	-1.5903030122732131	0.5121021889762349	-0.03594956226967305	-0.17306990597140254	0.9842532380539417	0.14502169904651296	-0.9753679937775654	-0.16621066006724852	0.9887751694790288	0.13676287640064358	0.060162944245945704
179														9.66391267251852	-1.6202642937736902	0.5437868222190629	-0.03649398574386381	-0.1734151528594517	0.9841724309099805	0.14531180816054362	-0.9752822272514552	-0.16646037251116247	0.9887126313614288	0.13693707301594626	0.060791205122002256
180														9.693351995591094	-1.6206351988339127	0.595532674098389	-0.03708309499865414	-0.17378031602514	0.9840859951383941	0.1456605059847934	-0.9751859011229669	-0.16671975062133768	0.988639398902135	0.1371599796339644	0.06147584017511032
181														9.623525510230708	-1.6331730456676676	0.6354868436763772	-0.03770513208490289	-0.1741683596068005	0.9839937527882665	0.14600422573349708	-0.9750870229076924	-0.1669971970572408	0.9885651668364721	0.13737059462959716	0.062195101484673554
182														9.60174293984445	-1.6627189712404877	0.6444336552389717	-0.038329769231503996	-0.17452141842396449	0.9839070602968287	0.1463947504848526	-0.9749874947582394	-0.16723624635685314	0.9884833867198466	0.13762870186243792	0.06292006518212434
183														9.549812071000341	-1.6469556519568356	0.6577611119868826	-0.03881849026539208	-0.17488199235347857	0.9838238732435771	0.14676372778529273	-0.9748863191635606	-0.1675024564425536	0.9884095977984435	0.13788746664654813	0.06350994821063016
184														9.528109472623562	-1.6526307211540727	0.6901420787412424	-0.0392190830549447	-0.17515822463056147	0.9837588423331195	0.14708903806578177	-0.9748033661423996	-0.16769976815228466	0.988345424639186	0.13812311067202615	0.06399474894919788
185														9.521562713823673	-1.6527200628608383	0.6458570387866767	-0.03953623467073941	-0.17538340912894296	0.9837060261838237	0.14739261773766726	-0.9747300633581726	-0.1678592262052071	0.9882875605735904	0.13835448452465426	0.0643873763048246
186														9.548181086858873	-1.6509897179238022	0.6711872833698318	-0.039948628971124445	-0.17553287536503293	0.9836627047466071	0.14756934773259933	-0.9746896593485859	-0.1679385470007178	0.9882446026430411	0.13844954902425988	0.06484078748655392
187														9.57199930979833	-1.6954339680634436	0.6220677828110291	-0.040335225151510556	-0.1756906223613235	0.9836187649827894	0.147736394966193	-0.9746485615045957	-0.16803017336007117	0.9882039400925147	0.13853875548493053	0.06526856834891248
188														9.568661388105694	-1.6952570175411485	0.6022024389609716	-0.04078950034835327	-0.1758362630967738	0.9835740059809905	0.1478339208639859	-0.9746208853129964	-0.16810491293740254	0.9881707081791649	0.13854868635924728	0.06574886314465422
189														9.565259602149599	-1.6712449031058056	0.6080260011191402	-0.041298880224710066	-0.1759445482907846	0.9835333844963968	0.14790275549597476	-0.974604932348335	-0.1681368512819114	0.9881392500092704	0.13852343400684755	0.06627277587416713
190														9.546810517474006	-1.6756625629642345	0.6641364167755947	-0.04176992254396261	-0.17605169960453054	0.9834943175418087	0.1479198150740893	-0.9745955085735338	-0.16817646380139784	0.9881168968695553	0.13845357971050004	0.0667503137537917
191														9.549467672104857	-1.6762055335938588	0.6926110743095776	-0.042222165577609216	-0.17611728787270237	0.9834632629876424	0.14788352621076212	-0.9746002069989513	-0.16818114993385005	0.9881031076812824	0.13833704286981488	0.06719457686917302
192														9.546429089027487	-1.6989700188908785	0.6469783592429478	-0.042618543659037667	-0.17618548911314746	0.9834339495677095	0.1478422471381302	-0.9746038068773063	-0.16819658017156808	0.9880922678057608	0.13822479172067398	0.06758385351728308
193														9.570141759920952	-1.6717660074198037	0.6733088497542361	-0.043053311765050395	-0.17620300047185763	0.9834118745321188	0.14776487044497918	-0.9746220259612133	-0.16815900087012373	0.9880849940204737	0.13807392634373186	0.06799731947353388
194														9.567109542427898	-1.670125288037284	0.6533402273756079	-0.04354213977175364	-0.17616577470307895	0.9833970214960799	0.14767639348857473	-0.9746524158876535	-0.1680605575694911	0.9880768010991376	0.1379068092141378	0.06845397798572911
195														9.537015699578745	-1.647233368754442	0.6371547455787123	-0.043994650336800945	-0.17614473557108137	0.9833806500396156	0.14764615276953783	-0.9746710166778882	-0.16797923330116307	0.9880612755867408	0.1378021820534279	0.06888740310983565
196														9.56657932370968	-1.6205543199616834	0.7121356245595882	-0.0444381477347679	-0.17611357321955037	0.9833662900230744	0.1475919470075199	-0.9746944531325777	-0.16789085803317264	0.9880495272021705	0.13767618661347195	0.06930656127048912
197														9.566677101292841	-1.6430203808094257	0.6908299784962751	-0.04484608611867996	-0.17609565385422643	0.9833509796880706	0.14748990427250813	-0.9747214190815752	-0.1678239652769735	0.988046333274671	0.13750809386088111	0.06968477183161886
198														9.566599602249429	-1.6419170394135463	0.69451647038017	-0.045243360023781265	-0.1760578599682025	0.9833395488421968	0.1474234305657815	-0.9747465436245318	-0.1677364236301839	0.988038142226288	0.1373783302979226	0.07005586249972351
199														9.563466851981502	-1.6165644781703512	0.6988553759630907	-0.04558641949973108	-0.1760227751434189	0.9833299858074112	0.1473111148800808	-0.9747762639702214	-0.1676623709513987	0.9880391256372298	0.13721230932779382	0.07036667093839
200														9.569375743444034	-1.6401737966341916	0.7253588561365892	-0.045969959456848064	-0.17596831859155082	0.9833218769454879	0.14722893505268841	-0.9748060273557759	-0.16756148040077856	0.9880336044440927	0.13707063829614174	0.07071942170508244
201														9.563411799546017	-1.6140726576008273	0.705338196662876	-0.04633062891439427	-0.17591944286381533	0.9833136948333846	0.1470975375069548	-0.9748410884812928	-0.16747288338115945	0.9880363289291482	0.1368838990936999	0.07104231756579354
202														9.590836524505923	-1.6572752277667941	0.6793293879208594	-0.04665761052119155	-0.17583975109178382	0.9833124881320449	0.14703245565758558	-0.9748713785961156	-0.16735367392862902	0.9880306292639686	0.13677052727137254	0.07133931949603822
203														9.56960718201981	-1.6599782821447204	0.7091187524025189	-0.04699159890020582	-0.17582355645986586	0.9832994796228699	0.14689183720576932	-0.9749014478737998	-0.1673019877224493	0.9880357168620556	0.13657687918301975	0.07163922303815745
204														9.563619060373439	-1.6342930165416374	0.6887278417329976	-0.04731103919849744	-0.17580177907140043	0.9832880554777877	0.14686297913915086	-0.9749166497766881	-0.16723872561871617	0.988024762305243	0.1364963752761567	0.07194309284524136
205														9.56642582206839	-1.6338853277668774	0.7155331808162958	-0.04753660660295883	-0.17576653343747847	0.9832834773126452	0.1469243906585422	-0.9749194577890895	-0.16716840088319251	0.9880048048781401	0.13652170723954288	0.07216875355795577
206														9.605839711298819	-1.6009911443658373	0.6644573801396227	-0.04769170967089864	-0.17573128485856337	0.9832822668748918	0.14695249969593754	-0.9749252083164712	-0.16711014637717597	0.9879931496026594	0.1365260184398716	0.07232000157061425
207														9.611792744786792	-1.624969667428004	0.6892403298826021	-0.04788386521435395	-0.17571638216320248	0.983275591323007	0.14704949429065348	-0.9749188473576065	-0.16706192652959218	0.9879694234544897	0.13659060767999814	0.07252188781748714
208														9.65989101042675	-1.6178188780015061	0.6856706890646321	-0.04808363221571599	-0.17571526520822411	0.9832660422722566	0.14713788280344253	-0.974911507509018	-0.1670269318721196	0.9879465611848972	0.13664442213020161	0.07273165846891638
209														9.629816774757131	-1.5958743668755075	0.6674354198569333	-0.04832297285362358	-0.17579855195463015	0.9832394212119666	0.14726354233295555	-0.9748855980809683	-0.1670674108073228	0.9879161601037498	0.13672212617191176	0.07299808778929823
210														9.608339956660497	-1.599874398540345	0.6970289010995283	-0.04856904169961285	-0.17590893606425947	0.9832075540805825	0.14740427756883265	-0.9748531440988976	-0.16713266106570757	0.9878831039868998	0.13681152602479962	0.07327741264519216
211														9.632149094617718	-1.5970305230939394	0.6968962039827846	-0.04879183126943032	-0.17602885902826892	0.9831750596870231	0.147568011544348	-0.9748153167209712	-0.16720879239752934	0.987847680146197	0.1369267653725842	0.07353925315352794
212														9.610948193908781	-1.6249411898621855	0.7009847172375185	-0.049001818038263756	-0.17616489287982073	0.9831402505978414	0.14769890554766663	-0.9747789784008403	-0.1673050404734887	0.987817723635776	0.13701048786299364	0.07378530400139405
213														9.610656284049542	-1.6256192398608769	0.7034106880003135	-0.049224556621284665	-0.17631144929491332	0.9831028511162835	0.14778547660183172	-0.9747472804765618	-0.16741323755640314	0.9877937010990744	0.1370474810095918	0.0740377742636702
214														9.565343245630187	-1.6568649940437383	0.710466677642948	-0.049482893815625706	-0.1764526238451229	0.9830645526911257	0.1479584594841653	-0.9747053302886826	-0.16750466672276051	0.9877548974754335	0.13716410115260488	0.0743388987562626
215														9.586002777363495	-1.6298224068886902	0.7118552148848325	-0.04976190526384644	-0.17657145950237962	0.9830291310402313	0.14817847012740648	-0.9746611144653813	-0.1675674578783211	0.9877078990142856	0.1373252767639706	0.0746650827796072
216														9.572992847739284	-1.659385314178116	0.7896770608570464	-0.05008021739732321	-0.1767222580224305	0.9829858673169674	0.14834771771032665	-0.9746194103260547	-0.1676602507031135	0.9876664044481691	0.13742724815387644	0.07502549559502275
217														9.543083882236902	-1.661776450307359	0.7473698442024388	-0.05042918166147059	-0.17684449540530217	0.9829460423043567	0.14852970898429535	-0.9745815104214358	-0.16771942372221804	0.9876212954295763	0.13753873632368607	0.0754140094709771
218														9.545916172517552	-1.6860039691738398	0.7498441398501912	-0.05073078297449812	-0.17691564654197972	0.9829177186659256	0.14870776543855402	-0.9745517317477859	-0.16773467931725783	0.9875790541303852	0.13765818593903023	0.07574850286909313
219														9.599320329217353	-1.6805302113617002	0.7959435248852799	-0.05097439872614684	-0.1769576259569565	0.9828975578818916	0.14888176968035152	-0.9745260995377321	-0.16772924603843545	0.9875402925103133	0.13778563036635252	0.07602164647777832
220														9.587913900457274	-1.654054420004771	0.7267776052272361	-0.05123941202060367	-0.17697645326578243	0.9828803882697259	0.14907275551895516	-0.9745025381836557	-0.16769650156040306	0.9874977651710248	0.13792801768704127	0.07631530461941816
221														9.569595820467416	-1.6812263013797895	0.7556135292284658	-0.05153901131539668	-0.17696559633394982	0.9828666786633891	0.14925099406944636	-0.974486624715536	-0.16763042390868318	0.9874552501667679	0.13805432251361152	0.076636368346851
222														9.545062834985789	-1.6598515725269387	0.7863686445757307	-0.05182394754895342	-0.17695717232354466	0.9828532126536997	0.14943773168146593	-0.9744687367285099	-0.1675680324185986	0.9874120937128235	0.13819131775186758	0.07694489513710995
223														9.518636614204961	-1.6850689998927282	0.7425854285074667	-0.052136013547722015	-0.17694403829746563	0.9828390729933041	0.14969004282984666	-0.974443087580933	-0.16749197038466418	0.987357446505039	0.13838885929410494	0.07729033868683721
224														9.52089287784495	-1.660834268337905	0.7949094709784951	-0.05239584913896861	-0.1769012221073378	0.98283296272049	0.14987538990190089	-0.9744305978031617	-0.16739885772228477	0.9873155739148244	0.1385314682009214	0.07756925823634947
225														9.524039895396697	-1.6836462198868087	0.796574562585627	-0.05269584677401279	-0.1768182581979254	0.9828318530148595	0.15001895315598873	-0.9744317408882761	-0.16726355264499743	0.9872778035724049	0.13862931117659194	0.07787459570330119
226														9.520988169980798	-1.6579538013487616	0.799766222968138	-0.052911165458115084	-0.17674122011213972	0.9828341414924171	0.15014393797101538	-0.9744324364809483	-0.16714731414042763	0.9872472873907632	0.13872262918166992	0.07809497866383636
227														9.575049893997733	-1.674590130930166	0.8199923261834261	-0.05310795356852993	-0.17662271228033719	0.9828448314838409	0.15030403487573704	-0.9744347765875099	-0.1669897100929359	0.9872123593066671	0.13885706205874726	0.07829734317700143
228														9.542692696752232	-1.6504729311261837	0.7768316042892132	-0.053291464350364304	-0.17647718224194028	0.9828610400129507	0.15047015977032532	-0.9744404954835328	-0.16680662990570858	0.9871771628467136	0.13900188815175227	0.07848391073437361
229														9.51617178996223	-1.6509792352614716	0.7570975624063702	-0.05349932758482556	-0.1763327139038724	0.9828756767543221	0.1506256514992444	-0.9744480621677065	-0.16662198908916587	0.9871422060971762	0.139132124776764	0.07869254600470921
230														9.53028692497806	-1.6747577022032605	0.8551701979012515	-0.05369543394104115	-0.17609939419230483	0.9829068133546464	0.15075188890692778	-0.9744744671335721	-0.1663531812011211	0.9871122876172072	0.13924265248063525	0.07887214568705758
231														9.54676165015509	-1.666875658887447	0.7811906338532802	-0.05386673907638534	-0.17583659860074322	0.982944487249305	0.15081586200761884	-0.974513965678814	-0.1660635615174258	0.9870931821201973	0.1392983176117863	0.07901283770597295
232														9.596382333306028	-1.7044068590327104	0.7266637948576431	-0.05397936586049584	-0.17553143211172376	0.982992850636314	0.15089629946759606	-0.9745567988074315	-0.16573880868763924	0.9870747362121498	0.13938350777269032	0.07909300154056659
233														9.621057003258276	-1.6972345307651548	0.7251796879521749	-0.05420717756164667	-0.17514154087343628	0.9830498576172414	0.1509084906847061	-0.9746261473217641	-0.16531938905040355	0.9870603878892436	0.13938907280419494	0.07926207821349845
234														9.624872150550413	-1.7169689589980737	0.7263179606033869	-0.05452059787963648	-0.17475910652258433	0.9831005844237277	0.15101046141573574	-0.9746834069962726	-0.16488813380332984	0.987027529985792	0.13946867323369155	0.07953077540537501
235														9.596161013340097	-1.7145225288813672	0.6827254114058207	-0.054809304140614024	-0.1743499525704953	0.9831571767618279	0.1511843149235071	-0.9747341898943513	-0.16442798415145943	0.9869849254678269	0.13962576083828088	0.07978348080649078
236														9.647116535881834	-1.6797327826419757	0.7291727242609031	-0.05508083151894688	-0.1738804262808837	0.9832251519136199	0.15135643110241317	-0.9747946437459498	-0.16391044288924517	0.9869434293631643	0.13978912647479497	0.08001042029818334
237														9.671961410996895	-1.6708361989783598	0.7290659033407731	-0.055419031900829585	-0.17338572931608087	0.9832935064225259	0.1515315003867826	-0.9748601368626775	-0.16335825031694146	0.9868976316182474	0.1399467842632075	0.08029920473256219
238														9.681895603754851	-1.7135670287317917	0.7546973117849862	-0.05583033130990045	-0.17283002701160433	0.9833680673425366	0.15171365113139718	-0.9749361094368032	-0.1627346016574565	0.9868464633195014	0.14010483317644135	0.08065168041891047
239														9.672269786599657	-1.7049010098912505	0.6613636900971602	-0.056308569289934884	-0.17224696414613935	0.9834430986930351	0.1519185134667694	-0.9750145151683578	-0.16207239270479912	0.9867877736831598	0.1402771490779956	0.08106917512829515
240														9.68174400013954	-1.7228523615173212	0.7134472868126887	-0.05686199150426735	-0.1716038187214164	0.9835236872197822	0.15214019734613377	-0.9751016709378362	-0.16133843833916114	0.9867218829405012	0.14045946295806164	0.08155406177429064
241														9.673531054329969	-1.666433737680562	0.6959002314934688	-0.05748086801975527	-0.17096962904390883	0.9835981576621033	0.15245561867797547	-0.9751749485710317	-0.16059608965663413	0.9866373366872001	0.140723863022851	0.08211918308601618
242														9.698536821091167	-1.6551675032732702	0.6989233585929464	-0.05811481380208744	-0.1702846805423167	0.9836797222619514	0.15283179697680865	-0.9752475240933915	-0.15979583405880562	0.9865419961915399	0.14105103446026532	0.08270124199853829
243														9.726108541419492	-1.6440840044615623	0.7268542418243169	-0.05884337626334418	-0.1696094839213505	0.983753058462267	0.15317849979538367	-0.975324202593802	-0.1589938584826493	0.9864450335778304	0.14133408222611493	0.08337189533011496
244														9.793995018195272	-1.6246694668285988	0.6777296157950414	-0.05960839881760044	-0.16892471353585764	0.9838248217783646	0.1536482410610212	-0.9753848751387262	-0.15816625230897524	0.9863260398110033	0.14173491633129975	0.08409611574444592
245														9.864444180742414	-1.6054614361916164	0.6538192349646306	-0.06053710058262396	-0.1682478426146518	0.9838841003434116	0.1540611942607496	-0.975455412692741	-0.1573273220753017	0.9862050536658189	0.14205421959220182	0.08497170599705328
246														9.86358625456604	-1.6199922653485033	0.6137409700685836	-0.06159859027111225	-0.16754883387385083	0.9839374990029214	0.15451782896094662	-0.9755254224246026	-0.15644293124489783	0.9860678750521218	0.14239922215662876	0.08598027285011256
247														9.870334174157279	-1.6352876427402494	0.6482483340205377	-0.06282517354373612	-0.1668560231460761	0.9839776751070506	0.15506009414334296	-0.9755849506794141	-0.15553254068555403	0.985905352847553	0.14280431207677877	0.08716400449050582
248														9.81367856710995	-1.5838070984262338	0.6427311054172433	-0.06419519213926728	-0.16610973424167932	0.9840155148656762	0.155588792162186	-0.9756571610762219	-0.15454847716558007	0.985733790158233	0.14318051624032652	0.08847731183438468
249														9.741242411177183	-1.5605893727252158	0.688382655854451	-0.06564788851814185	-0.16539639218242028	0.9840398305892645	0.15614854419329413	-0.9757205061251336	-0.15358100817883646	0.9855495862103664	0.14357411807130138	0.08988039686507576
250														9.706261263871978	-1.4580637689953526	0.7314464684129234	-0.0670607202881765	-0.16468659673292493	0.9840636080309841	0.1567045502098404	-0.975781889124258	-0.1526217179847818	0.9853661977853527	0.14397232273468963	0.09124377539545264
251														9.632281513589412	-1.4118925349774027	0.8012733180391487	-0.06841450539636529	-0.16406355685602353	0.9840744914706004	0.15722500646039578	-0.9758327298275717	-0.15175895604806233	0.9851902114794376	0.14433860436147894	0.09255600734734215
252														9.574970013295946	-1.3621216468782902	0.7950982016588621	-0.06968930064006218	-0.16350416341646254	0.9840781421827139	0.15773085661894423	-0.9758733284049801	-0.15097093686547755	0.9850199887548238	0.14469842933932855	0.09379758152627526
253														9.508675055688219	-1.34239956092917	0.9117528656470056	-0.07099558964137392	-0.16301928786910877	0.9840652102549521	0.15816963982415175	-0.9759124151701148	-0.1502575221236267	0.9848563302783673	0.14498161848828522	0.09507017939998613
254														9.415626751678875	-1.3269780631406283	1.0060241331135342	-0.07220555526084504	-0.16266424546442362	0.9840359246678769	0.15870088528460483	-0.975915391822578	-0.1496769087523767	0.9846828864153965	0.1453598680904545	0.0962814725135106
255														9.392129226740916	-1.3015633502848338	1.0685204547699239	-0.07333700143987182	-0.16239041231735138	0.9839974787605955	0.15918102491390287	-0.9759114069395587	-0.14919224883555576	0.9845217547251902	0.1456924150141371	0.09741988852478106
256														9.353822189357558	-1.3291624109764395	1.1556069508605156	-0.07435459279375939	-0.16221524909573973	0.983950002536349	0.1598379164159948	-0.9758633860932159	-0.14880353543675096	0.9843389837887493	0.14620829197925145	0.09848807212166494
257														9.326360873515384	-1.2811213310476248	1.217403571065418	-0.07535441666748105	-0.16209688096712652	0.9838934459937382	0.16045507782835658	-0.9758119146619759	-0.14847651397721046	0.9841625271710969	0.14668233835216138	0.0995410052578451
258														9.249325825835287	-1.2166181067658437	1.3075972902877082	-0.07623859669692162	-0.16195050939751524	0.9838494340495246	0.16105083952479662	-0.975764932156687	-0.14813988072634207	0.9839971054134472	0.14715580069824627	0.10047321463363096
259														9.266862325861554	-1.262347817614511	1.4357918154058287	-0.07696131161629022	-0.16178345729664065	0.9838206490308312	0.16138126086851354	-0.9757568744273664	-0.147833049918567	0.9838867034139596	0.14739279138710548	0.10120434720074117
260														9.274547816178416	-1.2064116422768305	1.3430447658926812	-0.07746575763527197	-0.16158231876449178	0.9838141138734914	0.16153790489269707	-0.975774942123309	-0.1475424264648333	0.983821407409328	0.1474937849095444	0.10169081441401573
261														9.304176927989461	-1.224270812127628	1.3686806938254958	-0.0779115057021817	-0.1614086740352888	0.9838074187692373	0.16155771718555823	-0.9758080054409972	-0.14730186874257442	0.9837829543639242	0.14746517034009535	0.10210348789123996
262														9.33903500234021	-1.2909681298976035	1.3674278828112278	-0.0781018698860767	-0.16127915478281674	0.9838135657495471	0.16141919915519132	-0.9758524090758577	-0.14715949797733618	0.9837905976702538	0.14731296593777876	0.10224944988712548
263														9.409971324866621	-1.3261607335637933	1.262996084757414	-0.0780885586279762	-0.16115553844139896	0.9838348791545599	0.16118284852573855	-0.9759059597199464	-0.14706341191546812	0.983830405279555	0.14709333843771655	0.10218259849266625
264														9.408855072299817	-1.3729343524908353	1.1636238981761295	-0.0780107366223422	-0.1611102398052543	0.9838484718703041	0.16097259667985747	-0.9759424063956735	-0.1470518361557094	0.9838710017526603	0.14690102119629775	0.10206831967707414
265														9.508220969502002	-1.4060139132403313	1.1037234244295884	-0.07783413525277949	-0.1610852907024483	0.9838665440539993	0.16071586892378747	-0.9759804986743024	-0.1470798275887367	0.9839269570783822	0.14667513533918505	0.10185356060397577
266														9.609149852829244	-1.4631574019969682	1.0176844318885687	-0.07748322056863899	-0.16104024301726344	0.9839016163515806	0.16057584622880722	-0.9760002821231675	-0.14710148504824902	0.9839775140409535	0.1465929378395784	0.10148281843419316
267														9.648834262948167	-1.45501158064386	0.9132557000243303	-0.07728917834478827	-0.1610446982853599	0.9839161488993688	0.16044801202987685	-0.9760143327485847	-0.14714774108016643	0.9840136271142021	0.14649446209161832	0.10127464751871212
268														9.63003936849658	-1.506952922363667	0.8880405678081101	-0.07710514358522291	-0.16108083781474405	0.9839246721785168	0.16045222776375986	-0.9760042004921157	-0.1472103366866344	0.984027377382534	0.14652223145531823	0.10110072329615383
269														9.622930709520105	-1.4588732240184985	0.8869843246644749	-0.07685398914667141	-0.1610906665683853	0.9839427125075918	0.16046129862677497	-0.9759957820813828	-0.1472562562418303	0.9840455456914853	0.1465674947043305	0.10085798679749558
270														9.63914914618313	-1.430824200129152	0.8343024119905559	-0.07659762464683534	-0.16111383967480963	0.9839589089813168	0.16050084514342822	-0.975980704638288	-0.14731307776975167	0.9840590849165047	0.14664240464132933	0.10061671110854714
271														9.616029537216898	-1.4111923046249077	0.8830597339780941	-0.07634002052005212	-0.16118119176008572	0.9839678982008492	0.16061168707798779	-0.9759483407611399	-0.14740665568264147	0.9840610180476416	0.14678371704101503	0.1003914994940443
272														9.656229030906163	-1.3799307626223756	0.8278771701626566	-0.07601998624316025	-0.16123796392633497	0.9839833741890558	0.16070591620764504	-0.9759186145861727	-0.14750073287975962	0.9840704091615857	0.1469189459977669	0.10010121437552172
273														9.756154800658619	-1.390474748440741	0.8153824606483584	-0.07563091446092152	-0.161359675537655	0.9839934043926244	0.1607264592019702	-0.975888576972015	-0.14767698076522434	0.9840970328632241	0.14698483066601714	0.09974211479550699
274														9.875600687324928	-1.397628940421239	0.7516289756314493	-0.0752021299208227	-0.16153461182203604	0.9839975654638968	0.16088848652918425	-0.9758284602813432	-0.14789763692260804	0.9841034165969145	0.14719166174905163	0.09937343786864056
275														10.01886485872682	-1.4018952907827473	0.6866392907392653	-0.07497920645393202	-0.1618259040935463	0.9839667145609376	0.1610199526653237	-0.9757599404590636	-0.14820632050956015	0.984098924622518	0.14732588149959228	0.09921890544232254
276														10.069256024375706	-1.4456785052332453	0.6326650453321794	-0.07508622198925335	-0.16222182931853782	0.9838933567007798	0.16121713478669356	-0.975673114950242	-0.14856314554579547	0.9840584813508545	0.1474654225770886	0.09941254662069082
277														9.930052854925679	-1.4954252561713772	0.6733998340053816	-0.07556072948609133	-0.16274296822578752	0.9837709603625177	0.1616210229956437	-0.9755444917121189	-0.14896841818313536	0.9839559040350191	0.14774190665889012	0.10001553844990524
278														9.731078182100203	-1.4324920375527732	0.7968481842360391	-0.07621413877102151	-0.16331952242714878	0.9836249989938034	0.1621048463832869	-0.9753992206840059	-0.14939337022801685	0.9838259113432836	0.14806449231062252	0.10081409765680177
279														9.545645929886769	-1.4182875857884398	0.9926932399558142	-0.07682891179485102	-0.16389546263585061	0.9834813651716029	0.16257620135704562	-0.9752546852580897	-0.14982415571081295	0.9837003085618773	0.14837983761119652	0.10157325792620114
280														9.357183193547616	-1.427202894848237	1.1136067728173562	-0.0772325612753903	-0.16438758058860725	0.9833676092017001	0.1630436679312824	-0.9751183163072374	-0.15020330072822216	0.9835913245989705	0.14873127630180275	0.10211323921646992
281														9.313318370692432	-1.414100662151336	1.2187600479894978	-0.07729209358429262	-0.16481084609328192	0.9832920813671664	0.163349201690023	-0.9750087184256191	-0.150582327320522	0.9835359528642509	0.14898115318404936	0.10228218524924898
282														9.336121670869936	-1.4373314058003517	1.1676535455521966	-0.07711688128855443	-0.16511820332359284	0.9832542730909011	0.16350237356387048	-0.9749343152454449	-0.15089749764617244	0.9835242551453971	0.14912766305446057	0.10218111201493019
283														9.383175776512129	-1.4565301945657216	1.1133047799840927	-0.07698248354123466	-0.16537820200080797	0.9832211081597075	0.16362761236029003	-0.97487224975456	-0.15116249909204796	0.9835139560276174	0.14924525775200595	0.10210852725136671
284														9.410440244436753	-1.4794635154747902	1.1104567306844015	-0.07696429762096901	-0.16567885169954918	0.9831719152779076	0.16379596760839307	-0.9747999982759796	-0.1514458462830195	0.9834873552247333	0.1493836720015561	0.10216232501460776
285														9.463849394737318	-1.4987891487124079	1.1307202291733855	-0.07698430362482983	-0.16595236225761187	0.983124219240132	0.16398470503278204	-0.974729617309457	-0.1516943955954602	0.9834543372778993	0.14953924769397117	0.10225252998537321
286														9.447263007129646	-1.528883489252163	1.1815986378867998	-0.07695118058724582	-0.16623664350561054	0.9830787832936984	0.16412248094342227	-0.9746639770416086	-0.1519669145123743	0.9834339464627025	0.14965129539507446	0.10228471406506001
287														9.41713707512139	-1.510366932817125	1.1599304956862186	-0.07691969937918003	-0.16648747646635825	0.9830387988412669	0.1641751560727882	-0.9746164124177118	-0.1522148704118778	0.9834276170496193	0.14968222615224874	0.10230030888621428
288														9.397633084159834	-1.5643324386640751	1.1363830284131053	-0.07677822768027742	-0.16675624972931832	0.9830043015829023	0.16427570428780006	-0.9745561095954032	-0.1524922366254115	0.9834218813586687	0.14977564029736762	0.10221869123839733
289														9.39530293347676	-1.5661059878585517	1.110694048480173	-0.07655209959716491	-0.1669233819625536	0.9829935709868348	0.16435507355453563	-0.9745127266893371	-0.15268384104874042	0.9834262482993573	0.149871712056336	0.10203570003265428
290														9.439905787471634	-1.536487768954993	1.1046972542012148	-0.07625624787951724	-0.16710593336542132	0.9829855500939014	0.1644599437404242	-0.9744613517386899	-0.15289866210174224	0.9834317015249382	0.15000226998841587	0.10179099878716313
291														9.51124737748456	-1.5513431740194192	1.0467257512075179	-0.07598137404902261	-0.16724047349184104	0.9829839545098624	0.1645096563011216	-0.974426301776304	-0.15306846634837046	0.9834446622872632	0.15008000010920908	0.1015509221322507
292														9.507844713677562	-1.5283468841859094	1.044557764192776	-0.07568106131471125	-0.16733317511844553	0.9829913455687477	0.1645448444311638	-0.974399347785589	-0.15320217102293732	0.9834619317133743	0.15015165513505624	0.10127738805281322
293														9.556138110857221	-1.5222361036168794	1.037301881127266	-0.07539501931868864	-0.16738300251377447	0.9830048430864461	0.16442904678012038	-0.9744024473871662	-0.15330674838663083	0.9835032687474484	0.15007598407265077	0.10098771889546732
294														9.559905110840024	-1.546971262726368	1.0335080088879265	-0.07504181026053486	-0.1673801623959952	0.9830323534600028	0.16435309091454162	-0.9744060733132542	-0.15336513879327698	0.9835429773119516	0.15005560811424198	0.10063064271784578
295														9.596939927356221	-1.4916171852550542	0.9777629578062379	-0.07470985558010051	-0.16735431812096127	0.9830620375568717	0.16417405378539565	-0.9744295101147475	-0.15340798506336864	0.983598148403539	0.14993219141932404	0.10027472479806981
296														9.620395023119357	-1.512194589362351	0.9225840260452017	-0.07431191307376273	-0.1673303589153743	0.9830962773607528	0.164069591623223	-0.9744397046489954	-0.15345498072127856	0.983645723154382	0.14989267156479386	0.09986630228091187
297														9.597632694239556	-1.492164642532287	0.9700976059905236	-0.07395484332976227	-0.16736709878684952	0.9831169489901713	0.16398466483137086	-0.9744384129684507	-0.1535539287405909	0.9836867950970031	0.14986004662751332	0.09951007776394444
298														9.567085934689688	-1.4958284613266584	0.8959299037741388	-0.07361027272304971	-0.1673969998283526	0.9831377178188745	0.163896248003415	-0.9744390091204713	-0.15364451631840717	0.9837273746521653	0.14982276847255468	0.09916446141223151
299														9.567330879229294	-1.4964341442375222	0.8922955862672737	-0.0732219234873463	-0.1674433420361084	0.983158825993335	0.16385393892475553	-0.9744289614304866	-0.15375332784803872	0.9837634047979507	0.14983633182003223	0.09878581399705882
300														9.62251014820219	-1.4903858647811203	0.9570148737634734	-0.07286132068536072	-0.16745748830032925	0.9831832065083954	0.16371999658066994	-0.9744385544126688	-0.15383519231233672	0.9838124773896753	0.1497581159279633	0.09841501941317826
301														9.619467706450344	-1.514485508860772	0.8800282135399943	-0.07257138805808955	-0.16743189088723134	0.9832090090866993	0.16352037001003925	-0.974466028876302	-0.15387347775958893	0.9838671059788017	0.14960788909672212	0.09809687708036824
302														9.553198619440083	-1.501740676594378	0.9812636692162527	-0.07229177252425856	-0.1674417721888697	0.9832279250263144	0.16342392427626395	-0.9744724907270987	-0.15393500508419272	0.9839037151060296	0.14955473159474147	0.0978103351296683
303														9.595801042804549	-1.4706766264636646	0.9498546285396353	-0.07198025424277482	-0.16744725436801092	0.9832498461753048	0.16333240587684414	-0.9744781273948291	-0.15399644287953362	0.9839417504047827	0.14951185984289767	0.09749274627730203
304														9.599555361182748	-1.4951942591350236	0.9461125001296508	-0.07166696102855113	-0.16746771583905923	0.9832692463657043	0.1632249542056305	-0.9744837896883606	-0.15407452079815404	0.9839824495495343	0.14945202503231292	0.09717320202730256
305														9.599794646860493	-1.495628112739679	0.9429936790817937	-0.07138399039603366	-0.16748973500300163	0.983286079726426	0.1631123125767523	-0.9744907082515303	-0.1541500341138297	0.9840216966109046	0.1493822218339763	0.09688267336805828
306														9.581753223467167	-1.5239817846723487	0.9660836266038384	-0.0710968909183935	-0.16753049102650672	0.98329993729185	0.16298957232812392	-0.9744961117300991	-0.15424567266284714	0.9840628188352784	0.14930124848552498	0.09658936684040437
307														9.607182809789574	-1.497307209178921	1.0096877038811374	-0.0707735684538236	-0.16757184431488198	0.9833162151623559	0.16286401465125971	-0.9745009716450972	-0.15434755908156028	0.9841069122508926	0.14922309893468383	0.0962603345326794
308														9.60508226526808	-1.5456506132781016	0.9080217985487101	-0.07044037459660424	-0.16760589647286395	0.9833343363750798	0.16272948888853128	-0.9745080868300033	-0.15444449536647437	0.9841530709563265	0.1491383658568618	0.09591913655145867
309														9.628185675325774	-1.5187136497273848	0.9275002815964738	-0.07021560870352739	-0.1676230300261336	0.9833474910219946	0.16257623927005188	-0.9745232604013058	-0.15451013352403858	0.9841944598092394	0.14901991390974328	0.0956782657615235
310														9.604308799197465	-1.5227476262631388	0.9271292208152164	-0.06994832075465213	-0.16766414015624775	0.9833595316715401	0.16251193252682966	-0.9745201748473873	-0.15459722055009004	0.9842241127964707	0.14899384188980472	0.09541347320434573
311														9.599795765445142	-1.5229217380943256	0.8757244298501498	-0.06966669823005611	-0.16768370275865005	0.9833761879295587	0.16237965207794955	-0.9745304152836519	-0.15467164665224428	0.9842659192254734	0.1489048203256743	0.09512073767066942
312														9.62165689450713	-1.519834646519193	0.8462245010675158	-0.06938070781183431	-0.1677378290160624	0.9833871760911399	0.1623031993872672	-0.9745266572325284	-0.15477553363452098	0.9842987294780916	0.14886844884048453	0.09483773556787495
313														9.652963363346384	-1.5174899195931233	0.9138124477012932	-0.06905812598953909	-0.16778232783645705	0.9834022908762176	0.16226417566400594	-0.9745178723557609	-0.1548717332352215	0.9843278480927448	0.14887581040914818	0.09452343912557237
314														9.649527225373435	-1.541695116521493	0.8372390312058055	-0.06874351566844683	-0.16781727858626783	0.9834183698006872	0.1621730747329077	-0.9745186482980288	-0.15496224685728371	0.9843648830008195	0.14883133113454972	0.09420728203011308
315														9.65080613851555	-1.5661343775338379	0.809424962594573	-0.06846435141326618	-0.1678352694214094	0.9834347741074666	0.16206760380804872	-0.9745251049341292	-0.15503196976443895	0.9844017088472968	0.14876875408286339	0.09392088919486635
316														9.629308278022608	-1.5700888430496867	0.8335774467413831	-0.06825063920107427	-0.16785228065617128	0.9834467256171867	0.16204107852083602	-0.9745213391532437	-0.15508335954180355	0.9844209156252465	0.14877422966861556	0.0937106689020038
317														9.630767308450519	-1.5463925811508425	0.8807757276784146	-0.06810310348161186	-0.16785342019932736	0.9834567588987131	0.1619820681927297	-0.9745265605061488	-0.15511219311215257	0.9844408447845809	0.14873873804575555	0.09355752735283984
318														9.646709869985848	-1.5183844850973203	0.8286099392079641	-0.06792308014873183	-0.16785984568406379	0.9834681120351748	0.16196652793898794	-0.9745236044443857	-0.15514698903978622	0.9844558390351991	0.14875085407366503	0.0933803212773292
319														9.625190104774834	-1.5220872288705043	0.8537322824156394	-0.06780260854536668	-0.16787334156206196	0.9834741214018962	0.16191639385478035	-0.974526177880047	-0.1551831499473155	0.9844723905095093	0.14871876081817867	0.09325686304609404
320														9.60366043736241	-1.5256831937631818	0.8792439354778292	-0.06771388039867582	-0.16786622924250355	0.9834814484682755	0.16184616253400036	-0.9745357929338507	-0.155196030760483	0.9844900456959287	0.14866377289270605	0.09315810514890338
321														9.62890372933355	-1.546026607634137	0.8508692853288885	-0.06759731152991988	-0.1678731307510112	0.9834882894299153	0.16176133164392723	-0.9745447333423919	-0.1552283295645145	0.9845119984330868	0.14859735760254966	0.09303198511710697
322														9.616749888134567	-1.598120957232775	0.8994420362117801	-0.06749120541984333	-0.16786471942140269	0.9834970122804394	0.16166232365294464	-0.9745584733989276	-0.15524520938657874	0.9845355403956262	0.14851672599382823	0.09291152672282954
323														9.61001707914815	-1.5493916891589228	0.8989461601103258	-0.06734376192395608	-0.16780912990819652	0.9835166056805467	0.1615436459666031	-0.9745816348581542	-0.15522334697146778	0.9845651162710096	0.14842753422684724	0.09274049226520087
324														9.609226406416548	-1.5249168961526725	0.921774190062097	-0.0671618095857427	-0.16776164696720708	0.9835371478190428	0.16137183212284267	-0.9746106909026199	-0.1552196281906196	0.9846057196312058	0.14829036039192597	0.09252862197367462
325														9.60705564078275	-1.5243890468929817	0.8954306786136175	-0.06702100466847233	-0.1677185251958717	0.9835541069200773	0.16114125635155882	-0.9746488541068568	-0.15521954351702236	0.9846530761819974	0.14808817472814415	0.09234831926471015
326														9.55679186620351	-1.5307599821038842	0.8740084227814329	-0.06688660319342865	-0.1676497179387103	0.9835749866625911	0.16093286190914363	-0.9746878462788636	-0.15519090267797098	0.9846962964645383	0.14790934517920706	0.09217390811764925
327														9.589498715401117	-1.5510152985037877	0.917480052631103	-0.06668095644876143	-0.16754598864224393	0.9836066244881496	0.16075258659935096	-0.9747264049056967	-0.1551355584037208	0.9847396894350795	0.1477727216691537	0.09192914000356073
328														9.608090203426796	-1.5220271726462289	0.8883202755556036	-0.06639968319629419	-0.16738311258636085	0.9836533818842557	0.16042666103107095	-0.9747943008428736	-0.15504630751706086	0.9848118442128189	0.14750920196772402	0.09157874662273768
329														9.634725335530401	-1.5649827719314822	0.8331411300584362	-0.06620653040268376	-0.16721595196187627	0.9836948311044038	0.1602051837085921	-0.9748492365693867	-0.15492987146764078	0.9848609010641727	0.14733564188466727	0.0913302479220236
330														9.601689521826213	-1.5185627112386182	0.8100426906552229	-0.06605336008528101	-0.1670823150726372	0.9837278351309433	0.16000683294432883	-0.9748963283470164	-0.15483850421207318	0.984903430308053	0.1471755719046967	0.09112949029790302
331														9.64209909766334	-1.437971367917721	0.8293487449755583	-0.06594017041301908	-0.16694041621491568	0.98375951906952	0.1598723117139879	-0.9749360888987784	-0.15472707103147612	0.9849328595762902	0.14707317905296227	0.09097660210256159
332														9.642423723710111	-1.436792951085733	0.8276150142975549	-0.065816753047228	-0.16683914184466198	0.9837849641902736	0.15973506069524546	-0.9749696038828839	-0.15465762796945953	0.9849633827726834	0.14696588805906718	0.0908193940962132
333														9.652134765456763	-1.4844292153331837	0.8493599827171547	-0.0657814837584117	-0.1667476470906124	0.9838028352186661	0.15949976621691792	-0.9750182391813333	-0.15459384800334128	0.9850038685057485	0.14674690951933614	0.09073435719303585
334														9.648838523687349	-1.4596210321738916	0.8487537086870537	-0.06569181424024312	-0.1667000150130308	0.9838168988874304	0.15931981516433855	-0.975050419872797	-0.15457643805536242	0.9850389748826319	0.14658711983164685	0.09061144663692339
335														9.625004674275985	-1.462666497422363	0.8497235492487138	-0.06557459949824979	-0.16665265626909584	0.9838327419125158	0.15912783157441354	-0.9750836744586052	-0.15456442353507452	0.9850778167835622	0.1464196706824579	0.0904597972481222
336														9.604657283914747	-1.4898936125748101	0.8502761633276427	-0.06552741851057142	-0.16661344298810057	0.9838425270534877	0.15891481347076122	-0.9751203741255827	-0.1545520560352983	0.9851153432379859	0.14621975441381296	0.09037446506768732
337														9.610761471903063	-1.513991175924227	0.8730237972192302	-0.06547141795693007	-0.1666125406425395	0.9838464081000385	0.15883612308859674	-0.9751308874739182	-0.15456661443052122	0.985131757397402	0.14615065376168318	0.09030729191011927
338														9.561734754851972	-1.49714333391909	0.9019406674535053	-0.06543407106705584	-0.16663301501390446	0.9838454251817041	0.15868878646236087	-0.9751486477480795	-0.1546058984844889	0.9851579829624768	0.14600874323980995	0.09025073685481205
339														9.5833697110374	-1.4933634924499835	0.8744419663106556	-0.06538476212175803	-0.16662569022302468	0.9838499439650242	0.15850269581250212	-0.9751762142311025	-0.154622917505989	0.985191214081028	0.1458328857137342	0.09017228588626547
340														9.59190239434661	-1.5181494314429382	0.9213306747550424	-0.06527483332107131	-0.1666604428484521	0.9838513571289437	0.15845375856251293	-0.9751754370354486	-0.15467796675717818	0.9852063756047863	0.1457983669053933	0.09006238768432184
341														9.581004572697104	-1.493552869526561	0.8481783169651856	-0.06521089005888464	-0.16673884444468923	0.9838423133668207	0.15843469488189066	-0.9751644403543474	-0.15476679788014802	0.985213675948223	0.14578227608883776	0.09000855905383448
342														9.564350151554727	-1.4984418651900646	0.9230232970237174	-0.06518699814359535	-0.1668310082043416	0.983828272603786	0.15842939272614903	-0.9751501658850097	-0.15486213706022986	0.9852161096903816	0.14577231793437564	0.08999804737097788
343														9.559305511591282	-1.4986236004346383	0.8742522604087603	-0.06516524637256393	-0.16695010794901785	0.9838095100785591	0.15848709611638304	-0.9751223653241334	-0.15497810493506456	0.9852082678448246	0.14582192599358576	0.09000352698490088
344														9.559154847014396	-1.4996891805789259	0.8740724409187272	-0.06513006362129531	-0.16711612474265167	0.9837836528748001	0.1585055270910334	-0.9750926495412391	-0.15514613334608313	0.9852076292306513	0.14583046890703405	0.08999667573902309
345														9.557917520776124	-1.4771705253940113	0.898999429326568	-0.06512961720947402	-0.16729179903456837	0.9837538243574587	0.15847432266994466	-0.9750695365620086	-0.15532317252442568	0.9852126785706984	0.145783582218739	0.09001736020914258
346														9.564711455604888	-1.5268462809299281	0.8975638231521544	-0.06504949307896901	-0.16745056766185856	0.9837321133519488	0.15849592163628773	-0.9750393857613289	-0.1554903181514369	0.9852144975967587	0.14580296157449155	0.08996604982588952
347														9.588589025764032	-1.5247015274124665	0.8944708619960334	-0.06496436837264641	-0.16762378532132438	0.9837082379631134	0.15849923846344832	-0.9750095068969229	-0.1556741881852158	0.9852195807272862	0.14580373127999705	0.08990911909467447
348														9.58594362473567	-1.5258304012041939	0.8695766792389079	-0.06489923143076487	-0.16778495136673424	0.983685061315134	0.15851974993704057	-0.9749794258660183	-0.15584161195864127	0.9852205735974022	0.14581950909543012	0.08987264393336619
349														9.585793503294218	-1.5270494585404204	0.869091495754708	-0.06482032410026595	-0.16791670028718841	0.9836677830183316	0.1584723398018012	-0.9749637084266354	-0.1559880917529464	0.9852333952426091	0.1457729364993575	0.08980761595252018
350														9.61814931768184	-1.5492641664241409	0.9141736041660703	-0.06476261090129931	-0.16804692846425567	0.9836493450732208	0.158519135138264	-0.9749347683928392	-0.1561213668074225	0.9852296625783573	0.14581641612839863	0.08977797482236938
351														9.585556132112094	-1.529020889576386	0.8682429773619776	-0.06467592846736586	-0.16817237419213274	0.9836336090412251	0.15852400939810926	-0.974912090641191	-0.15625797248771203	0.9852345724350281	0.14582341403287638	0.08971270366321576
352														9.569829572692688	-1.5583129625785546	0.9181864599587081	-0.06461076133647903	-0.16833352223532919	0.9836103267104147	0.1585444291777023	-0.9748819213594169	-0.1564253923865579	0.9852355624398855	0.14583917408714298	0.08967620534647369
353														9.591268910296092	-1.5556793386175247	0.8906883479077552	-0.06449217486925746	-0.16845919726501357	0.9835965932420981	0.1586125727651218	-0.9748490431299723	-0.1565611537687662	0.9852323640347301	0.14591381691055014	0.08958988164481746
354														9.558726265192973	-1.5355644179080847	0.843908575346368	-0.06434986846264495	-0.16858199284519773	0.9835848748924427	0.15854520835010097	-0.9748361072264456	-0.1567098623469914	0.9852525114599118	0.14585840989100224	0.08945844245237572
355														9.589656118825896	-1.5814113670176368	0.8388097635626064	-0.06417662744761848	-0.16870065219166472	0.9835758488492675	0.1584974860420231	-0.9748201692391785	-0.15685721074550177	0.9852714891885429	0.14582773259777113	0.08929930009571568
356														9.586181235616348	-1.5581585457635412	0.8378403738085001	-0.06400815593804476	-0.1687894573242302	0.9835715912274019	0.15841376403800886	-0.9748144128955798	-0.15697751359464435	0.9852959125748577	0.145763436798254	0.08913464621593803
357														9.61371557299398	-1.5795041601029158	0.8330945226277668	-0.0638470248977826	-0.1688499252752544	0.9835716853113672	0.1583216445204238	-0.9748145793706138	-0.1570693882424005	0.9853211731654052	0.14569227358042838	0.08897160856652608
358														9.586289592411822	-1.5592493085002432	0.834564899640731	-0.06370476653806811	-0.16888105296009798	0.9835755653082375	0.15824475895405526	-0.9748176147413636	-0.15712801867754705	0.9853427317354625	0.14563587449885834	0.08882507008187279
359														9.61386031223773	-1.580155111996077	0.830184653254145	-0.06359966458262434	-0.1689256998944693	0.9835747000508613	0.15815865873070598	-0.9748207217572087	-0.15719541692193012	0.9853633448294504	0.14556327953134013	0.08871533305240531
360														9.610426510547944	-1.5563011275843277	0.8299234040004341	-0.0635334421230695	-0.16898202188373476	0.9835693051392361	0.15812300357978734	-0.9748154213016149	-0.1572641412765849	0.9853733391313676	0.14553340053967023	0.08865332400118325
361														9.582936704426592	-1.535868424855743	0.8325060524912715	-0.06353118040808342	-0.1690184314389926	0.9835631951988946	0.15805257358795527	-0.974819944927064	-0.1573068941738428	0.9853847842838757	0.14546080161438396	0.08864525985929134
362														9.5889384326586	-1.560322359670632	0.855781415509092	-0.06350124330635071	-0.16903552822281057	0.9835621903555376	0.15799463628903013	-0.9748250545503444	-0.1573334291395662	0.9853960051687061	0.14540668216885091	0.08860930977161502
363														9.610555794716078	-1.5563004059104568	0.8284263136823207	-0.06346709438285564	-0.1689965936355429	0.9835710850112366	0.1579013654830573	-0.9748442354844981	-0.1573082175896444	0.9854131553359656	0.14532332187996574	0.08855532399911487
364														9.58820233458735	-1.5359215703099662	0.8792912542022344	-0.06340850571942358	-0.1689945717995098	0.98357521120895	0.15782884653128484	-0.9748538695362962	-0.1573212898901946	0.9854285446469644	0.1452610331520839	0.08848624549925954
365														9.608265325926148	-1.5553491417509662	0.802782232805467	-0.06341327566932192	-0.1689604717786128	0.9835807620349407	0.15777047583464088	-0.974868038374895	-0.15729203638453737	0.9854375847428375	0.14520560158420964	0.08847654968843549
366														9.55934260733075	-1.5381856788945405	0.8320703659838518	-0.06335461946965854	-0.16897215334738902	0.9835825352175592	0.15772956230015373	-0.9748708159866215	-0.15731585207530968	0.9854479069785763	0.14517335682116483	0.08841447336730596
367														9.58507952828291	-1.5108122812931615	0.8778668195645064	-0.06323742437199875	-0.16896384535337888	0.9835915041937867	0.15772407968966273	-0.9748701909740253	-0.1573252218695948	0.9854563119919854	0.14518722296974956	0.08829794698342408
368														9.587113166789536	-1.5584187264258968	0.8266180091875539	-0.06310666242538204	-0.1689855106270531	0.9835961805312395	0.1575697276218064	-0.9748863743303351	-0.15737959868497367	0.9854893860893269	0.1450532810493018	0.08814882620950576
369														9.612212182002372	-1.5786986885010077	0.797924393052208	-0.06300885185702693	-0.16899792742891573	0.983600317767532	0.15761766759952173	-0.974875025526925	-0.1574018915526867	0.9854879783377094	0.14511507546980779	0.08806281521304032
370														9.635408703852006	-1.5510139285851494	0.81977406473713	-0.06300006583035528	-0.16900081682192108	0.9836003841087574	0.1576017659660981	-0.9748766975373268	-0.1574074584099608	0.985491083201537	0.1451004772984561	0.08805212330217876
371														9.611432972866377	-1.5542036478297756	0.8221623707621295	-0.06302186883513639	-0.16899033185084317	0.9836007888312563	0.1575134965219524	-0.974891881396718	-0.1574017725446483	0.98550380134323	0.14501064556683488	0.08805776632605467
372														9.570990283341295	-1.5618656884954778	0.8998689500123083	-0.0630117930912581	-0.16900750825284155	0.98359848316556	0.15751425421086845	-0.9748887838044997	-0.1574201986168782	0.9855043245221293	0.14501145253513312	0.08805058195056098
373														9.590032668764842	-1.5574604411085151	0.8487039246424518	-0.06299790987161485	-0.16900202345850296	0.9836003148732411	0.1575127841354816	-0.9748895509797184	-0.1574169184822634	0.9855054470603888	0.14501268722940758	0.08803598330687817
374														9.591670685698473	-1.5336032895472307	0.8978495122699641	-0.06300281416675058	-0.16902161517843592	0.9835966343016544	0.15751248025391354	-0.9748865755116223	-0.15743564860438125	0.9855051821128746	0.1450098565260115	0.08804361157389651
375														9.58413186000145	-1.5324931946697442	0.8249334067740134	-0.06297805844864901	-0.16904094587017912	0.9835948976958724	0.15755449271611446	-0.9748767152866331	-0.15745466591026316	0.985500048695588	0.14505360599192266	0.08802900323037677
376														9.60823903129518	-1.528746233512627	0.8220404642138405	-0.06290802647658023	-0.16904849183217158	0.9835980823558425	0.15755949849408196	-0.9748731201699655	-0.157471914970162	0.9855037212710643	0.1450689731794665	0.08796253964921641
377														9.613369820826533	-1.52932316565353	0.8698059180000896	-0.0628067749023683	-0.16909178569582847	0.9835971111367499	0.1575793610386629	-0.9748608766792608	-0.15752782641422464	0.9855070035271238	0.14510078955794614	0.08787324318955492
378														9.614399665243708	-1.5530435450520481	0.8441099517272654	-0.06275429877924632	-0.1690731720791376	0.9836036602554015	0.15754995610187425	-0.9748669494935538	-0.15751965628908154	0.9855150477374877	0.14508167792051213	0.08781456265760368
379														9.611953799632728	-1.552555939530828	0.8191812779312739	-0.06268226274840111	-0.16909940756728448	0.9836037435355426	0.15749982198113843	-0.9748684285529704	-0.15756063304827048	0.9855276454837022	0.1450411575072932	0.0877400855726414
380														9.612028490678316	-1.5524081773399356	0.8185846945834684	-0.06263090933985554	-0.16909389499957359	0.9836079624876651	0.15751693609119163	-0.9748655819141084	-0.1575611374791069	0.9855281751627937	0.1450667152490183	0.08769187013146656
381														9.588075771846313	-1.555600584228547	0.8207403724441549	-0.06262125271700292	-0.16909866608819926	0.9836077571040933	0.15754824355693378	-0.9748599810356711	-0.1575644894233984	0.9855237844214002	0.14509878876931687	0.0876881510661437
382														9.571694198127213	-1.5597398251440406	0.8960610560460843	-0.06262976342532417	-0.16911649433357032	0.9836041500916977	0.1575927140462732	-0.9748507774182031	-0.15757695975825223	0.9855161334107205	0.14513983984918735	0.08770620089671394
383														9.563192764518998	-1.5348014092523306	0.8480089233031521	-0.06260939424063466	-0.16911559119517636	0.9836056021432205	0.15755730306234492	-0.9748556560603642	-0.15758218839335109	0.9855230895339497	0.14510812059227834	0.08768051855250197
384														9.587314393153443	-1.531108350570031	0.8448355259165689	-0.06250938169344461	-0.16911830957379356	0.9836114957477904	0.15756438971578365	-0.9748518175159686	-0.1575988482803888	0.9855283051712902	0.14513073848332367	0.08758440759341374
385														9.595988920650573	-1.5555460397221441	0.8919436371605743	-0.06247522529676924	-0.16909503010830568	0.9836176681093063	0.1575488080950463	-0.9748570359116678	-0.15758214556651995	0.9855329620524869	0.1451228111848334	0.0875451333990816
386														9.591026419221762	-1.5545899339709919	0.8427160645344118	-0.06240648112927516	-0.16908828575535403	0.9836231914373401	0.1575370972944409	-0.9748582191084565	-0.15758653372903345	0.9855391895247516	0.14512272136714385	0.08747514877890206
387														9.572203464709002	-1.5583854893085247	0.8929720699948328	-0.062318825640110764	-0.16909188614934673	0.9836281299400167	0.15761237885251533	-0.9748444849059462	-0.1575962191199788	0.9855326996113773	0.1452107581652184	0.0874021379017344
388														9.592886186345021	-1.5303033048393626	0.8904638086815404	-0.06226877571527262	-0.16907208251477251	0.9836347037823744	0.15761281018852719	-0.9748464126168686	-0.15758386298253282	0.985535794192883	0.14522087564169392	0.08735041867365773
389														9.563879504539036	-1.5328167634399803	0.8438435654782939	-0.06224632791846901	-0.16904960523238177	0.9836399878163975	0.1575574059108794	-0.9748576461504039	-0.15756977370272687	0.9855460712231068	0.1451716250266217	0.08731632598677713
390														9.570028176250862	-1.5567793362010514	0.8669805117938704	-0.06221255804997561	-0.16901792964818455	0.9836475675150732	0.15754009731213384	-0.9748644725936253	-0.1575448438179961	0.9855509704524482	0.1451626657656669	0.08727591367636012
391														9.54868975208216	-1.5600637201973055	0.8931484904085404	-0.062147428345692146	-0.16898941913130672	0.9836565830469904	0.15747207469357705	-0.9748775198151287	-0.15753211434753192	0.9855659505287903	0.1451082271298458	0.08719724524040612
392														9.54886248629682	-1.559620464611347	0.8920753123508391	-0.062017588761589026	-0.16895994496852687	0.9836698407903088	0.15741808354893497	-0.9748871272629083	-0.15752662019117739	0.9855827543418054	0.14507800003207685	0.08705749968103693
393														9.57061182730946	-1.555134420239207	0.8634830855931329	-0.061835440488315074	-0.16885483701501308	0.9836993556550953	0.15730388094590636	-0.9749164700288745	-0.15745909153108592	0.9856124326219573	0.1450031740448193	0.08684591054249874
394														9.589837038485465	-1.5501505536816296	0.8104098371949685	-0.0616794610090689	-0.16877770821347512	0.9837223842628764	0.1572020129055192	-0.9749401253371107	-0.15741435495567832	0.9856384586794917	0.14493390637758427	0.08666597691164563
395														9.611583373589541	-1.545521170165056	0.7817688489135449	-0.06152285004539548	-0.16868437720292817	0.9837481993934989	0.15707536332470062	-0.9749699910601586	-0.15735579674281713	0.9856684377409597	0.14484162875297185	0.08647909239510554
396														9.568950632197726	-1.5523150563297652	0.8336445710147836	-0.061402974629302554	-0.16859539400546306	0.9837709427640237	0.15701441762097743	-0.9749903592794351	-0.1572904064820967	0.9856856229882925	0.1448081228118802	0.08633921589799676
397														9.569237348752601	-1.5512794530434093	0.8322800733861703	-0.06127836605317388	-0.16852432874510415	0.9837908885910993	0.1570377963284484	-0.9749953574456922	-0.15723607564312753	0.9856896531759667	0.14485718339232823	0.08621081162756444
398														9.592621020168982	-1.522790166590265	0.8535598416696808	-0.06120470927946309	-0.1684283209729609	0.9838119150814578	0.1569570260013996	-0.975020836337722	-0.15715871180461158	0.9857070941972631	0.14479733906919093	0.08611187518379437
399														9.569768011238402	-1.5491173404864091	0.8302030327545665	-0.06115334752966406	-0.168355674280128	0.9838275433345014	0.15691041435122777	-0.9750380803836144	-0.15709826119331488	0.9857177029728352	0.14476570291170637	0.08604360119403098
400														9.57259990847136	-1.5483574791037453	0.8535670208394887	-0.061079677081513906	-0.1682596781243479	0.9838485420861836	0.1568296714755083	-0.9750635339368686	-0.1570208869272788	0.9857351201983737	0.14470585856846288	0.08594467582964
401														9.619265457024088	-1.5637544814634254	0.7980043961371017	-0.0609337326012398	-0.168161513349865	0.9838743749377578	0.15671639476264648	-0.975092403977079	-0.15695469192986686	0.9857621679917924	0.14462540971103324	0.08576968591546086
402														9.616054447337575	-1.5385666289316693	0.7971534396254281	-0.06081506396284703	-0.1680582848048993	0.9838993550682051	0.15663885179189432	-0.9751174658363664	-0.1568763778590636	0.985781820741543	0.1445764183029103	0.08562628782208254
403														9.61892622167143	-1.537885572612343	0.8199471318870514	-0.06069418728100112	-0.16797169365099904	0.9839216054962476	0.1565867776256429	-0.9751360801011419	-0.1568126473145469	0.9857975434657544	0.1445514974567678	0.08548723811125164
404														9.622687115234319	-1.5612434350761588	0.8178151219507648	-0.06057049420907279	-0.16791189853131303	0.9839394338895451	0.15654429053251104	-0.9751489482457717	-0.15677504213629712	0.9858118990623623	0.14453415882335569	0.08535090275025536
405														9.637339858509538	-1.5082392069818382	0.7909481016844708	-0.060482276171448524	-0.16780359647852208	0.9839633363484612	0.156385294653801	-0.97518744041482	-0.15669427453878712	0.9858425502508834	0.14440016989625146	0.08522357096935829
406														9.641090333691029	-1.5315742858195258	0.788943687393086	-0.06038733793156509	-0.16774923782402978	0.9839784360579231	0.1563257123870897	-0.9752026079680578	-0.15665932803049945	0.9858578199031582	0.14436089020837953	0.08511340854434352
407														9.6198746251206	-1.534624425033622	0.8149152802582686	-0.06035522135679605	-0.16768273048906202	0.9839917424199778	0.15630200735367922	-0.9752159169785197	-0.15660012059048478	0.9858635451989193	0.14434824961694737	0.08506851991389586
408														9.596036520149356	-1.5374704830366372	0.8166857839108831	-0.06026022053436392	-0.1676556975356459	0.9840021711891622	0.1563056304431764	-0.975217474716602	-0.15658680308102096	0.985868782198174	0.1443691244387431	0.08497234959608752
409														9.617634893541833	-1.5328544718446808	0.7890501041776156	-0.06021682910376974	-0.16757418819077285	0.9840187116843313	0.1562371837202315	-0.9752394531245628	-0.1565182145709383	0.9858822829911582	0.144315281663125	0.0849071467111861
410														9.57500514225644	-1.539769169740582	0.8420474228974009	-0.06017176304276439	-0.16752461805084892	0.9840299087320681	0.15623411620111813	-0.9752467365138375	-0.15647588904992626	0.9858855206702148	0.14432361298840357	0.08485537618084416
411														9.593057127216797	-1.5110168918366937	0.8153036352581116	-0.06013609448440976	-0.1674985540711027	0.984036526011231	0.15627624751418823	-0.9752438817055271	-0.15645160804165714	0.9858810194962911	0.14437314701850212	0.08482340370987035
412														9.596755559358947	-1.534462037456265	0.8138900605666974	-0.060074825928581266	-0.16744719336810276	0.9840490093093921	0.15625936285804465	-0.9752530927084335	-0.15641105038274467	0.9858874311040022	0.1443705045907257	0.08475335152883723
413														9.590798991022297	-1.5092308820488207	0.7895764537573879	-0.06005272745089635	-0.1673944064509145	0.9840593389702954	0.15624080180692665	-0.9752636853479548	-0.15636353760469335	0.9858917190931453	0.14436016323928053	0.08472108057084288
414														9.64513819560766	-1.525855310011831	0.80737379439651	-0.060001517329344056	-0.16736157723140693	0.9840680466231958	0.1561947220002527	-0.9752744566043512	-0.1563423906506211	0.9859021385195593	0.14432545430970745	0.08465894223799603
415														9.64264106717436	-1.5250538260928557	0.7825974103379827	-0.05997482932143988	-0.16736445969852928	0.9840691832781291	0.15622726560574754	-0.9752686132333741	-0.15634632558267314	0.9858986060083542	0.1443615934785682	0.08463846051951346
416														9.62488085718698	-1.552607336242682	0.8083864953797429	-0.05995606539056836	-0.1673352363459934	0.9840752963568956	0.15620891588783237	-0.9752755060766156	-0.15632166146810536	0.9859026548397308	0.14434890343896403	0.08461293787559104
417														9.593882527414348	-1.507559613754225	0.8119846701423874	-0.05993695870911259	-0.16736452309870695	0.9840714798167076	0.15623217346998933	-0.9752670034313838	-0.15635146302741235	0.9859001313284959	0.1443723949580096	0.08460226132050613
418														9.618907111273758	-1.527412698443772	0.7840792108606975	-0.059916986013862916	-0.16732226887590088	0.9840798814757037	0.15616731346286236	-0.9752827475577917	-0.15631804925189222	0.9859116212890517	0.14431500495217273	0.08456627195784222
419														9.573572891295484	-1.5345932106143012	0.8131340762628543	-0.05990069219094363	-0.167356538097625	0.9840750460361366	0.15614464592728391	-0.9752802421856104	-0.1563563198294866	0.9859162016232866	0.1442921978429733	0.08455178897193882
420														9.597604909861762	-1.530948547432678	0.8104841069099818	-0.059904461264086495	-0.1673768070249427	0.9840713693583382	0.15612932572185265	-0.9752793511752669	-0.1563771748714959	0.9859183988395285	0.1442747089454207	0.08455601213642311
421														9.621630354971765	-1.527314958961769	0.8078892653586945	-0.0599014571453122	-0.1674132758351286	0.9840653486969348	0.1560837707976035	-0.9752801505213005	-0.15641766042474642	0.9859257943301158	0.14422698455317312	0.08455119751505152
422														9.597628168273351	-1.5309424685473052	0.8102201300420271	-0.05987152644452376	-0.16744422103726067	0.9840619051474493	0.15605739383074638	-0.9752783934365878	-0.15645493001661345	0.9859317877784233	0.1442029408055643	0.08452231487050565
423														9.571023915677682	-1.534181777645048	0.7881914242150163	-0.05987092027007174	-0.16743826917457624	0.9840629547553539	0.15590664773063226	-0.9753013622384906	-0.15646204015396786	0.9859556734962338	0.14405443010045704	0.08449692934670044
424														9.597695016915932	-1.5309757225908023	0.8093650049099301	-0.059791075543924155	-0.16747809085890478	0.9840610328468239	0.15585532507502023	-0.9753006721900326	-0.15651746379056605	0.9859686328332465	0.14401280466655667	0.08441662846271258
425														9.596058424368065	-1.554311071927473	0.7595635969442411	-0.05976821785097347	-0.16745033248383592	0.9840671452121404	0.15576727014912148	-0.9753174139251319	-0.15650079758481736	0.9859839337865551	0.14393167908923374	0.08437626484589517
426														9.57214421712391	-1.5574558332448698	0.7617721216010507	-0.059743256695807656	-0.16743784674917989	0.98407078543943	0.15570578227909165	-0.9753277942678948	-0.15649729420465672	0.9859951585298149	0.14387585344497847	0.08434029968671036
427														9.62197507579699	-1.5264539800784958	0.8054071408779122	-0.05968557210302622	-0.1674256831705984	0.9840763553188303	0.15564029937742033	-0.9753379436514338	-0.15649917853937625	0.9860089906752583	0.1438211955472871	0.08427178661276596
428														9.596346148544074	-1.5531823440223989	0.7582362749487915	-0.059664313177601125	-0.16741134296437055	0.9840800841292903	0.15562359771768008	-0.9753421670539022	-0.15648946609917164	0.9860129134886879	0.14380924662018085	0.08424627600128798
429														9.599048478074275	-1.5530811965761513	0.782416175371115	-0.05970734492193441	-0.16739294753486553	0.9840806034456541	0.15558199544098497	-0.9753521565997385	-0.15646856972197568	0.9860168739210168	0.14376290109701176	0.08427901643467561
430														9.576783776643511	-1.5327597968530917	0.8345755209025552	-0.05977727819945694	-0.16739243096372095	0.9840764457434801	0.15557372461237465	-0.9753550656238787	-0.15645865962634345	0.9860139416972244	0.14374376514442253	0.08434593505799409
431														9.604350348902864	-1.552893918691287	0.8319500989555111	-0.05988765130271745	-0.1673691238654945	0.9840736992715235	0.15545092886801196	-0.9753792205224752	-0.15643012781124038	0.986026611170062	0.1436069376787399	0.0844308564152828
432														9.552739687741854	-1.5358252809402724	0.8384551054520397	-0.059962681202560875	-0.16743053299639654	0.98405868396328	0.15544845004856456	-0.9753715554049249	-0.15648037667540424	0.9860224420572278	0.1435874142378782	0.08451271047588627
433														9.55362791558931	-1.559509540731982	0.8141212073061271	-0.060039078254238876	-0.16744675562349864	0.9840512654905464	0.15550004845253734	-0.9753632301271536	-0.1564810028316022	0.9860096571604358	0.14362504428925232	0.08459788791258555
434														9.576719194556754	-1.5318943129056868	0.8369024080371305	-0.06005539156022932	-0.16748428162962234	0.9840438838545548	0.15548526605362853	-0.9753597931129173	-0.15651711094624476	0.9860109948599861	0.1436046287058188	0.08461695237648315
435														9.600774857386856	-1.5281646023579847	0.8341092122683028	-0.0599854912581701	-0.16750193391896268	0.9840451427510446	0.15552483974066805	-0.9753496009925962	-0.15654130466820274	0.9860090086110551	0.14365325606122195	0.08455753639299968
436														9.59914688616885	-1.551522576368807	0.784298868597499	-0.059940596220379394	-0.16753046474670522	0.9840430215729896	0.15549946790014715	-0.9753477174164431	-0.15657824118729313	0.9860157404461236	0.14363277311354816	0.08451382182930467
437														9.619674777979306	-1.523741119102821	0.7818017324256505	-0.05986846140710683	-0.16753799599111846	0.9840461306402383	0.15543857186066717	-0.9753537163001622	-0.1566013361289686	0.9860297245553306	0.14358324414339568	0.08443479315185215
438														9.626872335749368	-1.5717814521311022	0.7795473054821428	-0.059799780519764534	-0.167517674838811	0.9840537662477523	0.15539523892460946	-0.9753616681004446	-0.15659481511174442	0.9860407222672657	0.14355293454651588	0.08435786278547008
439														9.598531554076382	-1.5270305469419443	0.8068938927675707	-0.05973373132204035	-0.16748193338602774	0.98406386140922	0.15529033997017655	-0.9753810925639106	-0.15657788662764258	0.9860612514718815	0.14346263017981395	0.08427147849418953
440														9.599576021300225	-1.5502993560018803	0.7814602358154183	-0.05976119186897866	-0.16744565065999015	0.9840683685707269	0.15525196997798743	-0.9753930821809775	-0.15654124393094335	0.9860656295421485	0.1434234614996638	0.0842869202611013
441														9.626278836989812	-1.5466113195925646	0.8032178563287491	-0.059773457967781496	-0.16746628327181137	0.984064112591095	0.15525435782374267	-0.975389736348276	-0.156559722161155	0.9860645101104243	0.14342212588567427	0.08430228767431319
442														9.62277620295713	-1.522174511355775	0.8039338638175991	-0.059783462245643515	-0.16745613256577918	0.9840652322422715	0.15525039726816697	-0.9753921587555285	-0.15654855727954167	0.9860645271938343	0.14341750347967222	0.0843099514034859
443														9.596171983643716	-1.5251574497888667	0.7823573067553673	-0.059783253303259065	-0.16749655159689825	0.9840583660675957	0.15526260613893805	-0.9753839473279382	-0.1565876062462004	0.9860626175651441	0.14342614998011247	0.08431757671125828
444														9.597883160543034	-1.5014688680337527	0.8319027748076705	-0.059820741425177126	-0.1675061076778664	0.9840544612906101	0.15525819660716256	-0.9753839357058134	-0.15659205073479712	0.9860610383143802	0.14341506844696847	0.08435488640687983
445														9.598836889865893	-1.525051199914056	0.8070050493515732	-0.05981822983036794	-0.16751729521021594	0.9840527095564623	0.15523794512195307	-0.9753850424441679	-0.15660523417339095	0.9860643791225171	0.1433944726328128	0.08435084732284998
446														9.622878574092915	-1.5213657298095813	0.8042393980520939	-0.05978956673832492	-0.16754762116883232	0.9840492885775127	0.15522638163363822	-0.9753812338454231	-0.15664041339037707	0.9860679378999053	0.14338494796472043	0.08432543236167211
447														9.621219006612469	-1.5446909499957917	0.7547652054255327	-0.05981090621875301	-0.16755036393285588	0.9840475247889496	0.15525376568581278	-0.9753773089526155	-0.1566377139156733	0.9860623325823098	0.1434084402199575	0.08435102569626879
448														9.64340356731323	-1.493376528752806	0.802060401695196	-0.059796019693690194	-0.16759736291789193	0.984040425984502	0.1552577929921011	-0.9753688962158661	-0.1566861002446133	0.9860626013311801	0.14341073961740639	0.0843439744046649
449														9.620299049387071	-1.5208191670615845	0.7798070316405817	-0.0598512243843497	-0.16763255419130432	0.9840310755839948	0.1552248141128443	-0.9753693662146996	-0.15671584646604347	0.9860644441532852	0.14336640549736535	0.08439778285854344
450														9.598904268864594	-1.5246230640411402	0.8070125805132472	-0.059897520398152215	-0.16764759874660007	0.9840256956424727	0.15514463045859295	-0.9753796962922244	-0.1567309532311824	0.9860742521179731	0.14327850744402465	0.08443245000941879
451														9.554461645221492	-1.5557985316034368	0.8114328435525584	-0.05988378637398678	-0.16767038220543273	0.9840226496684914	0.1551024350421893	-0.9753818794549667	-0.15675912692688823	0.9860817241859308	0.14323697903118773	0.08441564466685608
452														9.599904243130622	-1.5481270579994821	0.7817346717767588	-0.0598514064822841	-0.16768892203600613	0.9840214604207039	0.15501447681852007	-0.9753909494314813	-0.15678969272192067	0.9860975210995985	0.14315348823397933	0.08437273071123769
453														9.602594323985848	-1.5482690957699154	0.8056153108402178	-0.0598498850050207	-0.1676684750303621	0.9840250371539734	0.1549031290739966	-0.9754103303699297	-0.1567791695688851	0.9861151108607811	0.1430453420724258	0.08435056753461795
454														9.599090868516752	-1.5238024435383526	0.806342713486036	-0.05988739722884834	-0.16767802544311705	0.9840211275357108	0.15489870479021778	-0.9754103174368911	-0.15678362124908457	0.9861135284070831	0.14303423513677005	0.08438789410438013
455														9.596485025113962	-1.5231539681670834	0.782420672018105	-0.05997884168387868	-0.16766426395535763	0.9840179028567358	0.15475847163595166	-0.9754349516671523	-0.15676884423572376	0.9861299883925875	0.14288229301914365	0.08445292377666391
456														9.600073636703051	-1.5468565333338187	0.7821694359875907	-0.060050054334983005	-0.1676494398191049	0.9840160853881943	0.15473346436532154	-0.9754425796362238	-0.1567460648250378	0.9861295786963655	0.14284760817377903	0.08451635852992678
457														9.581351132331266	-1.5505490572110434	0.833922991208076	-0.06016325811652018	-0.1676269617922193	0.9840129999411158	0.15469406330100205	-0.9754544775711687	-0.1567109088920856	0.9861288603180773	0.1427927304405509	0.08461741535346984
458														9.574262775513054	-1.5016976698584918	0.8360513733054435	-0.060244497531350694	-0.16761699075469355	0.9840097280654986	0.15460821576049455	-0.9754703647295282	-0.1566967362576458	0.9861373637260439	0.14269587220653168	0.08468168585158026
459														9.581396199326676	-1.5497299883727809	0.8349270631859865	-0.060278419304678144	-0.1676392527923505	0.9840038582695453	0.15449890869356744	-0.9754834111569098	-0.1567233287362655	0.9861524219808141	0.14258048772851506	0.08470067969309725
460														9.596622204672403	-1.5211378438738266	0.7846571598750228	-0.06029724523199942	-0.16764822640033092	0.9840011760167032	0.15445073959693675	-0.9754893784633285	-0.15673366435832395	0.9861588164466161	0.14252910120411164	0.08471271483405984
461														9.557458750652572	-1.5529046359982235	0.8374569839886498	-0.06026734975072762	-0.1676350528167036	0.9840052518260075	0.15437734083966692	-0.9755013944412658	-0.15673119050916218	0.9861721366928274	0.14246234067390223	0.08466993740647405
462														9.6055751351209	-1.545279705137548	0.8319874141420203	-0.060227415804300244	-0.16762017153474493	0.984010231898124	0.15431683299060842	-0.9755115853125458	-0.15672734916648562	0.9861840464341763	0.14241005939071688	0.08461915588711522
463														9.605665353687863	-1.5449878359480442	0.8314876912587768	-0.06020361385809808	-0.16762727543971537	0.9840104783014676	0.15426470667493272	-0.9755174324079274	-0.1567422704401776	0.9861936549952661	0.1423616366754141	0.08458864728895604
464														9.580002301862852	-1.5717913094658125	0.7849868764775455	-0.06030236280981127	-0.16764575997552483	0.9840012826220212	0.15427081996029385	-0.9755158761263347	-0.1567459394505924	0.9861866654687301	0.1423505342023657	0.0846887611431919
465														9.578120683785166	-1.5238328071550955	0.8355801122332289	-0.06035269426860412	-0.16763417203696734	0.984000171067059	0.15418237098087273	-0.9755316416223094	-0.1567348483024723	0.9861974187622058	0.1422561090398683	0.0847221970182559
466														9.58268166816811	-1.571369783776735	0.8100545779807506	-0.06037648706863846	-0.167640685473473	0.9839976018178274	0.1541939309987403	-0.9755294832747416	-0.1567369098357882	0.9861941550487952	0.14226323430774507	0.08474821952049122
467														9.605806431720698	-1.5435807166710025	0.8324706920268222	-0.060346205856437074	-0.16762409840709075	0.9840022850948786	0.15416276153913205	-0.9755359255046061	-0.15672747367484932	0.9862008813590473	0.14223860124130103	0.08471128569179515
468														9.578305470159915	-1.5227183935031507	0.8354934952657487	-0.0603362721167065	-0.1676276686649998	0.9840022860567936	0.15413167044065587	-0.9755396124111714	-0.15673510386583664	0.9862063488105479	0.1422091041902683	0.08469715609847611
469														9.60238539971235	-1.5187427405135263	0.8327773984428452	-0.060334652958556556	-0.16761482966175814	0.9840045724130714	0.1541124937764771	-0.9755443852541921	-0.1567242535825801	0.9862094447501336	0.1421914950919406	0.08469067132307306
470														9.557050421399897	-1.525990006416422	0.8620502902916236	-0.06034220433980492	-0.16761956313713586	0.9840033030580384	0.1541101837475077	-0.9755441377982482	-0.1567280653641292	0.9862093437200459	0.14218761289644416	0.0846983653802616
471														9.5748968920105	-1.4976487333593846	0.8360521657481197	-0.06037505998178877	-0.16764031466881396	0.9839977525532954	0.15410109936364896	-0.9755428965583337	-0.15674472287605315	0.9862087523983499	0.14217166339435208	0.08473201768264965
