// Start Time: 1748432634.6645443
// Update Rate: 100Hz 
// Filter Profile: 46.1 human
// Option Flags: AHS Disabled ICC Disabled 
// Firmware Version: 4.0.2 
PacketCounter	SampleTimeFine	Year	Month	Day	Second	UTC_Nano	UTC_Year	UTC_Month	UTC_Day	UTC_Hour	UTC_Minute	UTC_Second	UTC_Valid	Acc_X	Acc_Y	Acc_Z	Mat[1][1]	Mat[2][1]	Mat[3][1]	Mat[1][2]	Mat[2][2]	Mat[3][2]	Mat[1][3]	Mat[2][3]	Mat[3][3]
0														8.666254163737344	3.8963706397032185	2.093468116845798	0.09803585202865017	0.45313458499774506	0.8860349990807015	-0.6363689828765757	-0.6559665279177052	0.40588475197304946	0.765129720602755	-0.6036364486431488	0.2240525574945267
1														8.66237657998211	3.865386215369263	2.066705951110238	0.09724680195386948	0.45312846105448895	0.8861250799363117	-0.6363068327210768	-0.6563032244237172	0.40543765518696306	0.765282087953335	-0.6032749583675935	0.22450534618213863
2														8.731512625354219	3.88526559522655	2.0610688885728905	0.09653998621283139	0.45315740925380354	0.8861875611293621	-0.6360622278350079	-0.6567373644854121	0.40511834864681395	0.7655748646498217	-0.6027805542045428	0.22483489517704178
3														8.701923551844157	3.909880343177374	2.101523260454998	0.09593433682575464	0.4531995221227473	0.8862317959571951	-0.6359303621352798	-0.6570397244477536	0.4048349972669254	0.7657605223124878	-0.6024192839255174	0.22517066598998262
4														8.683041379040015	3.9312362815715782	2.08783566825788	0.0953612769572591	0.45322846636242853	0.8862788410742085	-0.6355648405835349	-0.6575195961580839	0.40462984823432935	0.7661354712262755	-0.6018736893625369	0.22535416965750066
5														8.649586426957217	4.003071438622617	2.088921510663425	0.0948528286416041	0.4532002997111798	0.8863478037657587	-0.6351423206703865	-0.658046318153884	0.4044369860158116	0.7665488721484907	-0.6013189931357686	0.22542913543298448
6														8.65443934305338	4.052594976004416	2.121452636259673	0.09446674085513668	0.45318937496741746	0.8863946216493249	-0.634951995403173	-0.6583386522816919	0.404260043097824	0.7667541968621608	-0.601007162460288	0.22556239107106396
7														8.597282688538751	4.072484602603997	2.0764701500633427	0.09418734870493961	0.4530987218922808	0.8864706941368761	-0.6349767479647432	-0.6584604205411982	0.4040227767401564	0.7667680698151509	-0.6009421126866455	0.2256885116962272
8														8.654928321336762	4.024921303968483	2.1267601783800623	0.09403304888955932	0.4530247031024671	0.8865249032573511	-0.6350947412173064	-0.6584567699265662	0.403843226779893	0.7666892821702002	-0.6010019139044358	0.22579690894374232
9														8.631616930968887	3.9710232932697855	2.082597525125023	0.0939174624689526	0.4528580934086175	0.8866222744087273	-0.6353517449789337	-0.6583723830522012	0.40357646783031037	0.7664904894358553	-0.6012198869535814	0.22589151629909807
10														8.65151254148408	3.969953789277158	2.098613362771608	0.09385874748974654	0.4526811820699662	0.8867188296858219	-0.6355021529607202	-0.6583558451560912	0.40336657612040394	0.7663729830193291	-0.6013712069500388	0.22588741078136307
11														8.636417622194543	3.896851476462433	2.1235504487531585	0.0938338072898548	0.4525317218265644	0.8867977544796651	-0.6355940390001368	-0.6583606075118733	0.40321399785236994	0.7662998330921026	-0.6014784711170328	0.22584998247893143
12														8.63706729440345	3.920259001582345	2.1217510771608494	0.09387257797002535	0.45238555260069924	0.8868682263467453	-0.6355870978265403	-0.658418672054832	0.4031301196462352	0.7663008418249961	-0.6015248657268559	0.2257229623467463
13														8.622387445721223	3.921356271181097	2.140161791223563	0.09396220689283213	0.4522499239351824	0.886927905737806	-0.6355576106304158	-0.6584714858754805	0.4030903445366727	0.7663143136113181	-0.6015690389220165	0.22555944707516934
14														8.642442501534555	3.97074483314598	2.150462926443942	0.09409820913008765	0.4520677156806063	0.8870063739781293	-0.6355252360354899	-0.658531183613729	0.4030438618442613	0.7663244752717644	-0.6016406407878541	0.22533383667757326
15														8.623965879774385	3.993948139108337	2.1319765347407005	0.09428421346989035	0.45183272128134205	0.8871063516117227	-0.6356037029990359	-0.6585099673485696	0.40295478113120753	0.7662365299463852	-0.6018403566412633	0.22509945644900914
16														8.673920933348231	3.9914817431327076	2.106706398982256	0.0944745517870908	0.45159395820133097	0.88720767353573	-0.6356246189955607	-0.6585340658464623	0.4028823995243216	0.7661957339945037	-0.6019931735790542	0.2248295269150431
17														8.67897255877118	4.0178589574024235	2.137251675866443	0.09471075199023882	0.4513620054928474	0.8873005203734071	-0.6357531990397804	-0.6584540397369287	0.4028103120139866	0.7660598823643813	-0.6022546118973227	0.22459216166259352
18														8.698742642301573	4.018540449341197	2.150515451500138	0.09492164114448803	0.45116395443838575	0.8873787062229717	-0.6358060442623769	-0.6584271137101538	0.4027709150506582	0.765989919073264	-0.6024324212281691	0.22435378697784508
19														8.67370437174141	4.047963546610994	2.2196079320541133	0.09517557532736598	0.4509037253970377	0.8874837690257652	-0.6359514600267308	-0.6583401409628514	0.4026834976589955	0.7658376788530153	-0.6027222322264922	0.22409498082049964
20														8.723977930940071	4.069470192369325	2.192820511240891	0.09545748934967363	0.45061981625155223	0.887597684161284	-0.636210619646858	-0.6581641713114168	0.4025617605418045	0.7655873008191934	-0.6031266076068719	0.22386241314925698
21														8.758647943700813	4.019105056500906	2.190722208492422	0.09576056330099408	0.4503234290930111	0.8877154520037309	-0.6367029488322806	-0.657802046195618	0.40237522658475927	0.7651400325852482	-0.603742724370878	0.2237307607475456
22														8.758337616441295	3.8963060024409546	2.1981745002301447	0.09603161308878466	0.4500717323993498	0.8878138121152506	-0.6370039909235466	-0.657581464689779	0.40225928559067275	0.7648554404820818	-0.6041705495896771	0.2235488809488152
23														8.758724203405327	3.8713958467079825	2.1984820874186206	0.0962936775126827	0.4498418100000412	0.8879019504691779	-0.6371772698052731	-0.657454884090038	0.40219174808746755	0.764678137855779	-0.6044794631433243	0.22332022775238433
24														8.744595052442005	3.921645580042998	2.2123897672055657	0.09654077712835063	0.449657538488564	0.8879684546378103	-0.6371671785207249	-0.6574578409052465	0.4022029015909154	0.7646553896804716	-0.6046133355398461	0.22303553420921243
25														8.71486473487274	3.9251987243790167	2.2487430091298233	0.0967885800093799	0.44951311229349045	0.8880146016006649	-0.6371091035479778	-0.6574804253030675	0.4022579775710975	0.7646724533786085	-0.6046961652098657	0.22275229925732007
26														8.699947525815055	3.9274926246305073	2.2662505128141883	0.09698915845104078	0.44941398571697005	0.8880428889332688	-0.6370722176368313	-0.6574826428789192	0.40231276866169885	0.7646777704747594	-0.6047674294759423	0.22254047628872486
27														8.680693157233875	3.927569643675637	2.24954572740992	0.0972781967984328	0.44927833697473896	0.8880799110175043	-0.637065729261474	-0.6574456506780656	0.40238348997572115	0.7646464601554052	-0.6049084164811297	0.22226470399525974
28														8.714494295186697	3.879579762452941	2.246645211627942	0.09757778867272854	0.44918767173898705	0.8880929065787246	-0.6370138288549411	-0.6574203881981283	0.4025069130201235	0.7646515265173459	-0.6050031972966171	0.22198913094014847
29														8.695212413980103	3.9045588910483833	2.2281274751423363	0.09784656718160345	0.4491277525647148	0.8880936387380248	-0.6369313501083149	-0.6574164074863199	0.40264391516199677	0.7646858861911708	-0.6050520052391781	0.2217376071307583
30														8.699325305976435	3.9330137894489416	2.2590526042756043	0.09811498588255074	0.4491152480537929	0.8880703482893952	-0.6368632380827374	-0.6573796579516313	0.40281162010320376	0.7647082224770689	-0.6051012140766016	0.22152619528846987
31														8.694860165460497	3.9812546718703503	2.2201650712060483	0.09839378606582455	0.4490891913627692	0.8880526792171548	-0.6368355530529064	-0.6573132949119296	0.40296365927937167	0.7646954565259503	-0.6051926391928085	0.22132041983380502
32														8.713431321120721	3.9595575941878858	2.235770630748892	0.09867919987520907	0.44906957694243904	0.8880309288401658	-0.6368886134969847	-0.6571776621084365	0.4031009977953143	0.7646144842401803	-0.6053544709427926	0.22115753434982652
33														8.702225958724986	3.964974808584853	2.2885184875793194	0.09892428778332019	0.4490813539752082	0.8879977042753868	-0.6369297649584923	-0.6570516205903264	0.4032414194865728	0.7645485333165472	-0.6054825392952469	0.2210349176308963
34														8.71167576723976	3.8897044667519056	2.2400600149348504	0.0991259261603265	0.4491325609103465	0.8879493192142055	-0.6369820038779217	-0.6569144477687929	0.40338236829128865	0.7644788927750227	-0.6055933875487209	0.22097210561231426
35														8.7112244074542	3.940139199922159	2.236687252566372	0.09932059014438815	0.44923206418213335	0.8878772284972909	-0.6369312012970411	-0.6568394019478708	0.40358474309997405	0.7644959549845107	-0.6056009846090274	0.22089224126912604
36														8.710357616432354	3.9419365778081774	2.2368959849120573	0.09949255322210943	0.44931976052340844	0.8878135979227464	-0.6369673111663523	-0.6567089831939612	0.40373996073940993	0.7644435076307814	-0.6056773598175351	0.2208643462526423
37														8.709825155841713	3.9922612039383636	2.2339191929649744	0.09972107499816463	0.4493830025817066	0.8877559485533506	-0.6371933173377989	-0.6564187029334659	0.4038553735920772	0.7642253486644242	-0.6059450498434615	0.22088506746483236
38														8.713089298982624	3.947215107391317	2.272096032808501	0.09988088461091876	0.44943595568585526	0.8877111752287915	-0.6373293816920745	-0.6562290380528871	0.40394889385685945	0.7640910077479895	-0.6061111872857358	0.22089400291935815
39														8.757163746227967	3.9195719306780057	2.2169951329775666	0.09998906960986642	0.4494861058475962	0.8876736036452347	-0.6374868279098266	-0.6560422298972846	0.4040038822002407	0.7639455021138751	-0.6062762021070613	0.22094441961411304
40														8.766759999307617	3.8681403439401043	2.1681787631652654	0.10003233588388993	0.4496017996913555	0.8876101359785767	-0.6375219867927651	-0.6559460319239347	0.40410458987624764	0.7639104974625094	-0.6062945034531808	0.2210152188177159
41														8.76632127660863	3.917985728544511	2.1656725195090702	0.10007790292357938	0.44965600716916726	0.8875775394652013	-0.6374786429497578	-0.655939282843847	0.40418391482744054	0.7639407000084198	-0.6062616039623342	0.22100107337219843
42														8.770329491737748	3.969956046322751	2.1971372480541866	0.10001204313551088	0.44973488406469386	0.8875449990187416	-0.6373553383773137	-0.6560249940129652	0.4042392606764339	0.7640521997022203	-0.6061103375505209	0.22103052921393687
43														8.705726262310172	3.998218195466268	2.2392365043462976	0.09992102975024508	0.44981671343937923	0.8875137813714483	-0.637235823187296	-0.6561153911402263	0.40428096561143956	0.7641637870643051	-0.6059517454546229	0.22107959815423053
44														8.681526736172405	3.9462682181725284	2.1947881451384856	0.09979568382108173	0.44983742452510755	0.887517387428157	-0.6372070229317928	-0.6561740619645853	0.40423113478713957	0.7642041817584386	-0.6058728347611527	0.2211562268655361
45														8.681188724188404	3.9216434703463476	2.1977594429656926	0.09966594915247545	0.4498230785334524	0.8875392366527932	-0.6371711889604424	-0.6562558398325453	0.40415485725698774	0.7642509892295015	-0.605794908120205	0.22120794460724083
46														8.723527950725217	3.8769416079117334	2.2664610677853947	0.09952122175367184	0.44984777291022965	0.8875429610043467	-0.6370843108022306	-0.6563656766720612	0.404113448695381	0.7643422710738322	-0.6056575597600793	0.22126864431085286
47														8.714851084800266	3.8964972857942084	2.197538947681221	0.09934175394912298	0.44986804571742145	0.8875527913114236	-0.6368831982028283	-0.6565804794731972	0.40408150888364464	0.7645331959890613	-0.6054096261351765	0.2212875432861441
48														8.699533746218915	3.8981649239765948	2.2176149073925107	0.09921762929622402	0.449914086886102	0.8875433377916156	-0.6366857082260342	-0.6567605921262777	0.4041000291643816	0.7647137836978944	-0.6051800054953781	0.2212916400839938
49														8.698757584724378	3.8254619617433314	2.223486347803015	0.09905356858920705	0.44996459832144986	0.8875360560603496	-0.6363219685544549	-0.6570843819755114	0.4041465913487879	0.7650377395166379	-0.6047908524616399	0.22123580608481147
50														8.698411585308692	3.8258546346881457	2.2241642201486567	0.09889130486409226	0.4500185287632199	0.8875268072526397	-0.6360449501356849	-0.6573371124619694	0.4041716739048573	0.7652890507704728	-0.6044760080846445	0.22122708790037773
51														8.65938295549899	3.824878604316204	2.1946374094669947	0.098756492755525	0.45011558282793107	0.8874926012278075	-0.6356726458365507	-0.657635292292624	0.40427232117268963	0.7656157276818361	-0.604079286539993	0.2211804084894179
52														8.69763880909789	3.901319767869961	2.219499146084775	0.09861525359124101	0.45023557703657036	0.8874474389673352	-0.6352213240189105	-0.6579872289634934	0.4044090454386573	0.7660084211487481	-0.6036064377485468	0.22111166192155557
53														8.720626065241817	3.9550136441001937	2.2654186172954387	0.0984793082266423	0.4503387084779826	0.8874102058786475	-0.6349368264777262	-0.6582131111390214	0.4044882281440129	0.7662617387248267	-0.6032831407979772	0.2211162585504115
54														8.711254437369956	3.9271993772412706	2.1993225513090433	0.09839608866454441	0.4504467233198094	0.8873646145671834	-0.6346597858419215	-0.6584117542137701	0.4045997011222724	0.766501902131107	-0.6029856643101832	0.22109527960994924
55														8.72514460533645	3.8539905999429234	2.1859182234774734	0.09834759404807258	0.45052182673814806	0.8873318625956569	-0.634496502415223	-0.6585233184531537	0.40467422388421936	0.7666432933038706	-0.6028076995908136	0.22109033933265163
56														8.705162868306788	3.854515153002186	2.171218794105104	0.09829799382102233	0.4506411541676178	0.8872767632375143	-0.6341825701858367	-0.6587334042118953	0.40482436913789466	0.7669093636690381	-0.6024888815122528	0.2210365932846098
57														8.719607820706463	3.878950346263262	2.150348246936551	0.09815470977592528	0.450730865442433	0.887247056848497	-0.633742910050007	-0.6590889837866911	0.4049341124335863	0.767291064010362	-0.6020327220247608	0.22095480239475332
58														8.665749581530317	3.928656907841949	2.1357212881553735	0.0980521051712075	0.45082339421997153	0.8872113907606681	-0.6333014646579351	-0.6594296278819296	0.4050701429797243	0.767668574017205	-0.6015902534910986	0.22084865263548042
59														8.729636782889788	3.9754328849499188	2.0896195051669624	0.09790482605262602	0.450962160075999	0.8871571310738556	-0.6329346578633819	-0.6597062305341442	0.4051930506188307	0.7679898201870704	-0.6011828503658597	0.2208411567507551
60														8.675139332625859	3.976606650951531	2.0797104408342553	0.09769031072547885	0.45118410083116167	0.8870679288236814	-0.6325553974618916	-0.6599782110976103	0.4053423614899218	0.7683295336847256	-0.6007176275369104	0.22092546171557037
61														8.678484808737286	4.053736922802788	2.110499502751567	0.09741440628857395	0.4514664334100852	0.8869546171881749	-0.6323186102239898	-0.660132763546733	0.40546012092011624	0.7685594372667913	-0.6003355678253042	0.22116418650410585
62														8.68130995718167	4.081918263270823	2.146353378789982	0.0971289984239751	0.4517875181543433	0.8868224152022176	-0.6322615159311951	-0.6601324483563333	0.40554965922739994	0.7686425262354034	-0.6000943168094595	0.2215298575710403
63														8.70547387581319	4.003917977091997	2.0841164063603137	0.09678902591558475	0.45209658500499217	0.8867020707594718	-0.6322766568864703	-0.6601006467222532	0.40557781664352766	0.7686729562166085	-0.5998965027600062	0.22195961875425205
64														8.764196795101869	3.9736272390749794	2.0153872378879454	0.09640634333395293	0.45247002538149816	0.8865532657975168	-0.6325258854991334	-0.6598719285306067	0.4055613912970946	0.768515986260867	-0.5998665802231062	0.22258316376788814
65														8.751413096323288	4.02670465104299	2.0731543974346818	0.09587898126376004	0.45304151503329476	0.8863185694817413	-0.6328523577417366	-0.6595439556968063	0.4055855813568005	0.7683131615770671	-0.5997959287625632	0.22347198837282875
66														8.729606230351642	4.026151642756497	2.0682658251350574	0.09540769001422805	0.45366903283014237	0.8860484080100319	-0.6334551547051178	-0.6589544287121089	0.4056027956735669	0.7678749505379532	-0.5999695571707461	0.2245096675082714
67														8.651315299411653	4.1070314273260715	2.169997256993226	0.09487197157797828	0.4543553234939581	0.8857542260817091	-0.6342291998310614	-0.6582268214358198	0.40557462152376894	0.7673021771704798	-0.6002488580207359	0.225718136963434
68														8.568420285187823	4.087120223498038	2.2456643670574192	0.0944030947195536	0.4549559704298592	0.8854959743994297	-0.6352483886735341	-0.6573218453460791	0.405447254668845	0.7665164971447445	-0.6007853665004248	0.22695683070553438
69														8.539294985985407	4.0911571228592765	2.3306578869667645	0.09404051875406072	0.45547395413880604	0.8852682406669902	-0.6363851679110948	-0.6563229193298784	0.4052827946324315	0.7656175931202437	-0.6014845822325512	0.22813592097979307
70														8.54772316910714	4.012847506183216	2.2941980188952034	0.09375680300137001	0.4559275048667505	0.885064840673802	-0.6374507964527841	-0.6553793220004367	0.4051350717920631	0.7647654176233876	-0.6021694567148256	0.22918508111807417
71														8.53397752680471	3.966713178726558	2.361102749514082	0.09351127935573522	0.4563140546371642	0.8848915889383542	-0.638408097820961	-0.6545364305019097	0.40499032307259075	0.7639965584149422	-0.6027931193091128	0.23010804862871218
72														8.497154768050043	3.918078158790384	2.3771439530485	0.093391282053233	0.4567565515168342	0.8846759412818362	-0.6391625410114647	-0.6537815182717406	0.40501971869782527	0.763380190078457	-0.6032770333874375	0.23088418391702678
73														8.544316672418548	3.9173152898065715	2.3611209519789904	0.0934430536528697	0.45712063211875775	0.8844824042429414	-0.6398360773467568	-0.6530633514843762	0.40511486404908525	0.7628094059786769	-0.603778921989946	0.2314580383376584
74														8.60260756859826	3.8656184170552086	2.2932661074375744	0.09347915007606367	0.4575695219437513	0.884246448163194	-0.640055009046318	-0.6526712314097773	0.40540084988164893	0.7626212912683301	-0.6038628952653179	0.23185851251574316
75														8.66456989502835	3.8667201673908007	2.2550909393458016	0.09365730369946434	0.458091355560845	0.8839573628994631	-0.6400832368783398	-0.652344730357813	0.4058815130573683	0.7625757400619907	-0.6038200582415418	0.23211974912550537
76														8.711214210475969	3.96826518854403	2.2280265195549793	0.0938775803895216	0.4586377723669291	0.8836506060986486	-0.6397938449253051	-0.6522425249452484	0.40650156783060637	0.7627914760246755	-0.6035156024589151	0.23220267374160244
77														8.719514060403029	4.068971511177472	2.1689684937627436	0.0942421772102861	0.4591700020518634	0.8833353390702519	-0.6393826883156932	-0.652189788277393	0.40723243725038233	0.7630912068140101	-0.6031677952961193	0.23212156470426573
78														8.666670145831166	4.24840581710678	2.180417460081046	0.09474846837410589	0.4596851591460282	0.8830131834812271	-0.6392148166475848	-0.6519000423991599	0.40795925396804955	0.763169146335827	-0.6030886246488686	0.23207103416880923
79														8.605817282849433	4.301436452408109	2.1317256277863033	0.09551660747659879	0.4601528401228372	0.8826867742427366	-0.6395143961186733	-0.6511659592060157	0.40866151119022437	0.7628223350513078	-0.6035248605469339	0.23207720234584475
80														8.609711061151657	4.2889583060340435	2.202192908735681	0.09646232277743982	0.46057675137203147	0.8823627804820231	-0.6399766780652368	-0.6502563395280455	0.40938556940391935	0.7623154673866752	-0.6041818840375578	0.23203314242552037
81														8.587131165789328	4.222104466908529	2.1918948991368175	0.0975525128338312	0.4609049566272604	0.8820714983470604	-0.6405815779570311	-0.6492221951506171	0.4100802156967512	0.7616683984660811	-0.6050431077867404	0.2319139678800688
82														8.561055624646785	4.104459011545572	2.1498393197951238	0.09881042408709184	0.46122993364468107	0.8817615598345463	-0.6412979245742292	-0.6480354459048251	0.41083699052996786	0.7609030634900318	-0.6060668355561601	0.23175314196452002
83														8.573076814824978	4.014310542011257	2.135283609504613	0.10019045300975105	0.4615458508741531	0.8814404691563433	-0.6418292472452048	-0.6469509764223477	0.4117154982349151	0.7602743521297786	-0.6069842350893675	0.23141531463284948
84														8.61935077901275	3.925690025768302	2.1149206813453105	0.10165713011932764	0.4619264070719399	0.8810731083999278	-0.6420382533161354	-0.6460577464942584	0.4127908301713194	0.7599030919628295	-0.6076457706956987	0.23089804715709994
85														8.626598148408792	3.9343679356218626	2.0558822589526926	0.10320093998072588	0.46234701196255024	0.880672928229542	-0.6417917044342182	-0.645477991309665	0.4140791842803274	0.7599032662823051	-0.6079419407016936	0.23011654140748458
86														8.610376569773832	4.000376161473519	2.0982670373385934	0.10483594071558844	0.46286332603151775	0.8802084792532497	-0.6411840629611891	-0.6451045579594011	0.41559969526527274	0.7601923591689538	-0.607945433994735	0.22915044478703042
87														8.581549979481228	4.085682680927481	2.0348394495469626	0.10661653379110808	0.4634057524818988	0.8797090560458353	-0.6404874267365237	-0.6447311338216969	0.4172500704294909	0.7605318999981497	-0.6079283458169015	0.22806655922675345
88														8.583832340727433	4.1308662716220566	2.0915231208477136	0.10842305211726927	0.46396083207722405	0.8791955346040977	-0.6397413750751394	-0.6443771291589586	0.4189380484437142	0.7609043401023187	-0.6078803021278678	0.22694960563611102
89														8.55848399946506	4.19510000387126	2.062649458575902	0.11034559465327809	0.46447371893068695	0.878685389751822	-0.6390360180966035	-0.6439621324300518	0.4206491882452379	0.7612206101491549	-0.607928397444006	0.22575705141880015
90														8.529706939142883	4.267491618162801	2.155516241569333	0.1123848266395247	0.46502779087815393	0.878133705338878	-0.638526767420404	-0.6433213927178635	0.4223992814378327	0.76134960302666	-0.6081831462499862	0.2246331288759846
91														8.527782771399485	4.286970020678298	2.17937390889193	0.11462581152469659	0.4655238799192237	0.8775810165205583	-0.6383427174410253	-0.6423656385253074	0.4241284729088358	0.7611698223276536	-0.6088135212582962	0.22353209592978357
92														8.527262801185945	4.233364298083348	2.2084650613200907	0.11686472296974232	0.466058339096401	0.8770018592248876	-0.6382051934129928	-0.6413486660273453	0.42587089556064917	0.7609446547718763	-0.609476425420745	0.22248981826245726
93														8.552588007234426	4.199648066719872	2.1636569333444036	0.1191758123369166	0.46651771261486336	0.8764464328014758	-0.638212891571101	-0.6402171375064031	0.4275585595863583	0.7605796676129926	-0.6103140508457127	0.22143922090272686
94														8.549963508404053	4.094318919699679	2.1617216441636673	0.12145095709963027	0.466929891444851	0.8759144601471558	-0.6381663736003655	-0.639159608704455	0.4292070295399723	0.7602587353166963	-0.6111067591477513	0.22035240933239159
95														8.576717081696138	4.184931698503144	2.1425618306132903	0.1236314170115348	0.4674531702320114	0.8753301127961741	-0.637838170325881	-0.6383052540968671	0.43096272584490064	0.760182702515029	-0.6115994900524171	0.21924489176391512
96														8.533682844700468	4.298979091350229	2.1305725868102385	0.12571830659834315	0.4679988200648977	0.8747411113031721	-0.637496775831925	-0.637481858334551	0.43268318790799787	0.7601268105980378	-0.6120408358207735	0.2182045991675329
97														8.605209135810592	4.362893727867989	2.055895746964557	0.1277051702503365	0.4685586923184618	0.8741533854788553	-0.6370272101151652	-0.6367891368410368	0.43439144647901995	0.7601892679222856	-0.6123335259922154	0.21716337140899053
98														8.583939899957498	4.38008843725534	2.0666166659499603	0.12959634434573297	0.4691309039570608	0.8735679609994021	-0.6367608136083789	-0.6359598866858798	0.4359939091080035	0.7600923981892053	-0.612757062365595	0.21630609962751574
99														8.558404117818025	4.394144587803486	2.044359416806649	0.13135758842717749	0.4697308958907348	0.8729822847047267	-0.6364330309961169	-0.6352137714570886	0.43755738093232743	0.7600645900314608	-0.6130712438183266	0.21551210866992637
100														8.520993854964503	4.458763884068323	2.072762450121345	0.13300294768682924	0.4701787934690666	0.8724919014401151	-0.6361847493024395	-0.6345225427390913	0.43891924941942373	0.7599863029434193	-0.6134435955553624	0.21472720929240044
101														8.494106405333794	4.5425682154448195	2.046127914688844	0.13458182184399642	0.47044912688068097	0.8721039801803196	-0.636108630699179	-0.6338053475447596	0.44006430368036153	0.7597720336911367	-0.61397752437762	0.2139580715466533
102														8.524326052458793	4.553881530278835	2.0353939195087816	0.13600354341827464	0.4706044688465776	0.8717995584303221	-0.6362240433949549	-0.6330526430253978	0.44097995165850035	0.759422150574928	-0.6146346760964511	0.21331247538754636
103														8.529070931714301	4.591149448627873	2.0970465672598952	0.13736753822908543	0.47061255218770526	0.8715813129962426	-0.6366570954560381	-0.6321380973037805	0.441666354551302	0.758813483173804	-0.615569047029275	0.21278356631353929
104														8.505930829787268	4.520104554399796	2.048934407933044	0.13859786042684047	0.47053984269127375	0.8714257796996674	-0.6372661753208693	-0.6311734364817227	0.44216729285618106	0.7580781324355776	-0.6166136144458083	0.2123798380333284
105														8.511323243346295	4.354397113671061	2.0565206813860244	0.1398067940130201	0.47036772631312723	0.8713255777209925	-0.6379569732474486	-0.6301981893613648	0.44256202097628394	0.7572746929831713	-0.6177414055805857	0.21196838254458417
106														8.534574597298723	4.2385144027741335	2.075514923932968	0.14097901358436254	0.47019330255660785	0.8712308396514044	-0.638624136583656	-0.6292552278865094	0.4429413847793832	0.7564946330950144	-0.6188344822393207	0.2115650105523881
107														8.567451343786907	4.143888394501486	2.0389279244307033	0.14205164105960483	0.4699969600038168	0.871162550193386	-0.6391166108448547	-0.6285049699899474	0.4432961317676048	0.7558778267778858	-0.6197453995675205	0.21110270178383436
108														8.55182879186476	4.148207845954877	2.0540164791901483	0.14301561431181875	0.46982032354925685	0.8711001077046678	-0.6393926924374123	-0.6279656538705312	0.4436621714960521	0.7554624536802932	-0.620425661251231	0.21059078788095867
109														8.519342736985323	4.201724772491588	2.0852227481895182	0.14387367957751912	0.46961998841746877	0.8710668348660751	-0.6394795868020251	-0.6276370797128766	0.44400175025894184	0.7552259412840219	-0.6209096251857181	0.21001194004959445
110														8.490303044453913	4.298807735013088	2.02565508948789	0.14481471646608668	0.46940401787165387	0.871027304911158	-0.6396884427812635	-0.6271805598183471	0.44434585804081433	0.7548691238002317	-0.6215339197436398	0.2094473502844512
111														8.498040440556295	4.330792583716223	2.087588003979365	0.14581177305733312	0.4690678543693655	0.8710420626096063	-0.6400934456263497	-0.6265989494160522	0.4445831052310551	0.7543336845879711	-0.6223737659863402	0.20888175532562922
112														8.509063817241572	4.306426738452095	2.030642449093362	0.14688388487854587	0.4687194085197761	0.8710495051602161	-0.6406317444409504	-0.6258800069332876	0.4448203962676761	0.7536684233650304	-0.6233589118622264	0.2083448454471821
113														8.56490949004554	4.263047347143859	2.038691600032026	0.1479528999396112	0.4682909991019274	0.8710990067492775	-0.6412860207431622	-0.6251046929230402	0.44496782185343703	0.7529025029835269	-0.6244578953345936	0.20782241928009085
114														8.573179718026434	4.194217264190835	2.072304591889245	0.1489989984390232	0.4679159525551566	0.8711222415990586	-0.6418497247963748	-0.6243843375645335	0.44516640684458303	0.752215547062799	-0.6254589197928984	0.2072990844372323
115														8.602585865094653	4.195830975549086	2.028395690866038	0.15007017316135352	0.46755528021621984	0.871132023902952	-0.6423632762580987	-0.6236853471892313	0.4454054434068014	0.7515639456774671	-0.6264252929467169	0.20674377358057758
116														8.587853637728433	4.199063683133295	2.0422125904029205	0.15109603760384815	0.4672002265345335	0.8711451863762416	-0.642609168955424	-0.6232241190616095	0.445696256877147	0.7511480835326916	-0.6271488226457584	0.20606045437978437
117														8.575529351830498	4.154053516199859	2.057719706202221	0.1521053863135164	0.4668383355252298	0.8711635437381718	-0.6426605917237102	-0.6229348027456298	0.44602645142815744	0.7509003364626675	-0.6277055042074243	0.20526686212819792
118														8.52557669006868	4.280500803274391	2.102400793937362	0.1531257495691553	0.46649197452914254	0.871170329223159	-0.6426618726902736	-0.6226740137966515	0.44638860865013	0.7506918290544502	-0.6282215455094406	0.20444918084603525
119														8.587678027731817	4.30937749967595	2.049548004288248	0.15416541019701058	0.46613173836475635	0.8711797913105179	-0.6426626775796173	-0.622411756525082	0.44675305056099945	0.7504783202364904	-0.628748604633372	0.2036111073262048
120														8.61468411310365	4.367513699906794	2.12202829554882	0.1552146056310788	0.46570078191165304	0.8712239711610688	-0.6427416782935553	-0.6221153796811353	0.4470521103278452	0.7501943489411071	-0.6293609743947196	0.20276390883428064
121														8.631899260587762	4.3217080819628935	2.0978235740069846	0.15617033945907516	0.4652941972257758	0.8712704144530898	-0.6428512471869452	-0.6218202777770122	0.44730505936721676	0.7499020596474097	-0.6299530555313952	0.20200507113246602
122														8.5575987077605	4.3438808497267685	2.0659596408027303	0.15713160058360703	0.4648810609668846	0.8713181159899853	-0.6430465656718973	-0.6214532398276096	0.4475343395599335	0.7495337046962011	-0.6306199091862478	0.20129022743868258
123														8.54442729527349	4.322558833003931	2.0806128164952193	0.1580593069662703	0.4645675861733086	0.8713175158106532	-0.6431009905014876	-0.6211672195553745	0.4478531024408014	0.7492919134071501	-0.6311325084536138	0.20058261458985238
124														8.596924294945868	4.352865517362493	2.082782638908184	0.15895168847515168	0.4641963976441551	0.8713530083411021	-0.6433025041138426	-0.6208014676233712	0.4480707823519949	0.7489300694535896	-0.6317651796441924	0.19994126351852284
125														8.561761359337043	4.377828959927076	2.081293291273879	0.15973972637384093	0.4638335984928437	0.8714020958932737	-0.6434887563068024	-0.6204887203320335	0.44823650949854643	0.7486023245520518	-0.6323386283075668	0.19935500702357487
126														8.59993331867581	4.407441818720793	2.1042859643471976	0.16050091455100907	0.46348449252734625	0.8714479798673911	-0.6437828893541697	-0.62008863319332	0.44836779362398027	0.7481865060284671	-0.6329867393327506	0.1988585930398931
127														8.584514497438617	4.43324656435838	2.1186535895810565	0.16118637431213134	0.46312607281020524	0.871512015648382	-0.6440738371634488	-0.6197281047543418	0.4484484011111452	0.7477886365930284	-0.6336018598938831	0.19839566054062663
128														8.55891507060361	4.454459234225545	2.065660581198742	0.16181982222548474	0.46277863688817084	0.8715791865199851	-0.6445023924812783	-0.6192670199421785	0.4484696467965718	0.7472824173100963	-0.6343061494671638	0.19805225958650183
129														8.581691775526668	4.407713248764394	2.079900174059166	0.16239726465438498	0.4624144670794924	0.8716650670230862	-0.6449031653320395	-0.6188615265779085	0.4484532509263095	0.7468112450796979	-0.6349671421083523	0.19771113439880364
130														8.565293976275477	4.357043588327187	2.0657839835487066	0.16292886761820907	0.4620749733242405	0.8717458936662966	-0.6454078295600637	-0.6183739509964763	0.44839981073989643	0.7462592831176141	-0.6356888985631334	0.1974758380267686
131														8.588244950819071	4.309606487412315	2.0807684497536227	0.16335822590566884	0.4617341455588076	0.8718461268217181	-0.6457758766087504	-0.6180472612060393	0.4483203097183028	0.7458469060196962	-0.6362540072493004	0.19721366849195507
132														8.588969298261476	4.309151960573896	2.0787189866041254	0.1638018693403071	0.46141017684592156	0.8719343990826585	-0.6460984269695087	-0.6177437760727463	0.4482738557967788	0.7454701672556372	-0.6367835392238089	0.19692880415381678
133														8.598747589649443	4.306937374245646	2.022775530534128	0.16418673509440823	0.4611393129491069	0.8720053039241589	-0.6463326861133302	-0.6175137180723512	0.44825312810284845	0.7451823769256534	-0.6372027479894345	0.19666184956454358
134														8.58475385233602	4.4064692766982265	2.069875389375125	0.16450658657539036	0.46090393087823317	0.8720694636749449	-0.6464732109531742	-0.6173738640461008	0.44824312544943606	0.7449899130144018	-0.6375084928797254	0.19639997712070814
135														8.515596006415613	4.427815645473626	2.0777402366587743	0.1647307146394592	0.4607111499967921	0.8721290202275164	-0.6465021757716723	-0.6173495640684632	0.44823481844561486	0.7449152491235952	-0.6376713510995402	0.1961543260038387
136														8.477687456827205	4.400286708704996	2.0490712622427454	0.16506649374768279	0.46054648237088874	0.8721525039909294	-0.6467576563324855	-0.6170675802838307	0.44825454301988954	0.7446190882707467	-0.6380631151684447	0.19600478168754754
137														8.493499771195392	4.3758190398365535	2.030080841598194	0.16540495460791027	0.46034509933765266	0.8721946975916334	-0.6472400055522659	-0.6166082541972334	0.4481904015801116	0.7441247047396403	-0.6386522139409253	0.19596370435490462
138														8.492297705664193	4.300743024352636	1.99933137721964	0.16576313706565748	0.4601695240749588	0.8722193482735742	-0.6476586379050882	-0.616180841423813	0.448173470220146	0.7436806244195678	-0.63919103543062	0.19589269789365274
139														8.511926860598695	4.302610394168332	2.0135991370648525	0.16611670935040013	0.46002624575755213	0.8722276606992044	-0.648032313731725	-0.6157768241238262	0.4481886022998365	0.743276098925629	-0.6396833248461196	0.1958210526978956
140														8.513010914189845	4.278726561164973	2.0147671420035036	0.16648669566294078	0.4599263162451121	0.872209816381607	-0.6484215050058979	-0.6153292605399305	0.44824039640495217	0.7428537756605413	-0.6401856642791868	0.19578197883946033
141														8.597617121349261	4.234312074726704	1.9865493399728782	0.16696791554851587	0.4598661767884681	0.8721495368475186	-0.6488879557469523	-0.6147445211788207	0.4483677001827449	0.7423382895041352	-0.6407903503694324	0.19575901207733742
142														8.586353769794588	4.163333654429214	2.009331471738838	0.16743380461581875	0.45988325105030553	0.8720512120714429	-0.6491238414370674	-0.6143250990721401	0.44860106010573514	0.7420270611978083	-0.6411802149578588	0.19566239392570356
143														8.543408960957862	4.142101668147312	2.0686789697443224	0.1679585429340889	0.45989845829395964	0.87194227785691	-0.6492497653142122	-0.6139749821836846	0.4488980546760975	0.7417982677890925	-0.6415045824554828	0.19546662271016635
144														8.48826990137724	4.1424923068838835	2.057865783629164	0.1685208507022798	0.4599590701676711	0.8718017989480593	-0.6491658817234262	-0.613765791040286	0.44930525453742454	0.7417441478601821	-0.6416612872218368	0.19515740210401666
145														8.498965069574565	4.126231355195434	2.1236878894665536	0.1692314109555812	0.45989915858094776	0.8716957574076634	-0.6490513040527417	-0.6135787943274633	0.4497259919763282	0.7416826371524543	-0.6418830322482385	0.1946613435132618
146														8.574021691537775	4.1871006488109	2.172679140910772	0.17000547353161666	0.45974020642875824	0.8716289815983247	-0.648470904258775	-0.613817275920865	0.4502375352087989	0.7420132244772304	-0.6417688792501008	0.19377585073215917
147														8.616749172578979	4.291057455125711	2.1336482743807648	0.17071906350853316	0.45933203696060754	0.8717046983792089	-0.6476018283049667	-0.614460652428362	0.45061067296877816	0.7426081559818967	-0.6414453885085851	0.19256411978932178
148														8.612989932848631	4.337913709944822	1.9976440324956055	0.1712698202998167	0.4588405282911729	0.8718555030806111	-0.6464390127718216	-0.615472403180762	0.450899460733199	0.7434939484764221	-0.6408268803041696	0.19120057023598153
149														8.5343319067353	4.357533208978681	1.9265054112348743	0.17152393447109104	0.4583042283476255	0.8720875954755024	-0.6449443492449192	-0.6169228614852541	0.45105761201191674	0.7447323856799862	-0.6398151430339334	0.1897636858407396
150														8.567172870042004	4.378759244705431	1.7846269965493258	0.1715456406622653	0.4577676133084391	0.8723651215951196	-0.6432581748583354	-0.6186365355985601	0.4511183406829458	0.746184302734717	-0.6385433806943006	0.18833835860970355
151														8.69813240985441	4.4764154187810705	1.6231413381679507	0.1713001084681922	0.457318064017516	0.8726491054038027	-0.6415558060056576	-0.6204310512417742	0.4510781068013146	0.7477047683539385	-0.6371228288001447	0.18711515278695398
152														8.73925408313113	4.647013999826465	1.578402662080956	0.1708798416025179	0.45697992744283616	0.872908600970479	-0.6400347496461838	-0.6220839711518131	0.45096236215602015	0.7491031964817969	-0.635752214900059	0.18618142300031967
153														8.64653410510949	4.717192244928707	1.652015020680033	0.17032797956600987	0.45662678149920094	0.873201214952569	-0.639043175639971	-0.6233481378700229	0.4506228119857636	0.7500747956337039	-0.6347669504878595	0.1856305996418729
154														8.530243873022968	4.657822885881399	1.6538241917863368	0.16986207887001675	0.4562070633979592	0.8735112989926158	-0.638751064028001	-0.6240148699031078	0.45011389707817795	0.7504291787804186	-0.6344135539579985	0.1854062841149911
155														8.508221051358575	4.535832353378492	1.7877309269714659	0.1694719549695648	0.4556252360455909	0.8738906686520876	-0.6390947531125012	-0.6241935497694435	0.4493776907794733	0.7502247350113594	-0.6346558569056306	0.18540439658356211
156														8.536914702906458	4.432673339748907	1.80937993473417	0.16918590227107666	0.4549511734763846	0.8742971807258567	-0.6400448620733322	-0.6238595102397901	0.4484884458008892	0.7494789556793772	-0.6354673408097608	0.18564092694748247
157														8.530110683392868	4.251594514902236	1.807914421032917	0.16898263213759873	0.4541903326136712	0.8747319656878512	-0.6413042475543311	-0.6232682207034852	0.4475104324257539	0.74844754799827	-0.6365908158475071	0.185952685041069
158														8.585807985037954	4.071055577297912	1.760728774938353	0.16883252275824923	0.4533944006181455	0.8751737523184742	-0.6425124542697717	-0.6227109861420672	0.44655209533290624	0.7474445299601302	-0.6377025523126647	0.18617768235369425
159														8.730727620443204	3.9710450521925225	1.7449380687762694	0.16875485724714934	0.45258239097519115	0.87560891814478	-0.6435079757904931	-0.6223081353917053	0.44567933508220875	0.7466051722627663	-0.6386718750692539	0.18622285774310002
160														8.818985356053426	3.9174542512610215	1.7162892161020469	0.16848246951687146	0.45191896472715865	0.8760039422202559	-0.6438697126946957	-0.6224544173071451	0.4449520102766951	0.7463547752509836	-0.638999020104691	0.18610427659056697
161														8.882204760223235	3.960664003779791	1.6668551159177698	0.16802733713228685	0.4514002734691172	0.8763587205524	-0.6434916488493478	-0.6232387946239355	0.4444006106396032	0.7467833098278115	-0.6386009692975033	0.18575115120749264
162														8.859463437074016	4.0752377291354485	1.6427631491312364	0.16725183502202	0.45095690483076517	0.8767352471910913	-0.6423682483347273	-0.6247579542032082	0.4438924781872259	0.7479236974539193	-0.6374287165207407	0.18518848274549915
163														8.771110901049173	4.262377987938833	1.657688645573126	0.16625840412713672	0.45047850359721375	0.8771700296145056	-0.6407558217809327	-0.6267981897050665	0.4433463727564408	0.7495265972004858	-0.6357618635772881	0.1844362570369349
164														8.695657208442784	4.497568958632483	1.6473343526011113	0.16508611793501377	0.44997294040250646	0.8776507999031674	-0.6387334002043094	-0.6292644908674255	0.44277064491314455	0.7515092927759369	-0.6336801665184755	0.18352991427156773
165														8.641412080144795	4.609439462883092	1.6226444804727418	0.16379468287386217	0.44932486081688994	0.8782246132477352	-0.6368088414877048	-0.6317563458195279	0.4419936865158198	0.7534227241498219	-0.6316574142433856	0.18265571375136827
166														8.59258826806044	4.746547474141209	1.6304385296338362	0.16246771894505274	0.448605858727383	0.8788384514893838	-0.6351186484411194	-0.6340887705743788	0.44108472364592033	0.755134784461103	-0.6298287184202855	0.1818989905138111
167														8.596099689552494	4.809952856612974	1.6185415526402136	0.1612164495284149	0.4478202054910701	0.8794693399746166	-0.6337699057114874	-0.6361269669558236	0.44008884162863854	0.7565348392611569	-0.6283307611962987	0.18126083834787715
168														8.627882479248493	4.679086919114154	1.6362962849681304	0.16012877730632802	0.44688563366723727	0.8801431730691389	-0.6332679856985658	-0.6374610698819042	0.43887930308263456	0.7571858642154259	-0.6276437005235134	0.18092250336950552
169														8.583060756885816	4.3993522699979355	1.6974264366646905	0.15905588301215007	0.4458216898191174	0.8808769760676306	-0.6331238060010496	-0.6385523548741991	0.4374987272659901	0.7575324893058856	-0.6272909300886172	0.18069481640209537
170														8.583546771643118	4.1914529027242065	1.7293366609893037	0.15797196493691135	0.4446416618763027	0.8816681069528663	-0.6331949869462259	-0.6395229252883188	0.4359753852419197	0.7576997867230398	-0.6271397137437169	0.18051817815751633
171														8.604166368943963	4.20063222553009	1.7068150767893358	0.15685341168093586	0.4435337714413061	0.8824255214096554	-0.6331430939654394	-0.6405691993370429	0.4345122822482359	0.7579754810070848	-0.6268563587072808	0.1803448799947679
172														8.497330347408852	4.261030133613581	1.7715640996171038	0.15575736428425535	0.4425347260721989	0.8831209768154218	-0.6331896410469228	-0.641466987655905	0.43311774636757505	0.7581625959793123	-0.6266443329097151	0.1802951970798092
173														8.429107743559163	4.349664065357738	1.8640207560428392	0.15479069562885178	0.44148746314465553	0.8838148337931612	-0.6335607202416867	-0.6420639166414653	0.43168824481778173	0.758050561845034	-0.6267716863684243	0.18032359483248556
174														8.44934155771507	4.359636468666159	1.843655535313775	0.1540009265861927	0.44037994049014745	0.8845050721304473	-0.6342405368834851	-0.6423598058627589	0.4302473953270455	0.7576428287685051	-0.6272474693658417	0.18038280458459663
175														8.552323489948273	4.253961590885806	1.889111283086642	0.15348761244780218	0.43920181184293405	0.8851798242724228	-0.6354184278396983	-0.6421617434831388	0.42880265480570623	0.7567595221646038	-0.6282754679920102	0.18051305197303918
176														8.6234948629579	4.166031714034425	1.8505785196704685	0.15296811448162095	0.4380555290856132	0.8858375186169647	-0.6364638922378689	-0.6420556583375844	0.427408756899193	0.7559857603350477	-0.629183506645092	0.18059248360999225
177														8.721987037215637	4.101208958857677	1.7707315622636028	0.15248094236588744	0.4369914612076047	0.886446854045325	-0.6375221832856259	-0.6418817125524895	0.4260907566580295	0.7551920471204261	-0.6301002538662605	0.18071702200881476
178														8.73765593888876	4.118369434992236	1.8386640838029973	0.15198796802895276	0.4360544041478457	0.8869927926413486	-0.6383546769944358	-0.6418336738302673	0.4249150991632005	0.754587943140997	-0.6307979801495961	0.18080637241377923
179														8.712565371395911	4.158353019993741	1.8764230884566313	0.15167252561534234	0.4352008138440881	0.8874658847543977	-0.6392702947656668	-0.6416019898914298	0.4238872217908606	0.7538759415206722	-0.631622623246508	0.18089755830170584
180														8.739534317320306	4.250432011551879	1.9198109037570128	0.15139441735545422	0.43449144173565857	0.8878608660438138	-0.6400361448756661	-0.6414093957918683	0.4230221273675947	0.7532817956424392	-0.6323062343899346	0.18098442558773728
181														8.742908836510374	4.242702178329836	1.921543006731393	0.1512338665969707	0.4338880843906342	0.8881832287416577	-0.6408534551118356	-0.6410740120330461	0.4222925054592805	0.7526188721161279	-0.6330602193470064	0.1811065763990031
182														8.713261140835266	4.162672836730991	1.9335782273377153	0.15114084489558038	0.4333742915699123	0.8884498682596143	-0.641633140494557	-0.6406988027948488	0.4216775511173659	0.7519729769236001	-0.63379158049277	0.1812315493316065
183														8.732636880923282	4.1396163765794425	2.0387676650272457	0.15110838147228273	0.43294789828957236	0.8886632514149941	-0.6422878822959813	-0.6403617067283512	0.42119254600680744	0.7514203439517528	-0.6344233617408764	0.1813131676763556
184														8.698608861436552	4.2080315576007346	2.041394817025764	0.15106259172217484	0.43261774383610274	0.8888318069805669	-0.6428006985830577	-0.6401031658665471	0.4208030405650089	0.7509909155797508	-0.6349093043622716	0.18139134475190344
185														8.673240243366513	4.250368036528479	1.9916753600162744	0.15108349859864584	0.43240202426437646	0.8889332178871839	-0.6432330305071177	-0.6398311708196724	0.4205559906982155	0.7506164432756742	-0.6353302780913228	0.18146733266508305
186														8.674194465701287	4.224599653959099	1.9943099739802235	0.151180321422353	0.43229896938722934	0.8889668787313583	-0.6435225975041253	-0.6395959414587631	0.4204708053730033	0.7503487035480088	-0.6356371864013448	0.1814998356682579
187														8.688264779540184	4.223569258677427	1.9756544775251934	0.15122588975387014	0.4322868528076025	0.8889650202104965	-0.643710247003854	-0.639424407174265	0.4204444617450406	0.7501785441949053	-0.6358179805569656	0.18156995189203132
188														8.701752122377894	4.22363120941787	1.9572590930343405	0.15127974143385559	0.4324315044082359	0.8888855009656396	-0.6437403749732243	-0.6393088510319694	0.4205740394050921	0.7501418328963121	-0.6358358176348775	0.18165914111750162
189														8.67445770481156	4.246598351100908	1.9093674686204247	0.15132006599241232	0.4327091863415007	0.888743493750435	-0.6436857892283674	-0.6392075060585551	0.4208115598980819	0.7501805398525789	-0.6357487902104726	0.18180383211696763
190														8.706542259443706	4.250100780481289	1.9060044806622702	0.15134454359691052	0.4331114207189299	0.8885433733736767	-0.6435336417914707	-0.6391360363209591	0.42115267891649566	0.7503061248624125	-0.6355467129320738	0.18199201816339677
191														8.640826498992768	4.279575830376873	1.9526233061408198	0.15141582933780512	0.43359267125618295	0.8882964831962755	-0.6435336258266761	-0.6388791729078973	0.4215422574960802	0.750291755956518	-0.6354768271600842	0.18229504405286526
192														8.650457938768323	4.3560706538988025	1.932112392495654	0.1514479790660057	0.4341266299120407	0.8880301677522204	-0.6434812963466157	-0.6386570060297561	0.4219585878983708	0.7503301479274984	-0.6353355789268552	0.18262905371483507
193														8.61860596261499	4.362196374413143	1.9762233591256906	0.1515242611173503	0.4347396389663527	0.8877172098164182	-0.6435823755228027	-0.6382492075849138	0.422421205591831	0.7502280481355436	-0.635326211743727	0.18308052999185248
194														8.659724115785147	4.291053822740682	1.9271901026508882	0.15167777127186555	0.43534374196327513	0.8873948839357898	-0.6440733219847288	-0.6374836195201818	0.42282879602861095	0.7497755728280006	-0.6356811002199625	0.18370119546040597
195														8.688341375669403	4.147546210560842	1.9033542889227866	0.15182143222509475	0.43600960414881973	0.8870433347966213	-0.6446420549953826	-0.6366255019073626	0.42325475927924205	0.7492575482759258	-0.6360845819631132	0.18441673172562276
196														8.716182516620416	4.029001877457533	1.8784884942536437	0.1519587589463478	0.4367687923207665	0.8866462415383857	-0.645123112869261	-0.635798635666113	0.4237643969554123	0.7488155345753457	-0.6363906952020659	0.185154471290517
197														8.723456474844069	3.934417462035575	1.8377266110826251	0.15197873274924578	0.43765754116809513	0.8862044580403732	-0.6451970622576597	-0.6353024793596489	0.42439546483624163	0.7487477650357428	-0.6362755978176291	0.1858228941110323
198														8.738035673902026	3.9668023769323946	1.8576626235104399	0.1519907286673276	0.4386004972832376	0.8857360905947504	-0.6451028746965628	-0.6349255426827695	0.42510214808587143	0.748826481541222	-0.6360024835107863	0.18643964575890595
199														8.690296281988815	4.093357008408836	1.8288074576655955	0.15192804334754373	0.43959674353899275	0.8852528298257512	-0.6448022430936166	-0.6347276080363304	0.4258531799786395	0.7490980823270261	-0.6355120507641	0.1870200427429654
200														8.677146635481028	4.196402262902229	1.795588821433235	0.15190440088181972	0.4405779487006904	0.8847689665169246	-0.6445374422549591	-0.6344892401487453	0.42660859070921525	0.7493307270652728	-0.6350704490481032	0.1875872762787234
201														8.737663252975285	4.302407388240509	1.7856664924353345	0.15186055896662465	0.44146850752277467	0.8843324756537884	-0.6444052723146116	-0.6341893160148738	0.4272537378019269	0.7494532778255597	-0.6347515012335144	0.18817628978785866
202														8.714201580034878	4.282839578254047	1.779780623981328	0.15181960974793346	0.4423313737021529	0.8839082316251794	-0.644532294994902	-0.6336812487887599	0.4278156093951255	0.7493523382258775	-0.6346581999567046	0.1888916155448036
203														8.68365863375273	4.160718412086735	1.7117465597730979	0.15177665025756049	0.4431082009239893	0.8835264403007419	-0.6447363993770616	-0.6331497122745848	0.42829477835354623	0.7491854401647813	-0.6346468026552381	0.18959064355760563
204														8.730845195379437	4.0924124472860175	1.6983156304621905	0.15176931565308477	0.4438223476818781	0.8831691788804342	-0.6450575703200738	-0.632534154483718	0.4287205084718144	0.7489104123985441	-0.6347615828873974	0.1902916894962268
205														8.70000156299552	4.049409406637069	1.747681129324106	0.15172083116425977	0.4445276523971007	0.8828227203947278	-0.645274809585719	-0.6320273541806614	0.42914082033932155	0.7487330695948585	-0.6347728647490488	0.19095078076128802
206														8.67607678002053	4.076800635689472	1.7387947099702437	0.1517277898660706	0.4451948263959433	0.8824852657878444	-0.6454983382131319	-0.6315104093853878	0.42956547603594036	0.7485389590037659	-0.6348197928453276	0.1915548419262029
207														8.677175127222723	4.107544825545734	1.777589548162958	0.15181482766634907	0.44573986145792655	0.8821951224123297	-0.6458201677197436	-0.6309359536581759	0.42992573003705004	0.7482436562157271	-0.6350085025327745	0.1920823590130138
208														8.678421222274572	4.138023214519117	1.815919035311386	0.15192195103407752	0.44628207186798896	0.881902507720221	-0.6461258298851555	-0.6303677178842505	0.4302998398844938	0.7479579752561091	-0.6351919808834311	0.19258768047869676
209														8.666988783016452	4.088807309135995	1.7558407146405883	0.1519923876962757	0.44674538499331395	0.8816557576909267	-0.6464833300192133	-0.62980861815522	0.4305814771964567	0.7476346822410362	-0.6354208569795214	0.19308732849608906
210														8.697875449267949	3.9997405037961786	1.848743936656016	0.15206995354743263	0.44717424681833984	0.8814249385004559	-0.6467980188286945	-0.6292993054163744	0.4308534635369025	0.7473466746211946	-0.6356237701541059	0.19353390077121613
211														8.716093050852999	3.9797520106493365	1.868841535782121	0.1521580171962395	0.4475545562053642	0.8812166912983027	-0.6469944379826413	-0.628909595458246	0.4311274961772575	0.747158708055012	-0.6357418029045789	0.19387167151804427
212														8.73518731449524	3.935678713094103	1.8896543915701354	0.15223098115696937	0.44798895604651523	0.8809833276721754	-0.6470923424512846	-0.6285832565645053	0.4314563592157038	0.7470590530318842	-0.635758590053736	0.19420037707478746
213														8.74549272882091	3.987677336103935	1.8708781249909767	0.15227231932496688	0.4484522452580621	0.8807404410440106	-0.6469293210544175	-0.6284776898822828	0.4318544278808538	0.7471918055810475	-0.6355362908939441	0.19441715106775465
214														8.755796887010558	4.039954330985074	1.8514019818528713	0.15236022508724023	0.44886861725940064	0.8805131039632513	-0.6468002143442612	-0.6283465294464613	0.43223850089598154	0.7472856512308955	-0.6353720196642447	0.19459329919654333
215														8.737151431170782	4.093043566858413	1.8709078790164297	0.15239256809475682	0.44928312425233413	0.8802960748813698	-0.6465983157985404	-0.6283010456575576	0.4326065348929793	0.7474537599049026	-0.6351239802492747	0.19475730157388937
216														8.733865304253964	4.121259894296087	1.872255645586187	0.152404294509974	0.44973827083330953	0.8800615994138032	-0.6464193951693331	-0.6282243327674819	0.4329851651820939	0.7476061105714895	-0.6348776854376884	0.19497545478714254
217														8.700584415467093	4.174687079373677	1.9116135924376487	0.15243684794791668	0.4501287547074499	0.8798563016613703	-0.6463094070066655	-0.6281119025388039	0.4333123449704343	0.7476945618381856	-0.6347121726220514	0.19517504995003643
218														8.70925550252077	4.2747364425588135	1.8898899229801978	0.15236823455339543	0.450503477989106	0.8796763822104132	-0.6462648755100225	-0.6279937768900181	0.4335499127775551	0.7477470372934265	-0.6345631824390143	0.19545827102421076
219														8.725136218939817	4.327018831419653	1.9055912897067553	0.15225289229345623	0.4508188200685805	0.8795347908185609	-0.6463542551874294	-0.6278107264114091	0.433681759593232	0.7476932750729943	-0.6345203568639475	0.19580266376091038
220														8.715018810263494	4.306130227617239	1.9651209775728142	0.15211790226376254	0.4510943588332467	0.8794168654510187	-0.6466504688762142	-0.6274799129786307	0.43371895267615745	0.7474645910764236	-0.6346517456346848	0.19624945057197662
221														8.696862497336951	4.231828766726938	1.9600654053008137	0.15189284896501093	0.45138167214854885	0.8793083352736235	-0.6470822510285241	-0.627065736324584	0.4336739820782016	0.7471366159124777	-0.6348567935968601	0.196834267308219
222														8.722931025047789	4.161974687122829	2.018766295036993	0.15163252267668592	0.451664207447441	0.8792081788618544	-0.6474861191174217	-0.6266922362430287	0.4336110775602616	0.7468395434207831	-0.635024633178577	0.19741938010096574
223														8.71261816588637	4.133469032576815	1.9581255172341108	0.15138847693462731	0.45193838490077676	0.8791093363767052	-0.6479393564621143	-0.6262738633228428	0.4335385086311737	0.7464958937588838	-0.635242272185942	0.19801801996072646
224														8.731759197486996	4.110538473690198	1.9800650318844468	0.15113024006950904	0.4522487197164877	0.8789941672453405	-0.648249395920967	-0.6259653234874438	0.4335206275131099	0.7462790170067983	-0.6353255144459861	0.1985676697483987
225														8.731213457388124	4.086268332127259	1.9876892345869501	0.15085236121866796	0.45256555731531883	0.8788788206838462	-0.6487346586116178	-0.6255124936983104	0.4334483394170402	0.7459134720802548	-0.6355458571646871	0.1992349256781626
226														8.677869591398062	4.159040427055397	2.0152902095976293	0.15051661699184077	0.4529803986593129	0.8787226561548203	-0.6489264017679093	-0.6252856030265127	0.4334886846693065	0.7458145031426291	-0.6354735817311538	0.1998350665521271
227														8.68870147094302	4.2080407883013775	2.0000826027403895	0.15019420440746972	0.45341684121273207	0.8785527127424255	-0.6491788701481157	-0.6249906834649281	0.4335359732885582	0.7456597719574407	-0.6354524480137831	0.20047865421951344
228														8.686770697693914	4.208446813552137	2.007601199271691	0.14979775237434084	0.4538741700448814	0.8783842389009873	-0.6495312530997044	-0.6246313987389188	0.43352597033648443	0.7454326157543176	-0.6354792313486985	0.2012370788253093
229														8.667118540918713	4.158504819773392	2.003772170008819	0.14932352143959016	0.4544088600659693	0.8781885183936455	-0.6498137455331385	-0.6243262013214709	0.43354225913940087	0.7452815454987958	-0.635397027249143	0.2020545364545868
230														8.668679549562878	4.185181823175593	2.045599673835806	0.14889228780854946	0.45496128323501306	0.877975692937046	-0.6501699269433857	-0.6239312857925028	0.4335767714116458	0.745057147291111	-0.6353896295710721	0.20290358770600186
231														8.680935522144287	4.1854362861264915	2.035182912880078	0.14843304527607332	0.45551616933684735	0.877765715064536	-0.6505630589410542	-0.6235153701932954	0.4335853889073949	0.7448055702069704	-0.6354003482887014	0.20379170734666152
232														8.711748242832964	4.2113590455473835	2.038503715422651	0.1478811020902151	0.45608912845084765	0.8775613292263565	-0.650841236364231	-0.6232276193648383	0.43358161804753165	0.7446723203479922	-0.6352716280220474	0.20467802504850088
233														8.68999823091921	4.210077947220096	2.0332482362815045	0.14726924896940236	0.4566845807479778	0.8773545247019771	-0.6510681445308355	-0.6229977275322925	0.4335713351534838	0.744595218548416	-0.6350693073961637	0.20558437518010333
234														8.706158876280748	4.236100670421725	2.056216651880431	0.1465533233538442	0.45730965948361246	0.8771487894062937	-0.6511152714115797	-0.6229502845151627	0.4335687331405522	0.7446952576380281	-0.6346659108266812	0.20646586857388943
235														8.700199912854542	4.20993563800015	2.03286246745713	0.1457259015009128	0.45791753755344666	0.8769694923044548	-0.6512016503516659	-0.6229246528836843	0.4334758210200511	0.7447820971337941	-0.634252635493719	0.20742039957115743
236														8.64340794873768	4.231524310831304	2.0315087776631957	0.14485662572503738	0.4585784368006675	0.8767681422616884	-0.651115098655349	-0.6230373190869671	0.43344391485861195	0.745027305732207	-0.6336641983940553	0.20833626037497088
237														8.657024916577274	4.206632072663565	2.02285842727063	0.14393807977072515	0.45923083177685997	0.8765779328373777	-0.6509847478244773	-0.6232115381626585	0.43338924398378353	0.7453191848408429	-0.6330200801289539	0.20924839512339105
238														8.70970086136228	4.184090327543359	2.0437495259529044	0.14289781438867855	0.45982594716599157	0.8764361431135971	-0.6507775359482044	-0.6235295920932638	0.4332429416495919	0.7457002168084185	-0.632274423092463	0.21014338094494153
239														8.724004942784221	4.157941032975063	2.034922204966711	0.141765033540328	0.46038575581114416	0.8763262127264662	-0.6504529337838636	-0.6240020792926538	0.43305009637501496	0.7461994748036713	-0.6314003174568781	0.21099758983950267
240														8.699081353351358	4.152516681802407	1.9951630377047163	0.14042216795468399	0.46092959330755723	0.8762565404949837	-0.6499533713768049	-0.6247161503094294	0.4327705472632028	0.7468883650070016	-0.6302964711593242	0.21185874695483203
241														8.684554544422186	4.125325229138811	2.024714962060854	0.1389190701354696	0.46135684386258696	0.8762712790990292	-0.6493511076787506	-0.6256379349755883	0.4323428191561195	0.7476928720464546	-0.629068388126946	0.2126695374290591
242														8.631737675010303	4.217821018236524	2.052305846907389	0.13724494003948529	0.4617556192466084	0.876325039313461	-0.6486054219776584	-0.6267608779576263	0.43183539507892216	0.7486486712836278	-0.6276563948180296	0.21347743915761186
243														8.612215940191014	4.235214309092874	2.0447565079740406	0.13533213284465645	0.46209463444878357	0.8764438160163843	-0.6476655846232858	-0.6281682149227189	0.43120063109344176	0.7498096453862766	-0.6259977975795523	0.2142714472608429
244														8.598711211665588	4.228459594186089	2.0726767984985535	0.13325975067001317	0.4622771620572511	0.8766650810267631	-0.6468067545426518	-0.6296426164702595	0.4303384688852352	0.750921341506132	-0.6243796929471528	0.21509797280739634
245														8.629520841447851	4.1430032343291865	2.0126705520348898	0.13106292969383276	0.46228044932014273	0.8769944667079927	-0.6460546931320745	-0.6311587666953333	0.4292457858915414	0.7519546807767676	-0.6228446013252366	0.21593693676144562
246														8.615345083171418	4.081289645974663	2.0092132168568844	0.1285422674563243	0.46217649982589837	0.8774222293091669	-0.6450644393853344	-0.6330456178883105	0.42795457085173366	0.753238842942709	-0.6210041293591281	0.216760505630616
247														8.602725722194835	3.9933012754817288	2.0069148236838315	0.12582630583346727	0.46189621751633203	0.8779633392143485	-0.6439263792128788	-0.6352050176398535	0.42646618121364144	0.75466983437401	-0.6190044182469621	0.21750165810091063
248														8.589187486755675	3.952887292466833	2.001154813815796	0.12296790934580032	0.46157097753817666	0.8785392000164679	-0.6425211796666443	-0.6376449810283236	0.4249416569944313	0.7563368475427513	-0.6167342303325163	0.21815925876582004
249														8.59596353122538	3.8884204719849436	2.011365293815052	0.11999597631932629	0.46108632768607677	0.8792043926688144	-0.6410360905886904	-0.64025198735727	0.4232612942944748	0.7580723555373454	-0.614391398951868	0.21874531461045402
250														8.569933091255159	3.773648208114128	2.0280458004083353	0.11694898100370599	0.46049432998849404	0.87992494446438	-0.6393597422813742	-0.6430724577919511	0.4215174183581426	0.7599618778544677	-0.6118846182719963	0.2192148674931603
251														8.566073338747282	3.6869303629926886	2.092045815394247	0.11397527499332538	0.4598395202061035	0.8806572842751131	-0.6377166553639281	-0.6458445153415131	0.4197646119847792	0.7617920347192152	-0.6094526049332366	0.21963701459100965
252														8.486938239385411	3.7437070578095666	2.118413149604725	0.11098476492265225	0.4591201544732504	0.8814142418361093	-0.6357729371582128	-0.6488695755837656	0.41804431135821485	0.7638554538211295	-0.6067758710085658	0.21988153180636535
253														8.493238145780964	3.7273585372295854	2.12198998106466	0.10817025706189504	0.4583310592059939	0.8821744927474808	-0.6339948795065917	-0.6517050631535252	0.4163304017477967	0.7657347375211507	-0.6043286778129691	0.2200844404455774
254														8.434690921884192	3.7133761846766973	2.1666464138026593	0.10549375427911722	0.457449332593364	0.8829559309036794	-0.6323447160239606	-0.654409941605407	0.41459352195202537	0.7674706690973108	-0.6020695445194797	0.22022950673656883
255														8.406257064953378	3.746235040083846	2.168865890243538	0.10304663992535762	0.4565760666609167	0.8836966025466774	-0.6308145860176065	-0.6569128604261405	0.41296301514080197	0.7690606920572197	-0.6000031576243517	0.22032217948558402
256														8.331941320729998	3.759871616867193	2.228934888061547	0.10090051023396729	0.45563152100156773	0.8844314581155079	-0.6295921753866601	-0.6590836800428262	0.41136649765519184	0.7703458831761345	-0.5983382152019072	0.2203601608789077
257														8.30744859193512	3.748544974083079	2.2674341584233644	0.09907653471059064	0.4546086179732582	0.8851637389399694	-0.6286276209015667	-0.6609625213483117	0.4098241813418526	0.7713696613877021	-0.5970423350461236	0.2202936577691129
258														8.347889432289739	3.734981794836657	2.263519908558123	0.0975940462731415	0.4535849729271716	0.8858533030173185	-0.6278549895801074	-0.6625620950186589	0.4084232881507234	0.7721874864250257	-0.5960470976182525	0.220123472690802
259														8.45667605752624	3.7220283024627667	2.251505483438067	0.09631365490431143	0.45259114005891005	0.8865015170991811	-0.6270304123248494	-0.6641092566617623	0.4071753396706279	0.7730178147356651	-0.5950799569438865	0.2198256194008322
260														8.492886927310487	3.683427126874183	2.213442624658124	0.09530076517608332	0.4515991721653671	0.8871166506477085	-0.6263317980081591	-0.6654584369146763	0.40604623818346447	0.773709404725521	-0.5943258840389096	0.21943222325048153
261														8.517241964981276	3.7723518753424377	2.216619471084935	0.09451368259665471	0.45061440559642657	0.8877014257457277	-0.6256211898322257	-0.6667298149098404	0.40505491077531725	0.7743805851355837	-0.5936480534620401	0.2188988304806625
262														8.572114128403898	3.8351193712273663	2.182698142325889	0.09389366784917258	0.4497194103491497	0.8882209359686599	-0.6247494461549264	-0.668021559140765	0.4042713520053749	0.7751594085521647	-0.5928740578557592	0.21823895815070202
263														8.59990510328039	3.9787614030353264	2.2129728669801856	0.09348640221242516	0.44885103685585837	0.8887030096240236	-0.623942882305044	-0.6691741294680812	0.4036102873707626	0.7758579587928776	-0.5922319910001961	0.21749872784384935
264														8.677406815967899	4.121097334881598	2.2198637375497867	0.09310787522699199	0.4480353688190894	0.8891542227633278	-0.6230320455114605	-0.6703696471065219	0.40303300919910134	0.7766350454599125	-0.591497121316258	0.21672369883808212
265														8.728021462517413	4.294856094825868	2.296095192536435	0.09292864345039176	0.44719988850928505	0.8895934616125241	-0.6224659262230344	-0.6712406689217307	0.40245761898218263	0.777110312579733	-0.591141458622884	0.21598920801613983
266														8.717724435773619	4.364107232057438	2.3014560556241106	0.09275567201419749	0.44633099514702074	0.890047767302556	-0.6220471575092414	-0.6720112112117683	0.4018186977236938	0.7774662173650169	-0.5909226470332325	0.2153060753424529
267														8.775480878024448	4.334144881787197	2.3097505986497673	0.09254680344200977	0.4454638182955962	0.8905038325364885	-0.6217904191200424	-0.6726689273105239	0.4011149323092219	0.7776964471200756	-0.5908286560589437	0.2147317752834786
268														8.76040068869623	4.2531572258170485	2.2966117746662227	0.09235234929833896	0.4446097505388616	0.8909507356216997	-0.621686620271547	-0.6731985030397949	0.4003867151646264	0.7778025390511514	-0.5908688054304014	0.21423646985243053
269														8.745848972144897	4.245052844241384	2.2770559880452863	0.09205148418263859	0.44377805918228636	0.8913964092636768	-0.6214384933361172	-0.673862832405014	0.3996537027267836	0.778036453683187	-0.5907367580331319	0.2137506946154682
270														8.712101209340743	4.235735291098565	2.2429056789257906	0.09169112253742823	0.4430249102833643	0.891808088613376	-0.6212679815862245	-0.674452061209713	0.3989241935327413	0.7782151586184921	-0.5906296182874564	0.2133959252141631
271														8.697902506103324	4.300707412243201	2.2180823078406307	0.09130002173945462	0.44230954086904994	0.8922032145686236	-0.6212119391681329	-0.674946831034847	0.3981739593582002	0.7783058734619335	-0.5906005801997047	0.21314530724937156
272														8.670959514236941	4.298131914306618	2.2541043517246964	0.09082630856807633	0.4416852265393879	0.8925607779466593	-0.6210660239824114	-0.6754960562399039	0.3974695860805135	0.7784777296278775	-0.5904398687937541	0.2129628742580242
273														8.666003558683824	4.27583173574699	2.343166711711808	0.09037968114564343	0.4411601894287893	0.892865723666872	-0.6211339000709597	-0.6758288402071893	0.3967972491422352	0.7784755560829455	-0.5904515780378276	0.21293835392899152
274														8.654340819207825	4.3200420640035935	2.358168367386551	0.08989210430260058	0.44067017546955334	0.8931568764980112	-0.6212763088533885	-0.6761025519801055	0.3961074188443055	0.7784183692857972	-0.5905041368674923	0.21300165891564893
275														8.744375543734911	4.288636853082317	2.370452447987651	0.0894059335012613	0.44024069812617894	0.893417431421697	-0.6216007840282264	-0.6762100529373067	0.3954142506309291	0.7782152943435784	-0.5907013560335709	0.21319677209056925
276														8.899414293293239	4.276452609397085	2.3401767134836935	0.08892820752498248	0.4398655529865713	0.8936498582790753	-0.6220317781717932	-0.6762090389729136	0.39473763762246605	0.7779256011025928	-0.5909819209647164	0.21347629433270396
277														9.023689916970314	4.292897614033109	2.3466124881525494	0.08852464364379381	0.4395968543758065	0.8938221260914472	-0.6226917089721525	-0.6759613204674804	0.3941209570794227	0.777443517591522	-0.5914650444910131	0.21389408149868144
278														8.955347514380167	4.240565450262541	2.3641615332679917	0.08814945368642546	0.4394928217200498	0.8939103609822038	-0.6234654728033653	-0.6755438795517305	0.39361309813352735	0.7768658043940803	-0.5920190254178882	0.21445977596368246
279														8.933761622707491	4.0648841583479545	2.3714414342049017	0.08788855977094429	0.43949616672972797	0.8939344050271609	-0.6243549356121711	-0.6749514862446386	0.3932192843603616	0.7761807234388849	-0.5926918344688312	0.21508108683903573
280														8.839062373622221	3.8897777292017657	2.3510760632751744	0.08772860396371979	0.43964846965291243	0.8938752234951082	-0.6249700464962447	-0.6744682412602745	0.39307128172095535	0.775703637370007	-0.593128834793188	0.21559696729735425
281														8.789729599217695	3.7738814152432445	2.42387678590537	0.0876136857092707	0.43991810384471886	0.8937538273966186	-0.6252611805398798	-0.6741656421443465	0.393127387829921	0.7754819779893749	-0.5932729126310828	0.21599757626399083
282														8.676743865440866	3.7241771872928595	2.373958096954831	0.08750270792984643	0.44034926137410807	0.8935523510753144	-0.6249103045360608	-0.674281509978387	0.3934864121998557	0.7757772795007548	-0.5928211984304749	0.21617733299738862
283														8.598403190901067	3.74957167401534	2.312286660565947	0.08745146291374073	0.44102492209767036	0.893224081472835	-0.6241191321720198	-0.6746047896764578	0.39418737499116635	0.7764196999632936	-0.5919505011690802	0.21625691590000815
284														8.54528712618691	3.7850048921590544	2.333052447402815	0.08741340034093897	0.44182493589400906	0.8928323602239612	-0.6228916500388059	-0.6751982900465232	0.3951117075336855	0.7774090877734632	-0.5906758799379788	0.21618768490995474
285														8.57013081116584	3.9342302036425583	2.246904379691228	0.08749519623474888	0.4427892683486182	0.892346487902058	-0.6214464288474438	-0.6758392044257346	0.3962899264855825	0.7785556670583043	-0.589219003085003	0.21603712573285516
286														8.569304619851062	4.022668938398866	2.273034919110312	0.08773662159535478	0.44382423505323143	0.8918084624012302	-0.6201225533243108	-0.6762976867952996	0.39757949858344477	0.7795834170180699	-0.5879128228017654	0.21588934363624607
287														8.579000704415156	4.058242898185738	2.250999799671892	0.08817163778551979	0.4449295525335607	0.8912145956909063	-0.6190855245328047	-0.6764385575941727	0.3989536202541072	0.780358171357334	-0.5869144495428629	0.21580674992603255
288														8.603388113305007	4.0678327462962764	2.2133811541220565	0.08876131093264689	0.4460560072789578	0.8905927621825097	-0.618401666222791	-0.676248372928492	0.4003342569958794	0.7808334066203838	-0.5862782415218234	0.21581708603279046
289														8.611458243428903	4.006572759830459	2.20241878021826	0.08956537345212073	0.44715280885538655	0.889962026948971	-0.6180265262715977	-0.6757640266087936	0.4017290046363749	0.7810385756817937	-0.5860011483557079	0.21582723976075674
290														8.600687850267768	3.9195619213906694	2.178483060849761	0.09051368518930053	0.44818144601332766	0.8893484492834376	-0.6178760157355728	-0.6750898518011996	0.40309170318150783	0.7810483352342457	-0.5859923919680505	0.21581569586889732
291														8.624129429230901	3.7833931594496257	2.156254300607285	0.09154093526447654	0.44927173744194804	0.8886929520969538	-0.6179045599964191	-0.6742230826993033	0.40449621690577087	0.7809060198939031	-0.5861553895438837	0.2158880436757009
292														8.59466729114496	3.6713439028969104	2.11952402017553	0.092598893731556	0.4503848958039562	0.8880196453408851	-0.6177460596690059	-0.6734720125106699	0.4059867659520996	0.7809066849778588	-0.5861645622148165	0.21586073139967704
293														8.637785919221198	3.6112961652741125	2.1041517205447247	0.09375394321769948	0.4515106083521789	0.8873265287798946	-0.6174078813206467	-0.6728126903690572	0.40759120667833454	0.7810363027505713	-0.586055675020553	0.21568736532750687
294														8.662300140878024	3.623914626441446	2.0645915097455867	0.0948701756924934	0.45265518934861027	0.8866244578849879	-0.6166112041023563	-0.6724975387002199	0.4093136736264599	0.7815307241174317	-0.5855342346933435	0.21531230169816745
295														8.667839939491504	3.6603561459860163	2.0056619834100733	0.0960550138855149	0.45381417259749374	0.8859041319787968	-0.6156032063050183	-0.6723050485400457	0.41114305794278916	0.7821803671113423	-0.5848577762646392	0.2147911889448602
296														8.645699983834016	3.753267574107941	2.012111981104161	0.09718165003080165	0.45494675660644696	0.8852000765649344	-0.6142680857280659	-0.6723834690460609	0.413007493163941	0.7830903177496633	-0.5838869061786363	0.21411593831350373
297														8.638850246668746	3.844472700359936	1.9985960194267498	0.09829019438635939	0.4560773781822771	0.884495597952795	-0.6127556841423474	-0.672594313957523	0.4149064477484693	0.7841361547835529	-0.5827609406458103	0.2133545800278843
298														8.666601739096008	3.8865773610508887	1.9859027643972063	0.09941652041172372	0.45708982622733574	0.8838468454594883	-0.6113115497117936	-0.6727967649323997	0.4167045743514967	0.7851207197993122	-0.5817331036273943	0.21253717671468356
299														8.610307771012465	3.95447098022288	1.9957195896413562	0.10053998523244662	0.4580245009668661	0.8832356808256293	-0.6099603088503979	-0.6729619992106335	0.4184143511467487	0.786028073923945	-0.58080608134943	0.21171717660816408
300														8.565911824198787	4.06426694653948	1.9470782044295296	0.10163880687260729	0.45887995451355146	0.8826657013179756	-0.608656627728286	-0.673132877230245	0.4200348070269445	0.7868968563032536	-0.5799321658068061	0.21088390313792016
301														8.575328521619245	4.126096229973922	1.915689493311895	0.10277149013811149	0.45963719100055866	0.8821403932843723	-0.6076404983591136	-0.6731222746673541	0.42152037685091137	0.7875347900687812	-0.5793445054505671	0.21011639259124346
302														8.551543639903219	4.113784935628567	1.896241599615382	0.10385630550587449	0.4602895326149383	0.8816730765832599	-0.6067724030037649	-0.6730663669376076	0.42285803368322716	0.7880616211691227	-0.578891364473966	0.20938879955184486
303														8.577833431092008	4.122543308130432	1.85226700865063	0.10498973690175539	0.4608575431540713	0.8812420099287672	-0.6061248046764595	-0.6728691549428105	0.4240988345686322	0.7884097134746781	-0.5786686662024664	0.20869283278118225
304														8.576512260764783	4.186341620827889	1.8744458035178568	0.10602767482293929	0.46128153443890396	0.8808958384266165	-0.6054562828664508	-0.6727882633320361	0.42518071717824096	0.7887843949452739	-0.5784248427482634	0.20795162798705222
305														8.591920769359836	4.198376913983147	1.8833074338758826	0.1070146692305608	0.4616216376385231	0.8805982763061725	-0.6049034440235872	-0.6726794836760169	0.42613863430786286	0.7890752080618658	-0.5782800151356571	0.20724994599957752
306														8.604808408987852	4.181106087245697	1.8608568254023117	0.10791595081023608	0.4618650848784838	0.8803606027821295	-0.6043166942867557	-0.672671511895494	0.4269828686148412	0.7894019765411354	-0.5780948714998446	0.2065207955110758
307														8.617820967069699	4.1870239343206554	1.8356896386210801	0.10874673936367862	0.4620453885255316	0.8801637379601926	-0.6038163174279725	-0.6726550269149915	0.4277161086207931	0.7896708184335358	-0.5779699591745947	0.2058415040904704
308														8.62010126564823	4.149464118477308	1.8690536414833985	0.10947293758772847	0.46216444893356956	0.8800111920185124	-0.6031763232892561	-0.6728069260621612	0.42837969520746455	0.790059490772162	-0.5776978988924188	0.20511250243736123
309														8.605736438650148	4.210107377330575	1.9096899339627862	0.11020312618404454	0.46218280105177734	0.8799104098663666	-0.6026391512027424	-0.67293063508965	0.42894103766774166	0.790367841208701	-0.5775391058359373	0.20437039123445505
310														8.673770330576028	4.191611204381598	1.8986401476229249	0.110835494818052	0.4621426185919838	0.8798520859606921	-0.6020386649275232	-0.6731635377556988	0.4294185573173527	0.7907369594376642	-0.5772997934497944	0.20361731130260427
311														8.63479982408688	4.21606804972741	1.8582917671674968	0.11142833445721628	0.4620637849220668	0.8798186091141659	-0.6013685752819944	-0.6734797492889776	0.4298614474001605	0.7911634236637811	-0.5769940086007399	0.20282591327405475
312														8.605853512059403	4.300277512630342	1.9147022684318384	0.1118704715214831	0.46190285613016535	0.8798470032342881	-0.6007705169860985	-0.6738368336082201	0.43013800993762963	0.7915552940394105	-0.5767058809927675	0.20211517337038004
313														8.556105245995322	4.304761870399412	1.9309239159590572	0.1123252473080475	0.4617184944288132	0.8798858282297628	-0.6002906131334874	-0.6741145431095469	0.4303728180915104	0.7918549226979696	-0.5765289365423011	0.2014451953470117
314														8.562840226239981	4.33955672716345	1.9906479388223537	0.11276053364667815	0.46151479134411677	0.8799370201453695	-0.5999653032263589	-0.6742959931046997	0.430542156597295	0.7920395804353587	-0.576479844446918	0.20085888571392
315														8.575593855656004	4.310721326509454	1.9353503355034316	0.11323941632834073	0.46123454602645503	0.8800224588846511	-0.5997191143303902	-0.674441755577006	0.4306568265347468	0.7921576979973052	-0.5765336173077651	0.20023778269256354
316														8.539735815559713	4.234660141826196	1.9085439203416334	0.1136938955201714	0.46095241204909637	0.8801116815197765	-0.5995689921422338	-0.6745272083979388	0.43073201505394243	0.792206236899833	-0.5766592745781549	0.19968314716070032
317														8.544897994825085	4.191291201368566	1.9436850226898579	0.1141528921915323	0.4606856324838099	0.8801919479450493	-0.599427919789887	-0.6745969376232575	0.430819150834421	0.792246985592673	-0.5767908804517585	0.19914063886361302
318														8.561403462606702	4.165984758840716	1.9228937208629717	0.1145012753632299	0.46041787974606435	0.8802867907394345	-0.5991096005577824	-0.674835577691881	0.4308881868893138	0.7924374703783819	-0.5767255145139709	0.19857123771812327
319														8.557971256885223	4.186910016693884	1.880951785966225	0.11478902266197932	0.4601754684798265	0.8803760665111704	-0.5986941329839532	-0.6751540341762123	0.43096677977099274	0.7927097926775606	-0.5765462412894208	0.19800408139263412
320														8.584229569990237	4.22303516789974	1.9563040167378956	0.11502792643027399	0.4599903696006128	0.8804416142004212	-0.598108128614676	-0.6755856005155512	0.4311041206728283	0.7931174204531142	-0.5761882993004404	0.19741276838914032
321														8.564694283006846	4.270775558447415	1.9300378685677568	0.11525811020813254	0.4597950859286568	0.8805135132336754	-0.5975469558826478	-0.6760068487994947	0.43122195664362795	0.7935069020157492	-0.5758499972493158	0.19683388204608462
322														8.58293951262509	4.3231829385455	1.93443047842248	0.11550029695634545	0.4596767643594527	0.8805435558284557	-0.5970141174187339	-0.6763652436562675	0.4313979610250013	0.7938726755631073	-0.5755235264364286	0.19631313127870811
323														8.568247374904287	4.302638601412511	1.9519262581609	0.11571795092906634	0.4595076560552418	0.8806032420218515	-0.5966005065026785	-0.6766705569861942	0.4314913590661359	0.7941518692753455	-0.5752996361328687	0.19583957003594346
324														8.553182015221742	4.306011976243438	1.9666852651992217	0.11587429577778324	0.4593698173018189	0.8806545966098719	-0.5960849408860017	-0.6770559202642653	0.4315993791515931	0.7945161362910979	-0.5749562172785005	0.19537005242836736
325														8.533950704443262	4.32919469504805	1.9446578907972674	0.11597795297724683	0.45925052249479825	0.8807031690708633	-0.5955855168702067	-0.6774388616023698	0.43168794387304044	0.7948754660433643	-0.5746003362156512	0.19495498737709768
326														8.48357265645426	4.380578749824429	1.9575608288384696	0.11596466529238786	0.4591515389997509	0.8807565274454593	-0.5949230050544161	-0.6779706261582888	0.43176665934687486	0.7953733805330973	-0.5740519961647178	0.19453917661657522
327														8.552171581152749	4.406024075318721	1.943390061597352	0.11584636642917684	0.4590034799879246	0.88084926334994	-0.5941888754752265	-0.6786143844065657	0.4317662533570494	0.79593919343543	-0.5734093848512359	0.19411975097316728
328														8.533848329530361	4.404007036302598	1.9245994218500628	0.11567043290166878	0.45885945322102895	0.8809474179212051	-0.5934181032271507	-0.6793017682031026	0.43174536763980265	0.7965395820137444	-0.5727103193638439	0.19372037677934864
329														8.60626453255604	4.433268558572818	1.9450438285060039	0.11538849023194236	0.4587937723926334	0.8810185984051244	-0.5926262868048613	-0.6800018955127096	0.43173082619498543	0.7971697313056207	-0.5719315488000806	0.1934288576641705
330														8.657469429178995	4.38294220277863	1.9259969449460135	0.11502679669461197	0.4586947975608915	0.8811174261883311	-0.5916960960309052	-0.6808438968293846	0.43167964753039256	0.7979126305454515	-0.571008468274115	0.19309262848510494
331														8.708400341157247	4.356390623711195	1.9038077427247384	0.11456093726961608	0.458607640284893	0.8812234812601334	-0.590669315189902	-0.681783398730955	0.4316030089190289	0.7987399775552735	-0.5699565154353351	0.19277971565445215
332														8.728135689073282	4.358353642332832	1.9164405345292146	0.11400458754735915	0.4585696805182673	0.881315381760429	-0.5895230891251637	-0.6828126613485063	0.43154304175886604	0.7996658560964579	-0.5687536528335834	0.1924936388091173
333														8.693555652512433	4.406214228570507	1.9116081625288934	0.11342755253910031	0.4585686200136653	0.8813903851663872	-0.5884859072886067	-0.6837503754457076	0.43147394011754564	0.8005114160633159	-0.5676268535020313	0.1923050387683286
334														8.65944480756755	4.42951031692901	1.9107891114195996	0.11279083581484739	0.45854881666083486	0.8814823935253254	-0.5875468569025919	-0.6846456384045077	0.43133402457674264	0.8012907826127004	-0.5665627348781712	0.19219716217284213
335														8.72929301230375	4.4041049623561115	1.9066987460775546	0.11221239531142857	0.4584870038739517	0.8815883651779659	-0.5869194390659991	-0.6853189182760611	0.4311189537695861	0.801831622215615	-0.5657982392440052	0.1921936577607563
336														8.749514563066713	4.3801531066970405	1.9262929120780623	0.11163488619328554	0.45840539724123824	0.8817041136144907	-0.5865424800598925	-0.6858236788612626	0.43082920119044227	0.8021879899810287	-0.5652524863220918	0.1923123902323785
337														8.663503721237998	4.326599506250849	1.9272245093678126	0.11115750112817602	0.4583381278138425	0.8817993935896312	-0.5865026557301105	-0.6860488496973325	0.4305248084030635	0.8022833942968451	-0.565033748037291	0.19255705340097037
338														8.611491939004534	4.296792916392278	1.9220637028184122	0.11072302852950344	0.45819046194821117	0.8819307861351364	-0.5866943299196984	-0.6861352297941871	0.4301258068000039	0.8022033247209406	-0.5650486235846992	0.19284677542470371
339														8.58732953460725	4.232851745283389	1.8489166593683042	0.11040418798949314	0.45802585466543505	0.8820562520227255	-0.5870598528468114	-0.6860674287305012	0.42973504908326743	0.8019798279569508	-0.5652643626597345	0.19314387346489495
340														8.605286400470698	4.130074055953122	1.8468335017429471	0.11009522071711075	0.4578386513370547	0.8821920492257438	-0.5874386426888949	-0.6859975806555145	0.42932873233759855	0.8017448992360845	-0.5655007415350111	0.1934270608582808
341														8.572756196015417	4.078018704930515	1.8600776853374597	0.10976879622782942	0.4576398997290076	0.8823358394345759	-0.5877096160976952	-0.6860150949053667	0.42892971068495717	0.8015910544167728	-0.565640355471571	0.1936563186188405
342														8.582860346986635	4.0147607977308075	1.7820237978033757	0.1094673993584685	0.4574808283175037	0.8824557667099374	-0.587712050562104	-0.6861940126362127	0.42864008520704117	0.8016304847632604	-0.5655520035718584	0.1937511216846917
343														8.571667363727029	4.019755198761533	1.8360289821558027	0.10923319108374985	0.4573765412207966	0.8825388430582315	-0.5876429354335759	-0.6863736321776928	0.42844721668626967	0.8017130973114204	-0.5654183730584833	0.1937993111629315
344														8.567975913805633	4.062211664300593	1.7957324384300595	0.109036536126277	0.45729351390254913	0.882606183941764	-0.5873564685383692	-0.686683175286641	0.4283440155347015	0.8019497569397471	-0.5651095990344848	0.1937207485618544
345														8.605423821104386	4.114844795650236	1.8193068084315722	0.1089235639924927	0.4572515367048291	0.8826418805995132	-0.5870674143087626	-0.686945772080268	0.4283192235679691	0.8021767313154856	-0.5648243429617004	0.19361289557745492
346														8.589458433103568	4.165648547021085	1.8307033638754582	0.10892129917266058	0.4571825739112295	0.8826778827513707	-0.5868402906424491	-0.6871398895429547	0.4283190930574793	0.802343208275128	-0.5646440173337525	0.19344898506835187
347														8.604647407909757	4.187778898109319	1.8073887044848012	0.10908829786141455	0.45709651866182077	0.8827018272876425	-0.5867720071175295	-0.6871726727034428	0.4283600466346889	0.8023704599079936	-0.5646737912430952	0.19324894449953434
348														8.642559566974837	4.193048798544357	1.8363223165100988	0.10933087116412421	0.45697223557390193	0.8827361647316169	-0.5867707641903234	-0.6871510045785303	0.42839650698648424	0.8023383518827939	-0.5648007372705061	0.19301112992958508
349														8.661266344972914	4.220169751490368	1.8463749020222284	0.10965154625413359	0.45682489682881794	0.8827726502568022	-0.5868212599468426	-0.6870773758013485	0.4284454323905598	0.8022576564162406	-0.5650094630174555	0.19273546487932292
350														8.624271621358632	4.167565576922559	1.8205494585571016	0.11001765088850957	0.45663895055087045	0.882823303573696	-0.5869636271398545	-0.6869421338906267	0.42846727424695896	0.8021033704628103	-0.5653241313844586	0.19245469484168878
351														8.625111563488339	4.119840628217572	1.8250061825133923	0.11038280581579218	0.45648760518253245	0.8828559919346697	-0.5869984139390991	-0.686866123352001	0.42854146896697864	0.8020277415483927	-0.5655386767552775	0.1921392903095943
352														8.643149914448825	4.195686985090757	1.8274968228864585	0.11077226283518243	0.45631172144291476	0.8828981360611068	-0.5869745738159661	-0.6868349822407284	0.428624027399238	0.801991493396244	-0.5657184105579219	0.191761113044017
353														8.676876690651996	4.245340847638674	1.8138746023777264	0.1112712585714824	0.45614764990389356	0.8829201710817763	-0.5869965181096984	-0.6867282076562642	0.4287650365133625	0.8019063503570779	-0.5659802914381115	0.1913439702750564
354														8.680485388211169	4.25136714708355	1.8446671736205869	0.11166956977202719	0.4559772983220661	0.8829578758932042	-0.5870332777189852	-0.6866484231511958	0.4288424813780467	0.801824069255491	-0.5662143113688358	0.19099611400151512
355														8.677069768045953	4.247651235049256	1.8075309410270881	0.1120989960107503	0.45578580710456523	0.8830023290656838	-0.5869843932401982	-0.6866286425992463	0.4289410556880203	0.8017999358853919	-0.5663924480467206	0.1905687739631674
356														8.665137942397884	4.279837521166216	1.8538743806378137	0.11254798673956234	0.45557154153121826	0.883055786022458	-0.5871261793919906	-0.6864783902186035	0.42898749309908696	0.8016332079906844	-0.566746848522111	0.19021621785962428
357														8.664757100681701	4.328552716431372	1.844769888625346	0.11294937056901971	0.45534256833374426	0.8831226331327331	-0.5873808391115052	-0.6862715574313465	0.4289698116481141	0.8013901606163671	-0.567181183506632	0.18994555941977115
358														8.612256087684717	4.30181074036903	1.834889073820499	0.11334399062708206	0.4551048577510426	0.8831946038332273	-0.5877661763873474	-0.6859783585848779	0.42891096214505225	0.8010518470634255	-0.5677263953742155	0.18974371744981244
359														8.578715598034607	4.277170032134342	1.840892148388596	0.11376929176889422	0.45488754188211766	0.8832518737545076	-0.5882610307773877	-0.68558638622772	0.428859262098816	0.8006281958057244	-0.5683736722083986	0.1895939366678433
360														8.613183694592033	4.300589542759601	1.8333970329587688	0.1142189896436625	0.4546005246652821	0.8833416017480616	-0.5889329043069901	-0.6850930934603232	0.42872542205647035	0.8000700323279922	-0.5691975195545174	0.1894785663437168
361														8.564303882837295	4.277699507695816	1.8595604883031545	0.11465631265037102	0.45439091746472116	0.8833927915117881	-0.589787896761274	-0.6844345902352582	0.4286018298180809	0.7993773619532476	-0.570156281921951	0.1895195171522011
362														8.587048466776778	4.2840146586712295	1.909815075475933	0.11524323482646959	0.45420200382503173	0.8834135705025465	-0.5907752515054921	-0.6836175567049598	0.4285459582977821	0.7985634596169264	-0.5712858968030523	0.18954900442518444
363														8.622173035317442	4.235146306012298	1.9136092413618278	0.11593593932782092	0.4539807338836055	0.8834366707550001	-0.5919748539798073	-0.6826243361002102	0.42847378918591117	0.7975742161252213	-0.5726478053972177	0.18960448503658517
364														8.673024038780925	4.159914895323262	1.901435801395694	0.11669446728851524	0.453751081948041	0.883454784884451	-0.5931834615573579	-0.6816017229132506	0.4284302419957285	0.79656498933802	-0.574046206287151	0.1896184875170394
365														8.739123745167975	4.0829557352088655	1.8695602432767942	0.11742834206586011	0.45353632739506994	0.8834678173044314	-0.5942147489292238	-0.6807045713420015	0.4284274952767182	0.7956880146355377	-0.5752791377123758	0.18956396566400036
366														8.789821182369693	4.008914668319869	1.8555161925478891	0.1180965567467257	0.45337674266192346	0.8834606570175223	-0.5949048004007982	-0.6800478995972646	0.4285126984272878	0.79507325558382	-0.5761808600314777	0.18940468523437556
367														8.75215396047193	3.9578075955831915	1.8295824446232056	0.11861468457330221	0.4533207596032312	0.8834199712007454	-0.5950070701605741	-0.6798186783090068	0.4287343595760961	0.7949195827645122	-0.5764953196123495	0.18909257891982242
368														8.753284289662037	4.06242448042586	1.8482377986185363	0.11906600359611347	0.45339889650614423	0.8833191537800259	-0.5946705927475325	-0.6798658132108604	0.4291262776251693	0.7951038755464274	-0.576378275678522	0.18867408517574705
369														8.699799035951079	4.214188063768933	1.848199100745006	0.11947978078746746	0.4535071824572165	0.8832076864717016	-0.5939891916243688	-0.6801610899791181	0.42960182950244374	0.7955510179846466	-0.575944552138602	0.1881128667727372
370														8.645605786648108	4.3906196005156595	1.844327596787713	0.11990637143386484	0.45364410562800817	0.883079547673101	-0.5933552722820149	-0.6804028746111438	0.43009469780041254	0.7959597872661031	-0.5755510000424435	0.18758748200624462
371														8.661790572871102	4.470274306017732	1.8456012859843447	0.12035643952029257	0.45372680533902876	0.8829758284250123	-0.5928969217769885	-0.6805353510560603	0.43051698701720903	0.7962333625347341	-0.5753291423870716	0.18710641439241732
372														8.661410949347447	4.425795638365756	1.8486475328926704	0.12085048707568236	0.4537879811638435	0.8828769041745367	-0.5928499160181586	-0.6803653205294702	0.4308503309713177	0.796193529772023	-0.5754819708488486	0.18680568614764514
373														8.68210542309565	4.286164336540384	1.8808867562064555	0.12134493506305577	0.45384972243623845	0.8827773423571154	-0.593025415651158	-0.6800337280182405	0.4311322130731877	0.7959876023697313	-0.5758251107777105	0.1866257717238519
374														8.632389895849407	4.242418195481461	1.9090580470312128	0.1218478652920989	0.4538772359025328	0.8826939177615504	-0.5933350615555596	-0.6796183039685922	0.43136117771504906	0.7956799623294647	-0.5762936887042321	0.18649123815088672
375														8.613780164610006	4.169910627812868	1.9027717475423227	0.1223475112376215	0.4539264907795605	0.8825994717098544	-0.5936386502812606	-0.6791972025711006	0.43160666458227354	0.7953767908269664	-0.5767511603700035	0.18637022193915856
376														8.646955823501031	4.172780043113189	1.8982420052931852	0.12283525499998982	0.4539868794058714	0.8825006591818538	-0.5938760183046563	-0.6788223488374598	0.43186976462980314	0.795124377070465	-0.5771448102912413	0.18622860398497357
377														8.68043517254648	4.151992384383511	1.8966826884166283	0.12331852984303177	0.4541297361831051	0.8823597468785715	-0.594006834399178	-0.6784856091159983	0.4322188784742752	0.7949518355752259	-0.5774283167084518	0.18608631916082133
378														8.681581983891505	4.2086198277661815	1.9235646472972903	0.12378587662006696	0.454292277782796	0.8822106228652661	-0.5940339095544833	-0.6782198675695987	0.4325985731984009	0.7948589629920629	-0.5776126189591041	0.1859109770034771
379														8.694503346035063	4.234749101092779	1.9006806841267854	0.12420341530403489	0.4545037471031861	0.8820430009336145	-0.5940301230003426	-0.6779699781293795	0.4329952906481157	0.7947966561297367	-0.5777396062452457	0.18578273003855147
380														8.72808571451339	4.1907476441901315	1.9023056300686034	0.12460623958359901	0.45471727838829057	0.8818761147644155	-0.5939801851865908	-0.6777575650776294	0.43339614971264606	0.7947709259041488	-0.577820802425102	0.18564023169095953
381														8.702097547437381	4.2366552235278965	1.8463191070124139	0.12500095157189867	0.454976166386459	0.8816867074683622	-0.593900152106731	-0.6775473246173694	0.4338343373125818	0.7947687534331743	-0.5778635746645798	0.18551635410969006
382														8.665818764618754	4.240696149715008	1.8494861932386415	0.12535644024824694	0.455214915982613	0.881512985244818	-0.5937515789132711	-0.6774105521229475	0.43425108682705826	0.7948237700435774	-0.5778358972402341	0.18536679970881628
383														8.667184121015888	4.2734499927798515	1.8797623280828952	0.12569729531360224	0.4554305234037126	0.8813530667689687	-0.5937133384483924	-0.6772099449631661	0.43461610898751907	0.7947985038356015	-0.5779011410225858	0.1852717180399735
384														8.64192462406723	4.294526373008518	1.827112604849147	0.12603196490851282	0.4556205447035287	0.8812070489194691	-0.5936644120669164	-0.6770317114276049	0.43496048966159123	0.7947820516761449	-0.5779601897756181	0.1851580659004342
385														8.6217611333319	4.271389415960648	1.8150867052417152	0.1263596417432028	0.45582681053257634	0.8810534375043485	-0.5937627873265278	-0.6767406016441159	0.43527911789171936	0.7946565253773247	-0.5781384582312955	0.1851402975831535
386														8.628344118113766	4.259209881557329	1.8870216329288005	0.12665708477378623	0.45603019748466384	0.8809054670387192	-0.5939769837878193	-0.6763771969633683	0.435551638911279	0.7944490704928354	-0.5784032731668063	0.18520347724325908
387														8.63942598324442	4.207106027928928	1.8413055958291011	0.12691342425166768	0.4562124243613682	0.8807742086386496	-0.5941214733181622	-0.6760895073201774	0.4358011622676292	0.7943001055564407	-0.5785958882932742	0.185240763233
388														8.64103519555064	4.238506112932447	1.8733055425286693	0.12718427249112046	0.45641397282325435	0.8806307093456364	-0.5942920889434471	-0.6757677378501897	0.4360675148415344	0.7941291292038964	-0.5788127934768991	0.18529618522066296
389														8.640791436611112	4.192783318865007	1.8805828777311155	0.12748444162523132	0.45658796688838615	0.8804971014354521	-0.5945474121438961	-0.6753869567660431	0.4363093321753492	0.7938898486921842	-0.5791199246469015	0.1853618650652497
390														8.618883143340547	4.241329415983424	1.860582534393968	0.12772138496342544	0.4567777357980851	0.8803643268001033	-0.5947186614642275	-0.6750822293648174	0.4365474742820366	0.793723479260392	-0.5793255420530002	0.1854318063218264
391														8.63641889817126	4.246289712283473	1.8769627429662463	0.1279941245277142	0.4569660099696161	0.8802269990285647	-0.5949349005076591	-0.6747321682211238	0.43679396209833654	0.7935174656202131	-0.5795848228689826	0.1855032745145064
392														8.631702639010172	4.220172188849102	1.8476160771302643	0.12827214138057857	0.45716458360846646	0.880083405842729	-0.5952579407777608	-0.6742966839399844	0.4370262760619319	0.7932302576721718	-0.5799349321446654	0.18563736906049325
393														8.607266233281146	4.215710819342651	1.8003793598435094	0.12855600786552157	0.4573250257264554	0.8799586204396075	-0.5956418134622239	-0.6738330337334038	0.4372183352800648	0.7928960732007149	-0.5803471921995788	0.18577662288068433
394														8.593622933442141	4.248562596341277	1.8521432198721652	0.12889911465357207	0.45749405763471324	0.879820552993877	-0.5960454887362084	-0.6733284773584199	0.43744546738468626	0.7925369351637437	-0.5807994049645006	0.18589582457425569
395														8.621682773889205	4.271560070994283	1.8130859223408333	0.12927203084113137	0.4577073257602056	0.8796549016447591	-0.5964875910797749	-0.6727621702729469	0.4377140801224949	0.7921434817822192	-0.5812874213287912	0.18604740813799997
396														8.570372378026919	4.275648775733718	1.8379558190758096	0.12967402088683172	0.45788535589029467	0.8795030694478896	-0.5969599375586698	-0.6721797374178177	0.4379648770790442	0.7917218458884345	-0.5818207640383174	0.1861749641516765
397														8.616763015714186	4.325408536946739	1.8107193179585208	0.13005748997729466	0.45803486161789797	0.8793685887291398	-0.5973603807603098	-0.6716703308394324	0.4382003447830056	0.7913568252051053	-0.5822911919415581	0.18625612201636774
398														8.62729421485642	4.2976778920490295	1.7620901178644777	0.1304730004855339	0.45818361128417257	0.8792295345897428	-0.5977994224245283	-0.6711203887390007	0.43844415193695163	0.7909567919255779	-0.5828080320048846	0.1863388073842676
399														8.648450142636205	4.3073722910582815	1.8124253670395567	0.13086771526908836	0.4583824891277954	0.8790671958168244	-0.5980875963694828	-0.670663558252129	0.43875006404736594	0.7906736799522438	-0.583177404649391	0.1863846735576104
400														8.592453513109566	4.331901172791393	1.799255420378771	0.1312384181343766	0.45859077938121007	0.8789032794751204	-0.598274986421331	-0.6702847090945505	0.43907339862099437	0.7904704410843857	-0.5834491458735446	0.18639628738601138
401														8.570713344855566	4.357218735497449	1.7817671537757267	0.13159324605709138	0.45881721137157194	0.8787320320446791	-0.5983178141822839	-0.6700089888886848	0.4394357154812239	0.7903790298485219	-0.5835878008985242	0.18634985328175824
402														8.587891338830236	4.363357835805771	1.7968691221540096	0.13196891123870386	0.4590179066541035	0.8785708667132979	-0.5983522829888364	-0.6697443152335567	0.43979210731251345	0.790290295972637	-0.5837337694387901	0.1862689842895558
403														8.637677549059362	4.418782910456644	1.8020961496116576	0.13234130166922803	0.4592620133883811	0.8783872625049526	-0.5984033490519305	-0.6694465394370526	0.4401758315482437	0.7901893518112778	-0.5838833221579504	0.18622850047688014
404														8.656362290148802	4.3767903272988615	1.8229017885200856	0.13272782126128757	0.45947533292767906	0.8782173671103471	-0.5984042004171659	-0.6691957371725068	0.4405558741785625	0.7901238753425465	-0.5840029826817185	0.1861310770197508
405														8.66894941981298	4.4029570768754	1.8006448144927951	0.13310099305665757	0.4596327261437372	0.8780785173918153	-0.5984837387927586	-0.6689194848153129	0.4408672557982254	0.7900008481311733	-0.5841955835951631	0.186048864710146
406														8.644356260876469	4.3996558554701535	1.7513277393178655	0.133468755900927	0.45980072929436683	0.8779347245317433	-0.5985565899146779	-0.6686445752257568	0.44118526798940144	0.7898835989359265	-0.5843780637237646	0.1859735969714326
407														8.646463839894855	4.407288364925802	1.785385533593747	0.13381398901318098	0.4599826818888708	0.8777868469661088	-0.5986382905206451	-0.6683642032748822	0.4414991380549368	0.7897632641918086	-0.5845555783183104	0.1859267662012267
408														8.640924281705	4.406380516937706	1.7513577214968064	0.13417262806018376	0.4601411746950781	0.8776490216650713	-0.5987167177030857	-0.6680927879090708	0.44180348424014115	0.789642955912523	-0.5847410761132817	0.1858544486516644
409														8.607072525595044	4.461512587151091	1.7836190783140853	0.13455044321414328	0.46030743882385694	0.8775039828936955	-0.5988669391066072	-0.6677568335249897	0.44210767978600274	0.7894647347893136	-0.584993908552987	0.18581592902638477
410														8.571177852048296	4.463624866975514	1.7881025432696667	0.13487887499711398	0.460448542024237	0.8773795240528853	-0.5990877791763978	-0.6673993052619687	0.4423482792747513	0.7892411050629616	-0.5852907888251755	0.18583102699872053
411														8.554494375992501	4.467815398418245	1.8079195370611953	0.13524363018122748	0.4605523930600243	0.877268860579291	-0.5994221369181091	-0.6669623450524076	0.44255432667043276	0.7889247507005533	-0.5857070287514716	0.18586289087171673
412														8.554925189254567	4.421575042495609	1.8147079829692123	0.13558743105471133	0.4606550290767192	0.8771618965312571	-0.5997789661784464	-0.6665166176048594	0.4427423519232065	0.7885944713665565	-0.5861335535890309	0.18591992116821845
413														8.540297032093749	4.376661774143863	1.840718121635846	0.1359257451737756	0.46071501897019096	0.8770780256592057	-0.6002332102527146	-0.6660214398540275	0.4428719171097762	0.7881905132064673	-0.5866490543332228	0.18600699433424833
414														8.573474874044184	4.37912952070166	1.8379867356300434	0.13623864965972665	0.46078664375475764	0.8769918467557842	-0.6005965798830426	-0.6655969654132978	0.4430174125984236	0.7878596185689979	-0.5870743978149924	0.1860668505093739
415														8.589459265454519	4.33054205536294	1.8260651864786308	0.13649262932272488	0.46086192180621705	0.876912795647121	-0.600966599843838	-0.6651873870745851	0.4431307774788637	0.7875334329491703	-0.5874793861115182	0.18616944669125585
416														8.574033630277004	4.309493510992232	1.8496270238418373	0.13674118513147576	0.46098095266163486	0.8768115017334177	-0.60131936030608	-0.6647701702559567	0.4432782959484405	0.7872209824502434	-0.5878581308624029	0.18629531064692917
417														8.579341948571875	4.3257004410643365	1.7612210780336646	0.1370461967774106	0.4610877710403452	0.8767077091858456	-0.6016870959533667	-0.6643261476839669	0.4434449323947498	0.7868868905453003	-0.5882761570048767	0.18638718997700007
418														8.567699353566665	4.309077525347131	1.8184576004829272	0.13731718957298344	0.46118709072446684	0.876613059905498	-0.6020012348593107	-0.6639383878786528	0.4435992902710298	0.7865993279145636	-0.5886359523934964	0.186465044644188
419														8.579790751915747	4.35778895962215	1.7951763150183724	0.13763860969378916	0.46129500056476147	0.876505867393663	-0.6023538806193688	-0.6634979079875133	0.4437795946176216	0.7862731177042415	-0.5890479170238615	0.18653990411035906
420														8.515702279815725	4.313652277671347	1.8440274805688448	0.13798787245441912	0.4614027156491864	0.8763942497797771	-0.6026919257321572	-0.663057375092613	0.4439790085044081	0.7859527910204062	-0.589459456898309	0.18658981472841374
421														8.547777261709014	4.34087287298326	1.83812306064221	0.13834338808927016	0.46146502685041035	0.8763053896707084	-0.6030168711777273	-0.6626467766486708	0.44415076547513826	0.7856409867407671	-0.5898722559936831	0.1865983964612693
422														8.542721010033244	4.338948128250371	1.8045806195245464	0.13874288186699746	0.4615354867861955	0.8762051170635048	-0.6033266162146577	-0.6622262105017597	0.4443573340133483	0.7853326727560823	-0.5902892854876401	0.1865774706128252
423														8.571918896004645	4.338181798110649	1.7666571154257704	0.13914575519450206	0.4616063630146561	0.8761038890655225	-0.6035484714619019	-0.6618697379533028	0.44458710347650443	0.7850908873546766	-0.5906335713502983	0.18650545028668397
424														8.574693152064008	4.344545614599694	1.8003261693301695	0.1395364620326069	0.4616353271924255	0.8760264838755536	-0.6036967944333097	-0.6615941559395706	0.44479585566589286	0.7849074825445159	-0.5909196201807398	0.18637125940198285
425														8.61917440563721	4.342549454364991	1.7422735009468273	0.1399233994336822	0.46171245242424447	0.8759241140460234	-0.6036832214538135	-0.6614172144785608	0.4450773376915147	0.7848490367109253	-0.5910574250170708	0.1861803155710114
426														8.578946575529809	4.364527692248745	1.7078353724767528	0.14036708971370748	0.46169382264030473	0.8758629426234941	-0.6036792428861338	-0.6612598109017709	0.44531655504211576	0.7847728663974867	-0.5912480669075683	0.18589586209578618
427														8.604693166881551	4.359989295561825	1.6329314491354063	0.1408205513097036	0.4616138133691393	0.8758323239271505	-0.603549725414131	-0.6612243269069822	0.4455447434982662	0.7847912469449175	-0.5913502150276182	0.18549291605188495
428														8.557710722988112	4.390840989109452	1.6839400711181518	0.14130938309616042	0.4614436621304735	0.8758432536296665	-0.603521058826325	-0.6611450513626073	0.4457011920691793	0.7847254231908984	-0.5915716082929887	0.18506496821255095
429														8.572716409515321	4.391048088176229	1.6612549202500164	0.14184307082310194	0.461255466772895	0.8758561169687589	-0.6035508558379938	-0.6610135301728436	0.4458558930256068	0.7846062118519701	-0.5918652779987646	0.18463094275539874
430														8.565309879433231	4.402309047792732	1.7445297014264198	0.14241898543055964	0.4610353679875627	0.87587854298042	-0.6035635857766939	-0.6608947228530464	0.4460147567394773	0.7844920844172426	-0.5921693632480224	0.1841402039673091
431														8.471872687129306	4.343037817313599	1.670423420218721	0.14315555943732355	0.46073575817734264	0.8759161186660149	-0.6036759206374264	-0.6606791486814483	0.4461820764442612	0.7842715528723088	-0.5926429141011527	0.18355518985022262
432														8.564681530346153	4.32941396526993	1.7080917051308853	0.1440719606659206	0.46035558800901377	0.8759657543184854	-0.6038049359115445	-0.6604222358451957	0.4463878019951809	0.78400438105838	-0.5932244119977771	0.1828166499287155
433														8.536515939730252	4.286416211252598	1.745650251824049	0.14496644524621588	0.4600718205041625	0.8759672652163784	-0.6039970802204147	-0.660076145959896	0.44663968545119603	0.7836914296059958	-0.5938294380651021	0.18219314380457652
434														8.542260925269735	4.24542116281507	1.7788300880353287	0.1460149081947067	0.45982623256902183	0.8759220755445499	-0.6040244654204727	-0.6597751559882004	0.4470471884647736	0.7834756484782436	-0.5943539176131731	0.18140928548304797
435														8.566977406000303	4.2079681552195805	1.8259057515913995	0.1470743103740012	0.4595994618297503	0.8758638489593099	-0.6039477632251458	-0.6595385869567523	0.44749966660371326	0.7833366112491845	-0.5947917173270785	0.18057288410985076
436														8.584156420746073	4.240064290370225	1.829943919214242	0.1482503116778906	0.4594056342761711	0.8757672683325844	-0.6037512782873226	-0.6593302238011889	0.4480714786155194	0.7832663908619034	-0.5951723440967186	0.17962082776945698
437														8.583788856520089	4.322864970091279	1.8468128793054026	0.14942246457826996	0.4592365418376414	0.8756567396647844	-0.6034048739077795	-0.6592239442898933	0.44869404878960956	0.7833105930751175	-0.5954205151956725	0.1786027011565828
438														8.61333420664116	4.403050254020017	1.825170740756328	0.15055122574265062	0.45909623702196345	0.8755369630002255	-0.6030503520000602	-0.6591253658792866	0.4493150620745979	0.783367475314101	-0.5956378070663156	0.1776260155867985
439														8.592253574594903	4.507624205968293	1.8248723756602883	0.1516081979223437	0.45897598411284457	0.8754176148161437	-0.6027530615022397	-0.6590004043590849	0.4498968925256548	0.783392431143177	-0.5958687045500957	0.17673931584504363
440														8.540455517722204	4.537752849448845	1.8381590922908357	0.15268395672391144	0.4588268999282628	0.8753087942328414	-0.6027075392971599	-0.6586907214000163	0.45041109623974473	0.7832185081019812	-0.5963257578234786	0.17596692621842538
441														8.592104356894668	4.469678105479029	1.8163303094984518	0.1536832878033162	0.458666626285005	0.8752179002867199	-0.6027848835010328	-0.6583223435865646	0.45084595612840933	0.7829634929373205	-0.5968556088929925	0.17530416669425083
442														8.57291985985873	4.447308345956793	1.7987101463280926	0.15463121266534546	0.45855790113878286	0.8751079015600528	-0.602877220474014	-0.6579352930533823	0.4512872778932365	0.7827057206276008	-0.5973657183484457	0.17471678064477306
443														8.58238014919446	4.446291023566873	1.740420425673432	0.15542947508731098	0.4584855793286239	0.8750043724586634	-0.6027827605404624	-0.6577302841026937	0.4517120952215133	0.7826203561557179	-0.5976469249664772	0.17413653036859145
444														8.567973062011603	4.504248666975653	1.7839219817925287	0.1561615923867305	0.45843370937070244	0.8749011893784684	-0.6028330769799356	-0.6574297551698115	0.45208229153138085	0.7824358365784017	-0.5980172665818101	0.17369372616152995
445														8.609207590371291	4.551964765644976	1.7174793220545992	0.15680628918400263	0.4583489461030258	0.8748302871292173	-0.6029878876715681	-0.6571003558178364	0.45235465036346567	0.7821875702117258	-0.59844412102578	0.1733413944098702
446														8.595935054843487	4.507345904005097	1.739938818278401	0.1573559900428812	0.45825535231012693	0.8747806150554246	-0.6032738957175021	-0.6567121488840275	0.45253702639005355	0.7818565719768901	-0.5989417213613067	0.17311590126069254
447														8.633437001207765	4.437560398617783	1.7420341243825226	0.1578559162265421	0.45809805683830074	0.8747729305558396	-0.6036545337591915	-0.6563034492910834	0.45262234403595153	0.7814619079547331	-0.5995097603622473	0.17293158660623215
448														8.633178822588555	4.438497896764549	1.7409248345597925	0.15824358459702947	0.4579548505625749	0.8747778705363396	-0.6039707848026542	-0.6559808088653463	0.45266816709951274	0.781139077910425	-0.5999721103906215	0.17278659587674927
449														8.67169852023395	4.444157499635828	1.7696734162689032	0.15852339997173187	0.4577985861466949	0.874808999829957	-0.6042170146331391	-0.6557611980934189	0.4526577628881458	0.780891881689917	-0.6003313298480857	0.1726562003335228
450														8.624412316679361	4.496447605909729	1.8222452260629984	0.15873726553662604	0.45767887876554786	0.8748328551568383	-0.6046048346842755	-0.6554396940330351	0.45260556930099877	0.7805481883947682	-0.6007735442059614	0.17267215807956174
451														8.6022990092918	4.4647624030864	1.7771164118467686	0.15886093110784794	0.4575015728998551	0.874903146274893	-0.6050408511230599	-0.6551463430832986	0.45244760759325997	0.780185088962761	-0.6012283924921875	0.17272998298335251
452														8.5910044480667	4.492511039060577	1.8294723009498215	0.15890906879309735	0.4573200967758902	0.8749892781858537	-0.6055782179765118	-0.6548065766594635	0.4522204872359353	0.7797582508493919	-0.6017363843481669	0.1728883859138383
453														8.558263748092504	4.388109881128735	1.8126980994826436	0.15894493848814523	0.4571226660571013	0.8750859241845043	-0.6061471074136879	-0.6544549382200852	0.4519672753788309	0.779308790341171	-0.602268712466614	0.17306128186509073
454														8.56285541818519	4.313057941207949	1.8226544904559105	0.15899012295405834	0.4569152395151959	0.8751860400519561	-0.6067064447380152	-0.6541114088535857	0.4517140187341262	0.7788641927296508	-0.6027990782228752	0.17321616719359934
455														8.575309977673255	4.281583992946713	1.7738855791564576	0.15903592730068683	0.4567428965572463	0.8752676734988599	-0.6072099950714672	-0.6537920563265056	0.45149968878136293	0.7784623277416313	-0.603275951392773	0.1733624260277446
456														8.578318167860234	4.23151884490032	1.7806748223281261	0.15909513713078705	0.4566067393693605	0.8753279516294546	-0.6075883183342337	-0.653545268348176	0.4513480005976417	0.7781549799141004	-0.6036463101702781	0.17345304682447732
457														8.595228764150427	4.281623910105987	1.79170844823101	0.15912016808518276	0.4565509928421714	0.8753524793152587	-0.607838947330656	-0.6533695099965128	0.45126499699719286	0.7779541028984311	-0.6038786917434197	0.17354520863957282
458														8.569064540130192	4.323053239189613	1.7391002930477832	0.1591159014696567	0.4564786092879247	0.8753910035875743	-0.6080138090413498	-0.6532727638728374	0.45116948478035723	0.7778183193487587	-0.6040380577782382	0.17359921324984842
459														8.554251996890475	4.323682360305059	1.759444233868565	0.1590858600057951	0.45643172576290714	0.8754209095419819	-0.6081037561808007	-0.6532390906630021	0.4510970096870245	0.7777541455145179	-0.6041098990637949	0.17363674434898177
460														8.636310857462938	4.34888339218717	1.7294898705975492	0.15906313882032125	0.4563914394173668	0.8754460416811376	-0.6081977854329345	-0.6531958985296105	0.4510327836627508	0.7776852651703658	-0.6041870340967601	0.1736768728595119
461														8.602059257081427	4.34730010504124	1.7349431924969914	0.1589825413510067	0.4564063215737552	0.8754529234476796	-0.6081051630064317	-0.6532924337670147	0.4510178563069216	0.7777741717687054	-0.6040714077079661	0.17368094921211016
462														8.60381695552406	4.399500655967654	1.7644498450761805	0.15893714553811494	0.4563783360076517	0.8754757553416784	-0.6080388102966789	-0.6533765410229403	0.4509854773869073	0.7778353225080453	-0.6040015811765598	0.1736499380795173
463														8.525378001943787	4.413429179862101	1.7031255285193714	0.15894442636779316	0.45632705905537013	0.8755011619069901	-0.6080295506556744	-0.6534072321137963	0.45095349488705144	0.7778410730066081	-0.604007122636202	0.17360489897656736
464														8.565231724296053	4.39421988138589	1.7353874087605492	0.158932046695832	0.45628270824541284	0.8755265242637168	-0.608021258435886	-0.6534414651976415	0.4509150705514291	0.7778500844141593	-0.6040035941255566	0.1735767970101258
465														8.587570313317899	4.424673933736276	1.7822493389017078	0.15889643121614888	0.45626437432520855	0.8755425431516152	-0.6080662045632695	-0.6534302477346122	0.45087071563088194	0.7778222258426356	-0.6040295788014933	0.17361121195965046
466														8.599307220097353	4.395058753617057	1.7326972700536873	0.15885510470601494	0.45624615361091886	0.875559537109889	-0.6082085718912091	-0.653345583062066	0.45080137773896056	0.7777193509145166	-0.604134915733672	0.17370554051201734
467														8.566166220861206	4.369217910196993	1.7415135929476673	0.15881758103939198	0.4562854128147675	0.875545885722304	-0.6083515275718363	-0.6532293149389349	0.45077697479510137	0.7776151971597582	-0.604230985763613	0.1738376282319889
468														8.56578688451975	4.369184582640962	1.7434619583601236	0.1587940634693854	0.45632603306652103	0.8755289812180141	-0.6085176751206854	-0.6530886865790959	0.45075648251368283	0.7774899899500941	-0.6043523136450827	0.1739758503909058
469														8.565425188075784	4.369115773756182	1.7454103148205182	0.1587311493325429	0.4563609779351607	0.8755221756469872	-0.6086541847384923	-0.6529897520905689	0.4507155056851482	0.7773959773705362	-0.6044328262782899	0.17411620511987802
470														8.615554191680545	4.344781514718455	1.7259719834759197	0.15866112919425002	0.45638396634298917	0.8755228845369192	-0.6087534144754569	-0.6529287870615994	0.45066981193634653	0.777332571327922	-0.6044813266688316	0.17423087918452126
471														8.616602900180858	4.320283095285742	1.7302537973362542	0.15856408760868207	0.45641281108077036	0.8755254285297347	-0.6088380813871912	-0.6528869407155492	0.4506160597402794	0.7772860610956498	-0.6045047464862788	0.17435707815276602
472														8.643583378670002	4.366160434995855	1.6887829185365864	0.15835236152470217	0.4565274469590431	0.8755039804436116	-0.6088119876792385	-0.6529329648307767	0.45058462811701205	0.7773496595854432	-0.604368458484019	0.17454590551498442
473														8.628853092588805	4.443703690942982	1.7365886113850548	0.1581763440964865	0.45656463717923046	0.8755164054691765	-0.6087929254602809	-0.652999061079576	0.45051459481209377	0.7774004232554693	-0.6042689453435365	0.17466431695004977
474														8.62426688763666	4.439569592141544	1.7047831461279983	0.15795539768836947	0.45666508722428023	0.8755039065884	-0.6088374705993341	-0.6530011141464825	0.45045141726678795	0.7774104621982614	-0.6041908167407821	0.17488976594069908
475														8.607860439384215	4.464291467144505	1.724428011650922	0.15774421198051491	0.4566834139280441	0.8755324226033396	-0.6090475267941159	-0.6529128528025032	0.45029536612235704	0.7772887968397699	-0.6042723443020734	0.175148680323488
476														8.622908719649976	4.461728783151116	1.708167229360481	0.15753207642846112	0.45667021251042256	0.8755775019390476	-0.6092672857373633	-0.6528335828770929	0.45011297203933576	0.7771595842723446	-0.6043679591718469	0.1753919909804697
477														8.608268763196428	4.461097927821973	1.7306433260020468	0.1572904739124264	0.4566194762635075	0.8756473951958313	-0.6095868601682698	-0.6527076506448747	0.449862848765975	0.7769578925055042	-0.6045422869299453	0.17568453713095256
478														8.614342217268735	4.4381520549386275	1.7708343668758149	0.1570233851012729	0.45654145118272416	0.8757360103840137	-0.6099720796655763	-0.6525546445683779	0.4495625628104387	0.7767095458147717	-0.6047663509192704	0.17601119917778182
479														8.612622521352645	4.306742394335483	1.7190291046393298	0.15672321368233477	0.4564874017343236	0.8758179527452765	-0.6102893154637702	-0.652455279809072	0.44927615035747026	0.7765209499581089	-0.604914340966646	0.17633449568659065
480														8.585694629876409	4.258211259570116	1.765951905018345	0.15644597510655794	0.45643339588899234	0.8758956627305561	-0.610518503972141	-0.6524151774842194	0.44902293092430456	0.7763966854518227	-0.6049983399196037	0.17659330540523485
481														8.636347954561845	4.232333016049075	1.7478118568619818	0.15610898249427008	0.4564989413955075	0.875921630107046	-0.6105207364038024	-0.6525144146650386	0.4488756721802829	0.7764627589302415	-0.6048418430954683	0.17683870853213812
482														8.598424624387809	4.302779476669757	1.747265608209083	0.15575911663641895	0.4565589913207748	0.8759526157440253	-0.6103313355250639	-0.6527707100616411	0.4487605831195668	0.776681890133171	-0.6045198818316718	0.1769772697534553
483														8.59600995435806	4.350452867475599	1.744115536363327	0.1554519925340453	0.456604527886741	0.8759834377033175	-0.610156450379798	-0.6530058585644595	0.4486562768316281	0.77688080429183	-0.6042314571369317	0.17708913611246713
