// Start Time: 1748433505.005953
// Update Rate: 100Hz 
// Filter Profile: 46.1 human
// Option Flags: AHS Disabled ICC Disabled 
// Firmware Version: 4.0.2 
PacketCounter	SampleTimeFine	Year	Month	Day	Second	UTC_Nano	UTC_Year	UTC_Month	UTC_Day	UTC_Hour	UTC_Minute	UTC_Second	UTC_Valid	Acc_X	Acc_Y	Acc_Z	Mat[1][1]	Mat[2][1]	Mat[3][1]	Mat[1][2]	Mat[2][2]	Mat[3][2]	Mat[1][3]	Mat[2][3]	Mat[3][3]
0														8.892918021422535	-2.7072521564439884	2.6663576349193643	-0.2072015745580229	-0.30822104575521636	0.9284757909898553	0.10558115516367703	-0.9505742785917131	-0.2919951378947063	0.9725842519673966	0.03752769421914748	0.22950282131515187
1														8.933509802577907	-2.839705367079322	2.558478232791123	-0.20768872293286783	-0.30783462831645153	0.928495145908575	0.10514155422809256	-0.9507184601944013	-0.2916841836988887	0.9725279676909117	0.037043907121928926	0.22981971413289676
2														8.891229035758128	-2.9060238088046724	2.5971056734196236	-0.2083008404809064	-0.3074591886728002	0.9284824215652181	0.10446337407923117	-0.9508691696314353	-0.29143648659769295	0.9724701349300813	0.036285941424855944	0.2301850714620332
3														8.819197049851528	-2.9947039847424715	2.522759104463235	-0.20886109222022792	-0.30710868921361406	0.9284725613425903	0.10430331097692581	-0.9509916113230525	-0.29109409906838657	0.9723671443831413	0.03604453082897255	0.2306575997479708
4														8.870038700869763	-3.0226406776479955	2.561808230234068	-0.20939359300848837	-0.30677028963612757	0.9284644918377661	0.1036412499546821	-0.9511280875830941	-0.290884603096067	0.9723234104529347	0.03531784827947129	0.2309541839371645
5														8.993772673958802	-3.010484624483122	2.563747215870755	-0.20991245018594024	-0.30651253901572395	0.9284324567156561	0.10374421751935231	-0.9512109603282481	-0.2905767476635188	0.972200545457691	0.03532382167242476	0.23146992684628015
6														8.991010906456246	-3.0197291502709955	2.42476418848965	-0.21045619737491073	-0.3062886176145455	0.9283832569075462	0.10391385295006779	-0.9512810260064117	-0.2902866182331868	0.9720648641688289	0.035379263417416845	0.23203061773929046
7														8.954900274492907	-3.1061484247350006	2.267248161379928	-0.21080475351650246	-0.3063967571162839	0.9282684865508852	0.10435143553226016	-0.9512352013605915	-0.29027981258577207	0.9719424539535264	0.03567378478798319	0.23249784360655362
8														8.986793300938603	-3.0309575685286716	2.2895076670840995	-0.21110437846590507	-0.306369887965937	0.9282092615031718	0.10422209555416673	-0.9512517660233575	-0.29027199733309117	0.9718912985467163	0.035462224763587014	0.23274392456946064
9														8.991909045240172	-2.920026097162228	2.278840364228972	-0.21103937513350324	-0.3064562416597788	0.9281955365606023	0.10501717436039201	-0.951194686565471	-0.2901724682649528	0.9718198265278497	0.03623865611994043	0.2329227008473007
10														9.032351737033691	-2.8307697080667085	2.229953031561695	-0.21072460252802766	-0.3065043199189115	0.9282511749308209	0.10550712015157732	-0.9511575489612645	-0.2901164673908042	0.9718350629025094	0.03680243096650623	0.23277068455505773
11														9.012928334828867	-2.874370461070267	2.2525202992824678	-0.21013768459410964	-0.30653473906634393	0.9283741741662974	0.10632033139765934	-0.9511098093414836	-0.2899760640223572	0.9718735209094433	0.03777015117701757	0.23245488817219329
12														9.02393929823698	-2.8017332002002395	2.2624903886608334	-0.20932272605539282	-0.30632212682717186	0.9286284245987826	0.10651082896540955	-0.9511587817222416	-0.2897454318289799	0.9720285179303332	0.038258679652319605	0.23172577276043538
13														9.056515671106464	-2.6521055871721435	2.3746937223806146	-0.2080119025741819	-0.3063374361592161	0.9289178777453193	0.10787954340511503	-0.9510824656791222	-0.28948946024410926	0.9721589646257311	0.03999398311146332	0.230884015931608
14														9.15631505109865	-2.3971384605850394	2.5820535173151233	-0.20645133461512594	-0.30649299342372177	0.9292146637983064	0.10986784318903177	-0.9509291974035051	-0.2892450838968846	0.9722689460579431	0.04237577736976533	0.22999432606845865
15														9.235630386189793	-2.2187836722771213	2.6837917965042233	-0.20518874157504796	-0.30656521126364983	0.9294704683709544	0.11109985842764236	-0.9508345995919343	-0.28908542971966467	0.9723962164612764	0.04394696191682754	0.2291599065065154
16														9.308558600843723	-2.05895014606589	2.6762474467587056	-0.20418758342533322	-0.3064946941451831	0.9297141674922321	0.1118062221902228	-0.950810005214864	-0.2888939297784944	0.9725259890894814	0.044959275396315834	0.2284116111351721
17														9.317334476406412	-1.9903979694505802	2.717629094576509	-0.20347665595662706	-0.3062527391620006	0.9299497353279264	0.11288452228059716	-0.9508241794824971	-0.2884275720885883	0.9725504280551164	0.046288653763185805	0.22804171860122896
18														9.43341620723744	-2.124469347530661	2.629304135772543	-0.2031349311236459	-0.3056119276731768	0.9302352118799181	0.11397900452414231	-0.950964640179423	-0.2875326758059084	0.9724942088696861	0.047619353127746844	0.22800747997076276
19														9.603375145863161	-2.0555765299639552	2.6045844817467483	-0.20334858950043494	-0.30461127542881455	0.9305166962660126	0.11517149532865378	-0.951217233784859	-0.28621897354026543	0.9723090443948085	0.04896677477956013	0.2285112188837614
20														9.612679330280113	-2.1262299048910562	2.4912879295408574	-0.20431063162498037	-0.3032311471296809	0.930756701407741	0.11610909522271542	-0.9516077607705808	-0.2845370760511933	0.9719958044207616	0.04993536874418751	0.22963147679884405
21														9.520379671554574	-2.356101882100486	2.256814831072716	-0.20604276135999772	-0.3013320368537133	0.930991613311709	0.11633003003990537	-0.9522019076917405	-0.2824515022072357	0.9716036767129183	0.05010519487839277	0.2312482753322423
22														9.357075937582216	-2.5446810928045953	2.1317971223888463	-0.20814401013119893	-0.29914393931183836	0.9312298183689666	0.11650268843192242	-0.9528867110286834	-0.28006077828405906	0.9711350033000755	0.05019780391544677	0.23318873439218418
23														9.098511160403158	-2.8111910937286444	1.913159033189083	-0.21031115713011134	-0.2968794194811315	0.9314675665180941	0.1161722621313403	-0.9536152377161031	-0.27770845127029786	0.9707075886681226	0.04980550857291419	0.23504507784234202
24														8.926677958355151	-3.0780562359746746	1.8065451570364237	-0.2121757843456646	-0.2945358385440925	0.9317886436045624	0.11523449039053477	-0.9543868373902469	-0.27543924346518994	0.9704135452278764	0.04893265197565623	0.23643846304883115
25														8.901787746491532	-3.232452993739349	1.7493583724833872	-0.21339786036263325	-0.2925261771529252	0.9321425796909752	0.11533370319298275	-0.9549916465013054	-0.2732930515408677	0.9701337485627657	0.04918730316882418	0.2375313013195
26														8.80154297648415	-3.2856274745321756	1.717358476755638	-0.21434159760310872	-0.2907410229287217	0.9324844969881845	0.11530377079754867	-0.9555286669138834	-0.271422193539222	0.969929234520134	0.049341912124856044	0.2383330772911087
27														8.756754432095397	-3.410445024785314	1.7468053766616243	-0.21486207561763476	-0.2892905501760589	0.932815772829831	0.11561568664905879	-0.9559413212350205	-0.26983180567922277	0.9697769338677573	0.04987151425690124	0.23884206204890973
28														8.77302401724997	-3.366309135876479	1.7923270034077783	-0.21497879528115238	-0.28825773890671974	0.9331085647125149	0.11566279169360377	-0.9562387439784881	-0.2687556197218681	0.969745449175765	0.050149182195014505	0.23891174799089487
29														8.67182299838597	-3.4761225152695387	1.8133668067540392	-0.21478929404102798	-0.28766783127431456	0.9333342263172875	0.11578560834603636	-0.9563992323470794	-0.26813094052319997	0.96977278373096	0.05047501575878931	0.2387321107828917
30														8.692417944564836	-3.603431940821502	1.8777808606761348	-0.2144025888911883	-0.2873299061635518	0.9335272116552359	0.11583827629305088	-0.95648770129293	-0.2677924028437334	0.9698520627509176	0.050722798615712175	0.2383572404572158
31														8.805156741253787	-3.483778888733852	1.977523819272676	-0.2140775558544108	-0.28723188168886843	0.9336319650809275	0.11585431756925918	-0.9565100930077582	-0.2677054707600339	0.9699219438593827	0.050855561306134764	0.23804439649837394
32														8.853792361332209	-3.3104542256255844	2.0813156570756663	-0.21403423533720817	-0.28734930869426556	0.9336057631016125	0.11554889322382589	-0.9564917237469623	-0.26790303409687877	0.9699679372939939	0.050536691586333254	0.23792486928680306
33														8.692636650380567	-3.4675904445551766	2.018540291435536	-0.21424121799523588	-0.28759188010529335	0.9334835890412968	0.11484988432896251	-0.9564612580559946	-0.2683120681362812	0.9700052600793162	0.049726977944040116	0.2379433190552136
34														8.65330066764283	-3.384622601461491	1.9765493540745782	-0.2144470322859358	-0.2878256557900282	0.9333642709107712	0.11398911394410267	-0.9564407069872721	-0.26875203426193073	0.9700613136529019	0.04876029005992302	0.2379148626447683
35														8.597719469072093	-3.306480624323158	2.055034211678094	-0.21437661109757095	-0.2882348732485581	0.9332541596251839	0.11369299575713045	-0.9563365720591522	-0.2692475880261862	0.9701116282831012	0.048384075743341665	0.2377864796080143
36														8.588921609890635	-3.173628530078577	2.0765337479263084	-0.21408663363197622	-0.28870110524641096	0.9331766098277589	0.11347295091655842	-0.9562086998338838	-0.26979401730261227	0.9702014237829261	0.04813101070510224	0.23747126794222717
37														8.610352465638584	-3.095718035370657	2.142660134436184	-0.213517741375788	-0.2893430960252126	0.9331081110462638	0.11338626160429674	-0.9560189751496047	-0.270501894324793	0.9703369156108532	0.048044686870080955	0.23693454426565114
38														8.695274780080677	-2.971260792422045	2.221759055141754	-0.2127983034616372	-0.290037763348673	0.9330567924170254	0.11275743027344474	-0.9558379160943172	-0.27140309518242856	0.9705682067541561	0.047454968003068726	0.23610459980663123
39														8.815374372686202	-2.8377119588684687	2.39181416103922	-0.21161723402919386	-0.29107780479673806	0.9330015315188641	0.11262453037846151	-0.9555244121421538	-0.27255974199691135	0.9708418313087178	0.04740052062060034	0.2349879342137201
40														8.90970778617104	-2.796112506782403	2.522790267184576	-0.21040346277122896	-0.2919953636817093	0.9329893302939014	0.11186685003764409	-0.9552752902004714	-0.2737424479233366	0.9711931788869461	0.04677421854816702	0.23365783051863892
41														9.072894238971294	-2.675454354504324	2.585830938173723	-0.20904814816887446	-0.29309425927606336	0.9329494235630248	0.11173725278527599	-0.9549391934901899	-0.2749653124965134	0.9715007246971893	0.04676421618846721	0.23237781735164537
42														9.13138326550217	-2.592363785632352	2.7383073758584833	-0.20809842537059214	-0.29392500497471813	0.9329003895426842	0.11098289068248439	-0.9547165086828083	-0.2760420004714295	0.9717910492148194	0.046092076316010075	0.2312956488281595
43														9.103788036165769	-2.5356504855842577	2.826897528522737	-0.20735108803861318	-0.2948284752051288	0.9327816982002928	0.11054405799080971	-0.9544588968080667	-0.277106884697679	0.9720007909112667	0.04565506009356485	0.23049962680170483
44														9.090011822561618	-2.5779469919175892	2.7780465222832404	-0.2068449262655062	-0.29564363970538865	0.9326360569804103	0.11018715638076174	-0.9542259449797372	-0.27804970148563096	0.972149148560517	0.04525134505489613	0.229952927191162
45														9.094493931532101	-2.5215233908127703	2.820946635087289	-0.20643807263921055	-0.2963527382842561	0.9325011403083814	0.10999632342916817	-0.9540174430909784	-0.27883960821629694	0.9722572349934322	0.04500858573178394	0.22954323386532394
46														9.155545454609232	-2.38322979502459	2.8849485651178433	-0.2061820530424806	-0.2968746776136333	0.932391756074124	0.1094565635333353	-0.9538824719283777	-0.27951295219950056	0.9723724706626882	0.044425843150227656	0.2291683284350844
47														9.161610838123043	-2.299622309449136	2.8812756364047734	-0.2059206150610779	-0.297480922208904	0.9322562958835983	0.10917970051093018	-0.9537095199611672	-0.28021053608275237	0.9724589931144709	0.04408233724724564	0.2288673289344923
48														9.216951444048778	-2.304722357995152	2.8311100741647746	-0.20553840681231156	-0.2980364349785067	0.9321632082153631	0.10931473187149354	-0.9535310269090811	-0.2807647950110136	0.9725246797490127	0.04419122251098469	0.2285670210946112
49														9.19123309828096	-2.3412927011351474	2.8732425747541694	-0.20542079362174992	-0.2983893992511415	0.9320762114560983	0.10890484635478016	-0.9534415485725871	-0.2812275731430841	0.9725955130413939	0.04373762533620093	0.22835277125907172
50														9.168378415388595	-2.448533537185665	2.815636503245749	-0.20549611972896503	-0.2985076214283755	0.9320217512083677	0.10824561478698977	-0.9534362828681073	-0.2814998070870262	0.9726531918704249	0.0430401493935605	0.2282395975383204
51														9.106059561202958	-2.5173991447065442	2.8146740010872686	-0.20554191920804632	-0.2985154092731442	0.9320091576131427	0.10819304777644778	-0.9534368665574384	-0.2815180383243254	0.9726493632656713	0.04297315342885939	0.22826853533341707
52														9.253606850964827	-2.502505759696904	2.8152690860028176	-0.20565425144374505	-0.29847085894075637	0.9319986455066765	0.10880741469163464	-0.9534244992729277	-0.28132307174188453	0.9725570807779024	0.04355307738075448	0.2285516442282367
53														9.23851645803192	-2.434076373077024	2.8290946183277828	-0.20605193550518752	-0.29830574099890705	0.9319636713744042	0.10911544087512844	-0.9534658749248248	-0.28106341974092647	0.9724383890186523	0.04377796524429661	0.22901325141108497
54														9.216754787703884	-2.508893791688595	2.7300619053106745	-0.2066588406719997	-0.2981400578563899	0.9318823045178471	0.10934575586422159	-0.9535136875050234	-0.28081159772177233	0.9722837184930061	0.04386517573156329	0.2296523832043813
55														9.213183185465603	-2.5647523827864243	2.655686789609849	-0.20746362714017075	-0.2978403703100899	0.9317993116693063	0.10962154419010174	-0.953602422274761	-0.28040245591129587	0.9720812519862844	0.043971968858093985	0.23048753869031846
56														9.189667424563698	-2.539327968209897	2.6126678736337405	-0.2084228418075812	-0.2973426364419698	0.9317442114478579	0.10964823701863957	-0.9537638783924658	-0.2798423277355767	0.9718730282971929	0.04383857693288272	0.2313892738243143
57														9.158556113252756	-2.559011700062955	2.5085405846714637	-0.20939957754745459	-0.2969575775875529	0.9316480097312936	0.10994713655910636	-0.9538791665295598	-0.27933163591567284	0.9716292729664959	0.043940104394564916	0.23239152983788797
58														9.182367205515881	-2.60218936499982	2.4066076087027164	-0.21046769532203363	-0.2964936846145268	0.9315550677279006	0.11011819950329894	-0.9540248507593238	-0.27876614979549097	0.9713790873618721	0.04390989771511633	0.23344076233311256
59														9.164853593011927	-2.634567338322932	2.408789936729786	-0.21157232928730269	-0.29602305611822854	0.9314545075989323	0.11047469918633615	-0.9541643461757172	-0.27814697792130466	0.9710985996898739	0.04405395252971454	0.2345778313201739
60														9.102911771883855	-2.7045683125242443	2.2414393143820566	-0.21275776348296865	-0.2956247165254235	0.9313109905165878	0.11047360114517962	-0.9542992600432779	-0.2776841834366297	0.9708396971321994	0.04380581308587994	0.23569330328234622
61														8.946647437078099	-2.8401422419794633	2.123153396040769	-0.21382906333226298	-0.29534739061895854	0.9311536127455122	0.11093165049253115	-0.9543756084997147	-0.27723882632092145	0.9705520597028527	0.04401268857240426	0.23683661594267597
62														8.98566380571288	-2.8721293407718282	2.0788433662842283	-0.21478992382612727	-0.2950346398749741	0.9310316052082291	0.11179770490565627	-0.954442123209756	-0.2766613572956691	0.9702404659673783	0.04466312479773932	0.23798874654635938
63														8.991637411952494	-2.8104936254219375	1.9588962308047742	-0.21561312199238636	-0.2947813231596579	0.9309215612182036	0.1126071499369234	-0.9544911398097058	-0.2761635272947023	0.9699642320249646	0.04528394352317269	0.23899529922408624
64														8.957703334054113	-2.758625362348041	1.955319871061976	-0.21630863211102952	-0.29463628593850766	0.9308061208880272	0.11353587280354928	-0.9545001207638371	-0.27575192664523	0.9697010783024793	0.04603236329129752	0.23991840335586262
65														8.926484077229569	-2.8061129086519414	1.8972040314796108	-0.21677146060155922	-0.2944027739030572	0.9307723355293989	0.11404796627094484	-0.9545513617302348	-0.27536295903482644	0.9695376193104257	0.04646186110283876	0.24049553052963885
66														8.930916946555733	-2.921528811197797	1.8636224918130304	-0.21697553986692764	-0.2941231608755818	0.930813182833168	0.11478122435923865	-0.9546015042124188	-0.2748840458993246	0.969405428927469	0.047196762515499605	0.24088499325197932
67														8.922016505577941	-2.86557346754286	1.8563907577405043	-0.2169461545492284	-0.29388808596446314	0.9308942791501336	0.11534954147479917	-0.954642594952061	-0.2745031861103778	0.9693445462310375	0.047825817623323996	0.24100589590465338
68														8.888855254219317	-2.9641327811336664	1.8885322221257737	-0.21683582362014497	-0.2935685641547644	0.9310207966179295	0.11551212563471999	-0.9547270940171798	-0.2741407025249267	0.9693498720412165	0.04810066620766973	0.24092976462873217
69														8.926947730759911	-3.0026797908562837	1.8671925574982786	-0.21647812886008627	-0.2932829347500742	0.9311940398808507	0.1163685253175058	-0.9547628914112003	-0.2736534076154607	0.9693273884713383	0.04912169956860386	0.24081418685539874
70														9.00439020809013	-2.9190985740325535	1.9232711440136963	-0.21619110111056955	-0.2929700053465876	0.9313592130686312	0.11661838873427084	-0.9548377794126237	-0.27328550348562647	0.9693614182592694	0.049531716844768245	0.240593120884176
71														8.919203696847372	-2.8651883616677956	1.921378691212266	-0.21574475738294796	-0.292990529685333	0.9314562518854445	0.1173915955673147	-0.9547851475000819	-0.2731383081945966	0.9693675324416083	0.05041697757655081	0.2403845157661213
72														8.85741586653766	-2.8083451397171633	1.921354538272546	-0.21509653404767476	-0.2931203221123093	0.9315653266440594	0.11797820901161707	-0.95470640061054	-0.2731608149637829	0.9694403660045771	0.05114846427844029	0.23993584843217658
73														8.852623412254317	-2.796089519574305	1.9350541929221334	-0.21413537910502317	-0.2933685133796842	0.931708621175602	0.11856966676255566	-0.9545871740713683	-0.27332135156671394	0.969580978330002	0.051944609497355756	0.23919549327862072
74														8.915801441589633	-2.7755336202269443	1.9901438208080866	-0.21281883571576243	-0.2937413284375034	0.9318927916516785	0.11974354505816953	-0.9543930471625459	-0.2734874676190725	0.9697265731026917	0.053384862044982856	0.23828644510955455
75														8.976578433625352	-2.611410402050586	2.0327970417442045	-0.21159620437682236	-0.2940975265947018	0.932058845322655	0.1205102773599496	-0.9542259196164141	-0.27373375272851697	0.969899128437566	0.05440164687844967	0.23735235720961867
76														9.07253024345326	-2.51580443657887	2.10239578379772	-0.21034746470328747	-0.2946004710055374	0.9321826573028565	0.1210916346417734	-0.9540245190027863	-0.2741788342693243	0.970098324971589	0.055206699093659745	0.23635029143730624
77														9.223410668969366	-2.444773540187031	2.1731871891056356	-0.20926173466425568	-0.2950021762246805	0.9322999744867578	0.12131829054392354	-0.9538750805176295	-0.274598257727514	0.9703047968472623	0.05564213143103504	0.23539871372844123
78														9.319129229404416	-2.5096076719805267	2.1107659106461636	-0.20849882404217807	-0.29519858452801473	0.9324087280081008	0.12068892077309798	-0.9538402928899329	-0.2749961455407535	0.9705474871306674	0.05519503014133602	0.23450177797203003
79														9.387691999934948	-2.5836824284713997	2.0800716432381323	-0.2078663041341443	-0.2952349779084923	0.932538421420256	0.12022545485805392	-0.9538452601834932	-0.27518186646226855	0.9707406654765139	0.054913818341614504	0.23376704845927
80														9.373305536574769	-2.667818668449296	2.127742766209329	-0.20741509767566468	-0.2950271803338293	0.9327046371282098	0.11912892845070372	-0.9539606288556242	-0.27525881820492176	0.9709723351684035	0.054019269318024185	0.23301210886982926
81														9.261122157817073	-2.77590508615246	2.1962626380852455	-0.20687874544680201	-0.29475117195953915	0.9329109986010647	0.11805855302266002	-0.9540924251187577	-0.2752631874937217	0.9712174641863446	0.05319201969737754	0.23217934081214192
82														9.207657857902849	-2.901610726796605	2.2310290489987223	-0.2062824175712098	-0.294315190866957	0.9331806537996401	0.11687393106059636	-0.9542757970375577	-0.2751330358695169	0.9714875441504229	0.05230938360639102	0.23124809177007155
83														9.191789146118284	-2.9107884233373857	2.3758538365177753	-0.2055333101355018	-0.2940258451891297	0.9334371220310246	0.11571025795747798	-0.9544114416284919	-0.2751543862852963	0.971785570292211	0.05145485836577622	0.23018514922209987
84														9.159551642171257	-2.8905305112800845	2.400402901339235	-0.20473426026256503	-0.294060520804961	0.9336017849054571	0.11427748275350214	-0.9544638568589074	-0.2755710487071199	0.9721237264928076	0.05027082706634073	0.22901594777613798
85														9.045114827336867	-2.984767837521106	2.450567239203336	-0.2038351493784224	-0.29441960688694674	0.9336853468692821	0.11321089585015552	-0.9543987914622079	-0.2762358411145846	0.9724374144070564	0.04939678062396913	0.22787152767580687
86														9.035064948341999	-2.9649996653953488	2.4784016459310796	-0.20275998695926278	-0.29514996922217807	0.9336888578945486	0.1130794785270066	-0.9541728782347927	-0.2770688542171265	0.9726774487076071	0.049402571889309466	0.22684348495467488
87														9.071718326928377	-2.8123869004047295	2.5175090887001406	-0.20190605254489152	-0.2958534230356077	0.9336512721695681	0.11254701864654358	-0.953977879733887	-0.27795570433472233	0.9729168076148719	0.048958728093678724	0.2259113286312467
88														9.07098063742402	-2.697190831552547	2.513394217230628	-0.20121501890166638	-0.2966778538101874	0.9335388407704215	0.1119789123380661	-0.953750090480151	-0.2789650302469586	0.973125500313287	0.04840471018076517	0.2251305058678863
89														9.065822242793685	-2.6667032415514367	2.4789276190664067	-0.20093493645679578	-0.2972807553617369	0.933407362196516	0.11126170834299753	-0.9536009124027863	-0.27976084808487894	0.9732656284733889	0.047638769464881006	0.2246877034378399
90														8.96750809151727	-2.673218605764562	2.4488225757952127	-0.20081509433184241	-0.2977414767314537	0.933286296332624	0.11040985968421105	-0.9535022012735386	-0.28043397627789207	0.9733873641942381	0.04672863362318348	0.22435122916245454
91														8.95016555668648	-2.592059754044601	2.442395378434819	-0.20079896579979944	-0.2979279568385602	0.9332302544751386	0.10970542326103454	-0.953479451431716	-0.2807875634792101	0.9734703361894744	0.04599856771112716	0.22414200036511805
92														8.975596394793147	-2.6101016325675443	2.4579298017727953	-0.20077969928554645	-0.29806894192837635	0.9331893796076463	0.10920838115445387	-0.9534600933442534	-0.28104693537840064	0.973530195649025	0.045483582287080465	0.22398705744284725
93														8.951698929105694	-2.616114790443258	2.453930070242797	-0.20099584500422601	-0.29789344427525744	0.9331988888489208	0.10838400091574665	-0.9535541242119951	-0.28104704329309266	0.9735777209018969	0.04465454127094076	0.22394730029037918
94														8.930911565344134	-2.686617801605889	2.5269782491112665	-0.2010853410119447	-0.29783518346713056	0.9331982046270827	0.10793551477178469	-0.9535933677313839	-0.28108648788169666	0.9736090643995975	0.044202856330988596	0.22390064138166782
95														8.909222509494262	-2.71148112378748	2.537569798279071	-0.20129565573651947	-0.2976192882021288	0.933221741212485	0.10713884721330857	-0.9536970860720602	-0.2810393841358616	0.9736535967167212	0.0434122944304864	0.22386166776130473
96														8.87324988156764	-2.7938078538785844	2.5535869515985943	-0.20134296014683362	-0.29742291852114655	0.9332741397561994	0.10675335163050667	-0.9537739611671985	-0.28092517316019344	0.9736861580175431	0.043067836465217044	0.22378656605623437
97														8.938741877407448	-2.7920751345776296	2.628817748264914	-0.20142564641142668	-0.29717041003975053	0.9333367325700546	0.10601044686279006	-0.9538836408536597	-0.2808340877951214	0.9737502216295977	0.04237625642471214	0.2236397969229461
98														8.977561818760256	-2.8537481789034653	2.619499820345877	-0.20161870509571433	-0.29677612168213907	0.9334205008220229	0.1048249758831982	-0.9540556418660655	-0.2806947748972487	0.9738386017131457	0.04125246444563499	0.22346501290033594
99														8.996722659756653	-2.834696351427609	2.6410292180475534	-0.20176086773549162	-0.2964608965880735	0.9334899512286233	0.10421162741821303	-0.9541780005048797	-0.2805071836216639	0.973874986310599	0.040685134222537334	0.22341045385528657
100														8.902401104507723	-2.8516836199696165	2.628177977089141	-0.2018194354366568	-0.2960956983851492	0.9335931945327371	0.10414299891898267	-0.9542912654307929	-0.2801471336613281	0.9738701922002702	0.04068805869426552	0.22343081842821533
101														9.034584208932896	-2.7477576707825824	2.6232396771859716	-0.2019559105076783	-0.2955940214773187	0.933722648690649	0.10373007422743229	-0.9544605670172476	-0.27972325200076903	0.9738859696657439	0.040363355608531645	0.22342094264467066
102														8.957756504513878	-2.901674524902756	2.498518070243186	-0.20216078800836212	-0.2949451827350061	0.9338834804049442	0.10302790384760367	-0.9546861611538826	-0.27921243656046535	0.9739179979960361	0.03977025122722758	0.22338769056668317
103														8.802738224248442	-2.911019896484395	2.3746116293833004	-0.20212738925692636	-0.2942474158761185	0.9341107946932234	0.10273350523487963	-0.9549061114008108	-0.2785680263625694	0.9739560284809237	0.03965824831745306	0.22324174772218858
104														8.885139689790655	-2.8982197521569946	2.32713160450851	-0.201655836011701	-0.2935647478128651	0.9344274517821008	0.10256686603356	-0.9551104951014744	-0.27792801251235894	0.974071333011333	0.03979548955076538	0.2227136215343355
105														8.813184731743668	-2.8669309242977863	2.283460140391376	-0.20084862207215204	-0.29290530806951975	0.9348081682978692	0.10263946102543789	-0.9552935271703165	-0.27727137967504534	0.9742304512034744	0.04025863200849278	0.22193303155834943
106														8.86575228949739	-2.8260639925522075	2.2320020557497666	-0.19964874463422144	-0.2923013101368945	0.9352541488056788	0.10248530803348394	-0.9554641102574342	-0.27674012294434647	0.9744932736572695	0.04059899139418495	0.2207137999639206
107														8.963161968261998	-2.7834336859298228	2.2162576229105984	-0.19804415093017508	-0.2918813396853636	0.9357263477244955	0.10232180173916389	-0.9555752604072171	-0.2764166611956131	0.9748378137778597	0.041002502864538645	0.21911191566787563
108														9.150808923701636	-2.8354077785367524	2.2234307095909087	-0.19621298240786111	-0.29185921042307106	0.9361189383971641	0.10198353911621758	-0.9555732530960968	-0.27654857749891526	0.9752434687214998	0.04120630119974558	0.21726071310177675
109														9.142883465736071	-2.889607222739241	2.178018314889069	-0.19454889645119683	-0.29209661488839445	0.9363921691579671	0.10161084587577893	-0.9554980399533608	-0.27694535859207814	0.9756156840119119	0.041268186488226694	0.21557127335046927
110														9.13717264715378	-2.8870268812431013	2.2161536198255627	-0.19311254194752203	-0.2924286036929982	0.936585851849541	0.10132857979286242	-0.9553937332421838	-0.2774082432061543	0.975930358714047	0.04133190321926536	0.21412988749015216
111														9.232800071294003	-2.7747826528812927	2.2682540316455277	-0.19193526238320696	-0.29285304429203096	0.9366952276502641	0.10132600457439425	-0.9552532033173293	-0.2778927101400318	0.9761628428960406	0.041574174686596424	0.2130204031266701
112														9.248713325849641	-2.6698568066274984	2.368524543288619	-0.19127435068498477	-0.2931987114714969	0.936722284544086	0.1006024522182379	-0.9551728491656575	-0.27843127486767255	0.9763673844295061	0.04097979756189846	0.2121965758773482
113														9.208787976631056	-2.691961575138302	2.3035235777783933	-0.19096001135381274	-0.2935649393603183	0.9366717143386601	0.10022205822898789	-0.9550758836508475	-0.27890069113019134	0.9764680297419354	0.04061628795108753	0.21180298403227776
114														9.161612771278476	-2.7782445406061687	2.1940701105290445	-0.1910688849187946	-0.293768990081211	0.9365855335646361	0.09930951473784148	-0.9550539153956801	-0.2793020568666047	0.9765399641071651	0.0396459222877584	0.21165514250197226
115														9.215331899613867	-2.8060585866105243	2.1936865788578457	-0.19121913666490753	-0.2940332781341366	0.9364719286357823	0.0989427843649281	-0.9549916595905301	-0.2796448739645361	0.9765477802930298	0.039183688726553076	0.21170515190362715
116														9.108165098456249	-2.827800041504016	2.0595726034814095	-0.1914994603446073	-0.2943138311687494	0.9363265058036626	0.09870179425524249	-0.9549207941942939	-0.2799718425594512	0.976517236150248	0.03880264936974298	0.21191611997054127
117														9.068540887263161	-2.893765303614415	2.0642187674813894	-0.1917566324933374	-0.29459123284751765	0.9361866263861034	0.09846921212158245	-0.9548500356489205	-0.28029488701260513	0.976490249904713	0.03843715586036427	0.212106993968601
118														9.032221752232287	-2.9273732572810918	1.9866338485371484	-0.1919158134413253	-0.29492019682561055	0.9360504249534306	0.0982623964463045	-0.9547614467890633	-0.28066898861449624	0.976479811361087	0.03811374069280071	0.21221338500343995
119														9.071822179292045	-2.86252198486341	1.9503209852643202	-0.1918739753893986	-0.29531105501751226	0.9359357661467548	0.09830195170969373	-0.9546421284591373	-0.2810607280661488	0.9764840520245756	0.0380760732672428	0.21220063333132172
120														9.14473123053045	-2.84654184900318	1.9244460929756784	-0.19172901565220818	-0.29575474718104133	0.9358253651600352	0.0985546321292528	-0.9544972044222904	-0.28146415621869136	0.976487055235707	0.03826507898738189	0.212152809755578
121														9.158607579814639	-2.7669125742403873	1.869908308020789	-0.1915440543308508	-0.2961505550148323	0.9357380637843621	0.09874788942287295	-0.9543683013546693	-0.2818332835275688	0.9765038297851311	0.03841866907910467	0.2120478160254477
122														9.114076586226307	-2.72158742037165	1.9445268122908408	-0.1914353664614588	-0.2964669306411416	0.9356601196502863	0.09812193003903089	-0.9542960698187777	-0.2822961175323716	0.9765882383651685	0.03776731609018005	0.2117759252657439
123														9.111265514213434	-2.7056041173782104	1.927978768370074	-0.191074781615575	-0.29679760551349194	0.9356289912096667	0.09822831939121718	-0.9541879040644259	-0.2826245583927833	0.9766481582945508	0.03790283760612606	0.2114751753782611
124														9.082356544725998	-2.699916997988202	1.9412253368582892	-0.19058752974593368	-0.29703733607300553	0.9356522935813255	0.09851011002231544	-0.9540987341216006	-0.28282744522225944	0.9767149797810689	0.03826782625406437	0.21110050152724552
125														9.079952469661507	-2.70863702788174	1.970198543611742	-0.19004446170778405	-0.2971617555568346	0.9357232462692047	0.0984059814158846	-0.954058760406975	-0.28299848853356546	0.9768312880921532	0.03829846896530059	0.21055607775397683
126														9.101760149094691	-2.7124440972524617	2.000693472868985	-0.18937778278570588	-0.2973197872338515	0.9358082065820897	0.09813369809647321	-0.9540137100033339	-0.283244802994838	0.9769881435744653	0.03819404724419237	0.20984609138611127
127														9.045380824279928	-2.7953276875860307	1.9736431976242625	-0.1886007463640878	-0.2974556690005117	0.9359219430328404	0.09779801235348333	-0.9539764855681376	-0.28348617913890106	0.9771720970487324	0.03806560077712158	0.20901125038346585
128														9.027075348199112	-2.842179293463817	1.9903194981749066	-0.18761493888331437	-0.2976396312363463	0.9360615816415617	0.09790522517297662	-0.9539048645746335	-0.2836901059689586	0.9773511147953119	0.038420818033222615	0.20810727798426232
129														9.064019624446917	-2.8874376553453653	1.9576519032659392	-0.18650588792450679	-0.2978938318541786	0.9362023385533313	0.0978127395097004	-0.9538181809476733	-0.2840132843429687	0.9775726171283132	0.03860236569054856	0.20703051853288285
130														9.098321460026622	-2.8417737847945217	2.0115177278253453	-0.1853084663081006	-0.29826277885153385	0.9363226404751195	0.09780585269588732	-0.9536920486297422	-0.2844389065490777	0.9778009958539464	0.038868896719171056	0.2058990562748273
131														9.15394428006767	-2.7987459607872145	2.1013536041752316	-0.1840362816800799	-0.29871969843585394	0.9364278876623453	0.09790352426378139	-0.9535337832755031	-0.28493547355328785	0.9780314652208797	0.03924112534953218	0.2047305231742469
132														9.19605651544229	-2.663499707336343	2.1542879026826083	-0.182846273456361	-0.2991398783203627	0.9365268674638231	0.09760638926697765	-0.9534031992479571	-0.28547387347710895	0.978284331397261	0.03921317205021502	0.20352418549247492
133														9.173163457263273	-2.699347278028118	2.1881899296627885	-0.18165691094526948	-0.2995200495154479	0.9366368061549186	0.09756313990844129	-0.9532743865090703	-0.2859184809643518	0.978510194344969	0.03944215972813994	0.20239099683274342
134														9.150750216850186	-2.707666251311942	2.1748794865056644	-0.1806840873826781	-0.2996550767372339	0.9367817758433883	0.09696435817780762	-0.953245258611988	-0.28621912964882507	0.9787498014354106	0.039119201415258584	0.20129211179471956
135														9.23077543978145	-2.7558424763589264	2.214866778809493	-0.1797360657469823	-0.2997177246778234	0.936944092346894	0.09683878084704779	-0.9532195437738167	-0.2863472575243118	0.9789367687414005	0.03926559411985919	0.20035222964709076
136														9.284617179543474	-2.7874996292090475	2.240160553327532	-0.17908434266113143	-0.29973374546281134	0.9370637545249871	0.09690120531223904	-0.953204121693659	-0.28637747606132646	0.9790500266190008	0.039516885214486805	0.19974849476348838
137														9.292551036239784	-2.821105139375523	2.2298265507153596	-0.1788211850235361	-0.2996863838205299	0.9371291560608666	0.09683553459154108	-0.9532179994484707	-0.2863534961683294	0.9791046231262257	0.03954133128802051	0.1994758634342068
138														9.114400584827985	-2.805974394680616	2.236024697771356	-0.17884752011380417	-0.2995994819735472	0.9371519166871104	0.09635116221564383	-0.9532643238018714	-0.28636267652446534	0.9791475977036542	0.039080421795869194	0.19935571861228324
139														9.116019464636961	-2.8979298828960824	2.148131596747297	-0.17890964526072178	-0.29955506162841805	0.9371542583190229	0.09624351681980925	-0.9532829432670975	-0.2863368916960848	0.9791468349041621	0.038966589904878474	0.19938174582530682
140														9.146537308341058	-2.901149714981782	2.0975385060865452	-0.17899537563735013	-0.2996437441384813	0.9371095358063092	0.09641033499339058	-0.9532502393907283	-0.28638964437978764	0.9791147546671463	0.0390846222981798	0.19951613842720217
141														9.111996626562377	-2.925887132625025	1.9866593498114518	-0.17919967530228553	-0.29979300399726294	0.9370227484569689	0.09642006684493129	-0.9532067131561106	-0.28653120720742165	0.9790764255568478	0.039001496745900324	0.19972039497859284
142														9.044108506465802	-2.9286055784577893	1.9133350742521762	-0.17942900081178775	-0.29994822256285214	0.9369291848635466	0.09613289552079039	-0.9531733941292739	-0.2867384646727209	0.9790626640141442	0.038620519228334205	0.1998618408502773
143														8.98076735190645	-2.971200963675417	1.8677558892428308	-0.17946851166581312	-0.3001881891806866	0.9368447600306463	0.09640083240661396	-0.9530898091966912	-0.2869262886469762	0.9790290766017989	0.038818380721460516	0.19998800085603607
144														9.003941410379776	-2.9429393505991803	1.8223970514307002	-0.17930221209063746	-0.30043150239921224	0.9367986064814341	0.09641190710358923	-0.9530127956607064	-0.28717826428128934	0.979058456328351	0.03882684217287495	0.19984247651295184
145														8.989747104792503	-2.878853698703298	1.8319308517631525	-0.1788176570553054	-0.3007522279358714	0.936788312756335	0.09696599260688009	-0.9528863487868415	-0.28741120815556986	0.9790923561150979	0.03944240975512879	0.1995556426405799
146														9.015717841312663	-2.87102949023029	1.7971031770099253	-0.17822443354900563	-0.3011180161371494	0.9367838553496554	0.09731331626403217	-0.9527526139427953	-0.2877369894588937	0.9791660583189313	0.03987978162927283	0.19910658766944156
147														8.957762763753987	-2.9798646174269683	1.821687993152717	-0.17739487052140718	-0.3014121967140547	0.9368467044211134	0.09812872444158915	-0.9526181078029894	-0.28790535619421664	0.9792353207233487	0.0408586387176577	0.19856676028474668
148														8.944718604495524	-2.915047619998849	1.8270511122380424	-0.17617176227199766	-0.3018178484117728	0.9369469016748319	0.0996963592640449	-0.9524105358101321	-0.28805347980427454	0.97929778215182	0.04266330575500743	0.19787798314764965
149														8.979769418218499	-2.8675540169821296	1.883547337240419	-0.17484065280541666	-0.30223922335718084	0.9370604025307143	0.10097424105107745	-0.9522061067669239	-0.28828411832762674	0.9794054057287693	0.044215179522719764	0.1970027135067916
150														8.952410033789656	-2.861285790163884	1.8916569707096564	-0.17322186492122743	-0.3027925447393741	0.9371824050650261	0.10230017761456181	-0.9519518884160084	-0.28865598175202456	0.9795554395608457	0.04587239901564091	0.1958746125339082
151														9.038127144049454	-2.7998510907511758	1.9150330975399867	-0.17130651690291593	-0.30337579553842353	0.9373458294290424	0.1040979240965352	-0.951657659952327	-0.2889832528934037	0.9797028628443334	0.048071040507664795	0.1946059495470976
152														9.29552809472181	-2.603263093388587	1.9705225492313707	-0.16918082318068273	-0.3040451380461941	0.9375150148655631	0.10584127984430187	-0.9513307723480147	-0.28942595782799074	0.97988543848188	0.05026246725142389	0.19312744972419837
153														9.408967116501206	-2.2645832320494437	1.9521586693811346	-0.1671133872347862	-0.3047915627231875	0.937643439213262	0.10747736386081327	-0.9509810749842781	-0.2899717422082328	0.9800621062281958	0.052317285045238096	0.19167986232530676
154														9.543046061412685	-2.171689459068608	1.926061297653159	-0.1652895177877638	-0.30539060383669786	0.9377718029444831	0.10800213881791958	-0.9507369736503061	-0.2905765732900934	0.9803136810838887	0.05325209876160042	0.19012969430691629
155														9.636565357572602	-2.156951781803169	1.6727861905095864	-0.163342010880009	-0.30594385793041046	0.9379326965600102	0.10905822784684628	-0.9504739905182259	-0.29104208679719357	0.9805231717917638	0.05474987801828082	0.1886180278669115
156														9.788618434848324	-2.2046809178401525	1.4474331174734014	-0.16152172935907583	-0.3062883033919901	0.9381354945582806	0.11061088832214118	-0.9502467173609817	-0.291198227208315	0.9806507851062173	0.05673315917463856	0.18736431442680024
157														9.768736263812253	-1.9667329821307942	1.4736799495199742	-0.16006851718231618	-0.30623409470754387	0.9384022320123209	0.11195295904804942	-0.9501582171423779	-0.2909740492848179	0.9807367662973794	0.05848112204351853	0.1863742299704838
158														9.746416979222769	-1.8802600147642214	1.5800317833564086	-0.15887933657191922	-0.3057315024222942	0.9387681315623541	0.11251516984620745	-0.9502579235915583	-0.2904310851233715	0.9808657874372751	0.05948215764468122	0.18537578039481695
159														9.655189953627977	-2.0599131824118473	1.6195066356599015	-0.1577280900660194	-0.3047216790809853	0.9392904491701124	0.11229852473588126	-0.9505613171486391	-0.28952067919716823	0.9810763940419069	0.0598153879759208	0.18415001606032988
160														9.543680435747488	-2.379607381017807	1.6320827645809746	-0.1565673824170304	-0.3034144449156814	0.9399076174707742	0.11081103382852757	-0.9510318667817172	-0.2885468820617091	0.9814313880984912	0.05897510476624736	0.18252223829681102
161														9.424868952300004	-2.5256207898907443	1.6714931660444343	-0.15513367234873154	-0.30190589884346397	0.9406308372295246	0.1102787177869993	-0.9514993486882533	-0.2872065351782318	0.9817189761366801	0.05917615811582931	0.1809033836162237
162														9.35357107598514	-2.667339684410143	1.747935932087413	-0.15357028140682544	-0.3003618626311322	0.9413813893132712	0.10989924872764822	-0.9519636243047652	-0.28581009976841903	0.9820072931489492	0.05956517000136928	0.17920286472314279
163														9.273473059074226	-2.668458231610395	1.9353496102781895	-0.15198973703665725	-0.29886040870138486	0.9421154790928596	0.10968650554874686	-0.9524020047384467	-0.2844280082388018	0.9822769417715311	0.060107216547003586	0.17753628413070693
164														9.260494060974564	-2.705347541865149	1.9801028768383102	-0.1505516386925822	-0.29743676889988424	0.9427966761679716	0.10924179869641333	-0.9528314074854991	-0.28315815073342826	0.982547929367596	0.06036288110751031	0.1759428574277742
165														9.220396218715724	-2.7291446322805304	2.0098724316002823	-0.14927857406387168	-0.296246662652784	0.9433736386991876	0.10860533622759087	-0.9532037505947855	-0.28214799449034994	0.9828126923622575	0.06033676092667051	0.17446686508483122
166														9.232633774960563	-2.753860334968055	1.9910663704991225	-0.14833576202657195	-0.2950897182790236	0.9438848234133246	0.10788832339109629	-0.953575770535871	-0.2811642927591954	0.9830343897239071	0.060127431451267144	0.17328612352758865
167														9.135373453133935	-2.8494083653813354	1.9411946252896901	-0.1476862463956019	-0.29399122023293317	0.9443293572962395	0.10684254019607714	-0.9539542744234302	-0.2802782794183611	0.9832463802272691	0.05950130028174373	0.17229669478766718
168														9.07250964610847	-2.9874196430306013	1.870332145350697	-0.14743934628710986	-0.29279133350212666	0.9447406385841972	0.10548654383681817	-0.9543866710101587	-0.27931822580617716	0.9834298288316219	0.0584749281674974	0.17159969271538122
169														8.938548753668403	-3.013760990935051	1.8008026398710435	-0.14727441543138464	-0.2914949335309436	0.9451671546796023	0.1045727160174045	-0.9548202650251942	-0.2781776564750697	0.9835521306082804	0.05787024471184987	0.1711030132782687
170														8.855655764181305	-3.048774941539168	1.7502005513665257	-0.14728272431537276	-0.28993128520166717	0.9456466829527566	0.10351219266121336	-0.9553413346792728	-0.27678179171270095	0.9836630648187974	0.05712078531090642	0.17071669747495583
171														8.864707445890398	-3.0503365259787025	1.7261826183019362	-0.14715207551300752	-0.28844129903383214	0.9461225521484466	0.10275496760822626	-0.9558178515950939	-0.2754154156977633	0.983762005418001	0.05669084215122233	0.17028935701369802
172														8.82417553325035	-3.0357824272491993	1.6505408965698156	-0.1469528469840719	-0.28703222762012126	0.9465819357407507	0.1022371943337793	-0.956253404888757	-0.2740930165717756	0.9838457281799992	0.05649713219349728	0.16986952992187127
173														8.758632707153211	-3.032503181532254	1.6062208948459462	-0.14657079879431079	-0.2856296786817075	0.9470653027098934	0.10146378971259591	-0.9566964311589843	-0.27283151941229344	0.9839827744010337	0.056103700981727234	0.16920482977207585
174														8.805547241396779	-2.9723692758364364	1.5738615654809749	-0.1460114621183754	-0.2842312622824835	0.9475722887840066	0.10099181172538688	-0.9571159596146106	-0.2715321229899464	0.9841144785513922	0.05605023989519971	0.16845493080706292
175														8.821038494175033	-3.0137564291277	1.5744739665119694	-0.14548272540219048	-0.28275495407815154	0.9480951495255173	0.10016520023505816	-0.9575761945089688	-0.27021244303620084	0.9842772522371027	0.055654897843620224	0.16763300115011553
176														8.779967203210632	-3.135402509297018	1.5577009570948945	-0.1446005212259841	-0.2812204455123949	0.9486863287130174	0.09980774834690229	-0.9580182834728017	-0.26877384899157813	0.984443549743252	0.055821407700239314	0.1665979225898946
177														8.84830845016963	-3.0920811479012897	1.6585923706819377	-0.14362926191526038	-0.2795188054498235	0.9493365433404432	0.0989464115627386	-0.9585320541179501	-0.26725626066994207	0.9846726576687984	0.05554762486665492	0.1653306342186429
178														8.879194568128161	-3.074470955784329	1.6460728089842018	-0.14237686251485948	-0.2779485378066966	0.9499860206084847	0.09777298697702434	-0.9590190082142133	-0.26593793430313306	0.9849717112882053	0.05501956211154564	0.16371797624890905
179														8.912649900798334	-3.2153232877619815	1.7080950233855718	-0.1409243541969864	-0.27663389288432305	0.9505861432304952	0.0964839869323176	-0.9594352458926096	-0.26490535895793466	0.9853076507669098	0.05438472438702549	0.16189853332733
180														8.862408984027606	-3.1967586309402516	1.760333047697612	-0.13934509829128433	-0.27557941451877205	0.9511250863454728	0.09506754977459841	-0.9597821448378713	-0.26415979147150664	0.9856698760548821	0.053611759380815194	0.15993959701727084
181														8.957903034624621	-3.1710602290136545	1.8340453589466215	-0.13763312295570584	-0.27489025975678394	0.9515736800460104	0.0936938651912962	-0.9600218877720608	-0.26377913985772944	0.9860418769458903	0.05285186930862734	0.1578863414599534
182														9.118192119544721	-3.2249083748825553	1.9124992614707423	-0.13609950764159956	-0.2745360302534796	0.9518964713204761	0.09237115383856123	-0.9601677907437144	-0.2637145873039004	0.9863794878028669	0.052036349900758824	0.1560375734583141
183														9.038017975955889	-3.2823086717280288	1.7945669203453445	-0.134709203662214	-0.274670902682686	0.9520553164959324	0.09078665597679089	-0.9601929170791232	-0.26417294541196956	0.986717392947567	0.05084739138404307	0.15428327597051467
184														9.139107396486883	-3.1902536987292978	1.850618888280009	-0.13352005637073994	-0.2751503719017248	0.9520843803934069	0.0893617708009158	-0.9601154419385204	-0.26493926109681204	0.9870090518663339	0.04970524110737902	0.1527825923997178
185														9.143599324693437	-3.1999355748684564	1.7491881947937764	-0.132536590995406	-0.2758970010158075	0.9520057231329022	0.08839686109720843	-0.9599417979606325	-0.2658904651849502	0.9872284674762359	0.048914101837730636	0.15161584233163367
186														9.169677298085512	-3.0022790740968297	1.8135138847911716	-0.13193598225026942	-0.2767156748603171	0.9518515282722699	0.08719465681885202	-0.9597633186024997	-0.2669296987735895	0.9874158133278499	0.047778735350738316	0.1507554444734414
187														9.149700872049815	-2.9266672344922413	1.8054578628104883	-0.1315957973912587	-0.2776567775085791	0.9516245373110713	0.0866073740639844	-0.9595224843829002	-0.2679846352338292	0.9875128904812839	0.04715205050916467	0.15031625083829536
188														9.204229875505696	-2.8561909442362294	1.818231934127294	-0.13151036398109117	-0.27862139480154546	0.9513543727362597	0.08600882416914526	-0.9592774820793915	-0.26905240110518164	0.9875765825142888	0.04644169176789148	0.15011882938237364
189														9.132463035541477	-2.7704139615685484	1.799374473295694	-0.13166846032325025	-0.2795310228907486	0.951065625389624	0.08543469516720939	-0.9590485864648429	-0.27004948002444484	0.9876053510475685	0.04569700254326088	0.15015809848546474
190														9.197141475570485	-2.7523002642445977	1.8241869409113238	-0.13208018501970242	-0.28035299291254756	0.9507665455253141	0.08447468638230442	-0.9588639410754048	-0.27100547940208736	0.9876329541311254	0.04452125189525698	0.15032965789858832
191														9.198643460913043	-2.7625749349264517	1.7381138788618893	-0.13240589948803122	-0.28126992306877086	0.9504503712228506	0.08398118921922235	-0.9586282892467766	-0.27199074049151933	0.9876314280327919	0.043806773821951014	0.15054942354330642
192														9.236452273739244	-2.723454116929239	1.7151025723871867	-0.13265396501710358	-0.2822907994962405	0.9501130617379254	0.0839791467250871	-0.9583387827230347	-0.27300967097203466	0.98759831332408	0.0435738688746557	0.1508339798279119
193														9.215758123617436	-2.6471530768188543	1.716343181181293	-0.13297962828960258	-0.283210097653487	0.9497939034585668	0.08381986114726148	-0.9580852440663319	-0.27394688532562506	0.9875680479527539	0.043182238124716554	0.15114445068651167
194														9.25020447992353	-2.593857287460547	1.7139891365807494	-0.1332681556249795	-0.28405852825108896	0.9495000533039172	0.08365965866645336	-0.9578507121779394	-0.27481461877423236	0.987542738421041	0.04281081298036114	0.1514152372908083
195														9.285533858764497	-2.5337008469673026	1.6774036228870406	-0.13352513905276586	-0.284887798405288	0.9492154547628936	0.08346965642726069	-0.9576217012812943	-0.2756691743576601	0.9875241028434972	0.04242192304583704	0.1516460574767392
196														9.238916406632008	-2.5647182893273484	1.656395805484804	-0.13371077474868542	-0.2855991154016647	0.9489755391989266	0.0833528813053372	-0.9574221349450456	-0.2763967306162818	0.9875088485143843	0.04214262449180976	0.15182316459202672
197														9.28088335471317	-2.6733403095134163	1.6733066125565268	-0.13368474634891608	-0.2862218382613613	0.9487915724203674	0.08330150130464027	-0.957242400815941	-0.2770340158906962	0.9875167079467665	0.04200054026343761	0.15181141638085177
198														9.271606310886314	-2.6530862914031736	1.7130420292716169	-0.13350830573325645	-0.28686043364248115	0.9486235417227863	0.08362722965627414	-0.9570396229447405	-0.27763581644630353	0.9875130473873507	0.042264071316384266	0.1517620819424651
199														9.347562202098542	-2.5674395263229073	1.7840229323917403	-0.13324167175022394	-0.2875535061565592	0.9484511785043421	0.08406244743804514	-0.9568144549897614	-0.27827972195862943	0.9875121071865052	0.04265067197261796	0.15166000903452648
200														9.411022956880918	-2.526496115722211	1.7929699657758489	-0.13302652450721042	-0.28817729836259487	0.9482920375527618	0.08408221948895009	-0.9566276244222369	-0.27891534299510956	0.9875394291588283	0.04263136053075908	0.15148743497713557
201														9.488259183302075	-2.5513627266250034	1.7900035459777244	-0.13292362827523801	-0.28870726078720993	0.9481452560736102	0.08445888092024045	-0.9564539713888923	-0.2793966679259369	0.9875211422951139	0.04294086844908461	0.151519224314908
202														9.490417831962333	-2.5695441700626076	1.7712685476217307	-0.13308017076312456	-0.289172963294762	0.9479813634502441	0.08496271760955361	-0.9562966457264426	-0.2797821688184473	0.9874568369129137	0.0433096140791064	0.15183304173420892
203														9.432218380692342	-2.51677096282666	1.6964980898087147	-0.13333521906967533	-0.2896103003417684	0.9478120031375381	0.08553809268191637	-0.956145444317482	-0.2801234085385669	0.9873727533489982	0.04372371492537755	0.15226057499281537
204														9.314677255394454	-2.5562896453576136	1.6739611034269186	-0.133605548036399	-0.28995907580205527	0.9476672896612567	0.0862747154958642	-0.9560130407567403	-0.280349316691087	0.9872721159842416	0.044303501702118955	0.15274478301051453
205														9.294472828234158	-2.5634416588050293	1.5887138584327927	-0.1337989252289299	-0.29020949379010286	0.9475633473924979	0.08696902489257838	-0.9559101610175621	-0.28048556606822544	0.9871850061243929	0.044879993064516455	0.1531389888490572
206														9.306358261063123	-2.5200000957089705	1.6533521155487119	-0.13395095498366172	-0.290440699079693	0.9474710243469533	0.0874267964010062	-0.9558228590873046	-0.2806407264051819	0.9871239521610358	0.0452422630321512	0.15342568463496464
207														9.257712187267803	-2.5305614375816683	1.6529207320482904	-0.13392629412572205	-0.29067367630923513	0.9474030618710414	0.08818705579487746	-0.9557183794839428	-0.2807586549099019	0.9870596693878144	0.0459477204816537	0.15362947650290965
208														9.308661001799921	-2.536071734335021	1.6371857917331094	-0.13390063033569238	-0.29088907454443935	0.9473405763010383	0.08880271138388166	-0.9556253379329467	-0.28088127732444523	0.9870079531830402	0.046516231696263594	0.15379057364547494
209														9.266919794924288	-2.5796568907646495	1.6300287714406272	-0.13381019530381705	-0.29111692531522954	0.9472833617391164	0.08972701398341841	-0.955512516116615	-0.2809713410761235	0.9869366213665264	0.047400077420853795	0.15397836882537524
210														9.22961980803278	-2.512324721202153	1.6086263793520577	-0.13373475687181263	-0.29135238422992277	0.9472216229626401	0.09077941990774925	-0.9553904981664304	-0.2810482039339763	0.9868506025359923	0.04840231623425527	0.15421771641905951
211														9.31195354044096	-2.5398736501961214	1.554600828518721	-0.13375305312658758	-0.29148637056722737	0.9471778167550494	0.09156038021182208	-0.9553124159955824	-0.281060286451414	0.9867759713099947	0.04913128960478595	0.15446455524484515
212														9.300913783988257	-2.6113647930415107	1.5438068928195003	-0.13391771271321035	-0.2915267386301022	0.9471421260219387	0.09221497438156374	-0.9552700998391657	-0.2809900974288554	0.986692679977646	0.049711135744078455	0.1548107175280969
213														9.291262839382366	-2.6696732550492333	1.466063787924344	-0.13413610150999972	-0.29150647789550743	0.9471174581944178	0.09296674170853778	-0.9552412627793059	-0.28084037248923954	0.9865924646011629	0.050379591391284534	0.1552327464275825
214														9.335875418045566	-2.63914928392354	1.4592740087130727	-0.13448875187744863	-0.291407356580036	0.9470979506626979	0.09383700735095404	-0.9552312425106444	-0.28058490583598295	0.9864620578967359	0.05113732357687624	0.15581265182112397
215														9.32527770384055	-2.5896826018806545	1.4909420410543477	-0.13501706257333196	-0.2912010099170237	0.9470862498407284	0.0944520779755766	-0.9552684497761172	-0.2802516615979816	0.9863311805778852	0.05161550818929793	0.15648208055300122
216														9.289024195378566	-2.63043470954649	1.401142283232569	-0.13570290402444646	-0.29090095128914834	0.9470804392333323	0.09461511679475382	-0.9553592642889559	-0.27988686251980677	0.9862214262087639	0.05162666632985968	0.15716865403259767
217														9.19999424982064	-2.6785186077712173	1.3967489739989338	-0.13638640877517572	-0.2905337871137941	0.9470949614725693	0.09487102168453058	-0.9554648493158038	-0.2794394584994435	0.9861025487980165	0.051740122412354914	0.15787565672645842
218														9.159692453043267	-2.71137341631711	1.3604951975652557	-0.13698740087427602	-0.29022636539834407	0.9471024806373265	0.0951003732749346	-0.9555527528311737	-0.2790606664503869	0.9859971455357661	0.05184200405494448	0.15849932369221204
219														9.162907457825883	-2.72798131333218	1.3793366455576381	-0.13736690567255994	-0.289929656368186	0.9471383888240259	0.09529355837101924	-0.9556358332931683	-0.2787100497991796	0.9859256924124329	0.05197065022007702	0.15890116600191218
220														9.255182547485031	-2.693234201357311	1.4079266359069817	-0.13769731748540842	-0.28964134921666557	0.947178619681247	0.09531673308841777	-0.9557245226078828	-0.27839783993286626	0.9858773600964138	0.051947335926725596	0.15920837019278217
221														9.23222749967709	-2.689719275942814	1.3751012324536123	-0.13791192098372196	-0.28945855718473606	0.9472032758194574	0.09550150727324079	-0.9557718038246851	-0.2781721070169465	0.9858294802647766	0.05209609089211284	0.15945605399181917
222														9.205477179291373	-2.6731675859693875	1.3612471999664386	-0.138057416581279	-0.28928282674465255	0.9472357657296977	0.09536058021799337	-0.9558330867156513	-0.2780098380995138	0.9858227576331311	0.051947632191020665	0.15954602484034375
223														9.281343524427122	-2.671685404134523	1.3458877626252383	-0.13804898998746096	-0.2891195864396028	0.9472868314826478	0.09545598809978426	-0.9558758164394627	-0.2778301241443846	0.9858147040389159	0.05207003248686677	0.1595558868155007
224														9.305425305122494	-2.547695563518609	1.3855563528163932	-0.13793099442537338	-0.28905867138177194	0.947322608869773	0.09585074688504767	-0.9558709065604098	-0.2777110806449021	0.9857929169447337	0.052496614084963214	0.1595507142297028
225														9.305761214911907	-2.54672402696398	1.3850863554114672	-0.13799388000310203	-0.28885849674881736	0.9473745077516615	0.09558826669307191	-0.9559444948582398	-0.27754820485969456	0.9858096024853398	0.05225793342869846	0.1595259729368797
226														9.298958966904932	-2.636163117955552	1.385647889159156	-0.13813959833713768	-0.28850013035952865	0.9474624668839339	0.09490740488660031	-0.9560875482560964	-0.2772889910676902	0.9858549770980239	0.051616614110009756	0.15945434857310464
227														9.314166228937632	-2.694125931024465	1.3394460732403997	-0.13827494141152025	-0.28806198841356384	0.947576029355357	0.09443010905353288	-0.9562426330943394	-0.2769169210375966	0.9858818362672976	0.05118903675620781	0.15942611904638798
228														9.34608964542972	-2.71876435807928	1.3349518581791862	-0.13850788478023673	-0.28749639774228103	0.9477137685709318	0.0937627277856697	-0.9564457178989603	-0.2764419280625385	0.9859128342464643	0.05057084138073488	0.1594317197741701
229														9.305416116568647	-2.6439166145585102	1.3995099000693831	-0.1386794345423008	-0.2868385519451807	0.9478879994772695	0.0935189460437485	-0.9566524117703961	-0.2758085745308725	0.9859118729206453	0.05039650952077204	0.15949285458047502
230														9.32032554591417	-2.5863165117096543	1.4268269734550327	-0.13887512836519633	-0.28611994534673946	0.9480765135770054	0.09319791128085775	-0.9568804959757555	-0.275125181970095	0.9859147265633251	0.050150705837219714	0.1595526829908951
231														9.267851662930955	-2.6748341319046687	1.3906762319285533	-0.13907836943907392	-0.28540683550041757	0.9482616439589898	0.09237635356342234	-0.9571316484527828	-0.2745279891602756	0.9859633950895409	0.04941604779518889	0.15948115175095
232														9.231777942558152	-2.7319654183286843	1.3946104602399556	-0.1391781672672902	-0.28472980558211647	0.9484505129785575	0.0913900418385777	-0.9573778740050785	-0.2739990266739273	0.9860412253089937	0.048544249697432276	0.15926756673112114
233														9.191347399011528	-2.7819533359817243	1.4510047055994513	-0.13905383875707272	-0.28405802286650245	0.9486701584703167	0.09068106305686746	-0.9576046780530272	-0.27344144779794244	0.9861242187117193	0.048003335468819616	0.15891728997837057
234														9.25054300674437	-2.702801088758138	1.4962689673885972	-0.138734939203346	-0.28347181351147177	0.9488921685780536	0.08982880409930252	-0.957810257035163	-0.2730023763125955	0.9862471305906715	0.04736288064246337	0.1583456817817106
235														9.296463193994905	-2.6763793888210676	1.5130184547933554	-0.1383027410330358	-0.2830283403589345	0.9490876199679437	0.08918170141285348	-0.9579627506456551	-0.27267928507409384	0.9863665525330112	0.04692895618994118	0.15772982316310663
236														9.33133628678184	-2.6039322440515176	1.5557369769025313	-0.13800341672129018	-0.28258673144397695	0.9492627645626149	0.08836692700898767	-0.9581239857059995	-0.2723778886507436	0.9864818007364541	0.04629435415532074	0.15719570474126693
237														9.25115424441889	-2.562591515220768	1.5380347211181449	-0.1376484534595428	-0.28211758247305146	0.9494538287456407	0.0876000045510044	-0.9582895261510869	-0.27204305407745394	0.9865997883959126	0.045725854050914394	0.15662057274973296
238														9.276341463241478	-2.5606442163242407	1.5673669747410262	-0.13722089347472716	-0.2815704203324436	0.9496781164098755	0.08695003682598024	-0.958470497020674	-0.27161369154905124	0.9867168375425437	0.04530347376033644	0.1560047363873554
239														9.267843868625535	-2.5091889813626183	1.587214843610303	-0.1368385898778719	-0.2808382523275573	0.9499500388703819	0.08616664219393322	-0.9587104108821425	-0.271015973402339	0.986838644406095	0.0447685614667022	0.15538746992902552
240														9.311294318499153	-2.460472969622749	1.5894300026357746	-0.1364603565241695	-0.27997152738648684	0.9502602353830102	0.08496452795817584	-0.9590064691043528	-0.27034722340879724	0.9869952381273887	0.04384673384505877	0.1546540133490873
241														9.324040752101546	-2.3824700404428047	1.595842511870887	-0.1360461212114687	-0.27901957381548026	0.9505995636076964	0.08385138869917719	-0.9593206754662524	-0.26957890539913076	0.9871476067521688	0.043033929065351945	0.15390803563383032
242														9.31511967265173	-2.341275696005335	1.6824676355605555	-0.13564006088890274	-0.2780340194462675	0.9509462960191851	0.08253636538484857	-0.9596514149647328	-0.2688064548057675	0.9873142976130315	0.04202672705242344	0.15311509377637328
243														9.258421250151489	-2.387969579092175	1.6104834198111493	-0.13527612601046862	-0.2767948555914342	0.9513595417347314	0.08079592635057159	-0.9600695400624151	-0.26784043109563727	0.9875081711139173	0.040633559559321186	0.15223838484687852
244														9.262024014010114	-2.3845952134052872	1.6352898682442887	-0.13481948962754936	-0.2752824072700738	0.9518630686522933	0.07871394831175513	-0.9605730320846695	-0.2666525161569624	0.9877387405370621	0.038974944249581686	0.1511725311126349
245														9.336817728375014	-2.240246542875911	1.6694140711592678	-0.134249579715854	-0.27366389957300213	0.9524101639612077	0.07706224927910844	-0.961083134778054	-0.26529345597137083	0.9879465876666416	0.03777933450561216	0.15011416256353677
246														9.273940044048373	-2.0393722756245056	1.7301752988257484	-0.13382012742070915	-0.2717704761788809	0.9530125821701456	0.07507185946367907	-0.9616789019342948	-0.2637004085911009	0.9881580791623219	0.036256004357240884	0.14909430818873315
247														9.354141463116587	-1.8058799534226855	1.7995490664368505	-0.13350589661632628	-0.26942268501315647	0.9537230165876109	0.07258383059762356	-0.9624115611643547	-0.26171659189467783	0.9883864442132169	0.03428416161278157	0.14804334891531734
248														9.358959213516936	-1.7990837693971076	1.8585125126077748	-0.13333844149097784	-0.26657769044046625	0.9545455436909147	0.06956786628755778	-0.9632876679529389	-0.25930133194795757	0.9886259009357146	0.03183086127039832	0.14698851747613173
249														9.388242894436656	-1.5402095277889116	1.8797684597493416	-0.13339300395364811	-0.2629226747489174	0.9555511360461547	0.06546252495434729	-0.9643995684453162	-0.2562189107171627	0.9888988645573537	0.028374979918282403	0.1458557376033373
250														9.470484851744994	-1.4153304373588387	1.9452435389530154	-0.1335622013824283	-0.25853553031898835	0.956723846219252	0.061019034615249435	-0.9656868868131523	-0.2524391293990389	0.989160156787819	0.02466203965208781	0.14475485492271473
251														9.492626153865729	-1.4565015337091134	1.992663102880479	-0.1340122445831754	-0.25314003100278865	0.9581027309248661	0.05512148612393741	-0.9672311177559256	-0.24784185807105172	0.9894454709933579	0.01959820268621512	0.1435742678274986
252														9.568401733336946	-1.4856994160410513	1.9875316315536924	-0.13447135869045002	-0.24692367482077796	0.9596593940065127	0.04858518850135082	-0.9689335684695253	-0.24250199865403227	0.9897256858090694	0.014015659310741127	0.14229064671949698
253														9.678187786345182	-2.0848174102181645	2.0810331603312857	-0.13468580057426682	-0.23974166616811463	0.9614487342685539	0.04177019343307983	-0.970800859688931	-0.23622222962243528	0.9900075686903768	0.008344119496251301	0.1407671467552012
254														9.631041362884321	-1.2376606307759555	2.0172998120284964	-0.1349268990653424	-0.23138628184146545	0.9634599734727922	0.03628484673445989	-0.9728532335818029	-0.2285607048617228	0.9901909622926621	0.004120010317065867	0.139659885825958
255														9.509820073070756	-1.1748509553747777	2.133177661985015	-0.1354436933080178	-0.22299579337277492	0.9653641189111651	0.028934688598659872	-0.9748173207102304	-0.22111982054765372	0.9903624537202439	-0.0020167749935661033	0.13848517205767236
256														9.511975679788897	-1.8450133666264514	2.127561275104046	-0.1359990321317721	-0.2145185040094974	0.9672052908750802	0.020388750044047832	-0.976675171062098	-0.2137519803474648	0.9904991479707909	-0.009349955526572196	0.137200642129651
257														9.372601865732433	-2.0256102884675826	2.0540337440973024	-0.13616078966046524	-0.2053580258868447	0.9691688813426151	0.012169305939656344	-0.9785527383080943	-0.20563668530366147	0.9906120064646831	-0.016205540829854356	0.13573957821662158
258														9.51435832302708	-1.954193391987345	2.1263429171079298	-0.13583954533366815	-0.19590202887752264	0.9711694048955688	0.004871028587163789	-0.980375753196544	-0.197077790795444	0.9907188758694598	-0.02204036356279171	0.13412804095331676
259														9.538644551274507	-1.8865801333143484	2.0896372860289336	-0.13544339400363836	-0.1863607741266199	0.973100585185161	-0.0024885799722947077	-0.982083935162207	-0.18842757565185692	0.9907819608725713	-0.027942908997484875	0.13255300768470546
260														9.521525358893852	-2.0323400343587603	2.103862684021903	-0.13501220869136243	-0.17687579473001236	0.9749290521586208	-0.009747609664371396	-0.9836533403680495	-0.1798084816926317	0.9907959868762647	-0.03377956810566041	0.1310810938636232
261														9.675429867519389	-2.0213521013059066	1.961347948947637	-0.13459719710036644	-0.16726509543433982	0.9766811057771445	-0.01591413499182215	-0.9851581159622768	-0.17090999637563276	0.9907725949178179	-0.03854704142989357	0.12993764180103817
262														9.69220188299743	-1.77448191700729	1.9774164066545894	-0.13432341313945617	-0.157640463008141	0.9783183045947498	-0.021828068554606117	-0.9865551041747133	-0.16196469322045398	0.9906971061357462	-0.043110449422376546	0.12907646200937772
263														9.850730304616816	-1.705710346450259	1.8727267093809215	-0.1341441019844884	-0.14822717183004397	0.9798132809030716	-0.027173582000956972	-0.9878277412996114	-0.15315988365151328	0.9905891965613255	-0.047170531586727286	0.12848340206350833
264														9.806243419476928	-1.5069854452064684	1.7942450232495946	-0.1342526646525281	-0.1391030488030643	0.9811353443064761	-0.03256660931935872	-0.9889444085943514	-0.1446664185891387	0.9904118527113532	-0.05137410362877343	0.12823830740150916
265														9.82670076776642	-1.2873030970930663	1.7258316665844613	-0.134726664263213	-0.1301825195890503	0.9822938651594814	-0.038226036854635284	-0.9899112468563223	-0.13643494220231456	0.9901451893752223	-0.05593062614353059	0.12839107841395003
266														9.893648497760577	-1.053776396548419	1.6113808323355412	-0.13551701663674443	-0.12130750726014043	0.9833207141539362	-0.045113282601014784	-0.990691410358514	-0.1284341121930575	0.9897474071372134	-0.061765832983850286	0.12878296448278326
267														9.924189732759357	-0.8783519141320062	1.5223980257766088	-0.13683150433516617	-0.11252578778309136	0.9841824457412202	-0.052564992465470854	-0.9913026669695923	-0.12064801708307565	0.9891986964146687	-0.06824199251756799	0.12972651798592222
268														9.721992880488386	-0.8991009085853847	1.3312135313466138	-0.13858653600054877	-0.10358339697835522	0.9849183986045712	-0.0614741692245253	-0.991697564042086	-0.11294630578795796	0.9884405387060583	-0.07619987758137771	0.1310682268860765
269														9.56884121722385	-1.053416353325772	1.1878715018267862	-0.1404020459056609	-0.09453224324352902	0.9855713675289326	-0.07068075787961717	-0.9919348505568091	-0.10521160922827515	0.9875684765984925	-0.08443285639007243	0.13258807182678906
270														9.502971027497052	-1.1509129664433542	1.0388036562455623	-0.14202319522333023	-0.0853566625030192	0.9861762784537569	-0.08044391610262809	-0.9919845552878894	-0.09744443766763636	0.9865891689962085	-0.09317125220063435	0.13401839195698712
271														9.44385910815001	-1.0314043527256462	1.0137016096047091	-0.14357061519672581	-0.07626332134550756	0.9866972100241217	-0.0895507853480435	-0.9919349085444884	-0.08969835034372887	0.9855801009028046	-0.10123755739936412	0.1355832647350998
272														9.516101360549106	-0.9876203581595239	1.0338772704572048	-0.14519692233115072	-0.06722528566290585	0.9871163126567719	-0.09927714188130203	-0.9916639651809679	-0.08213786740255255	0.9844094183039092	-0.10992425177866885	0.1373126215082146
273														9.64900800481649	-0.9182648064113015	1.119492769779579	-0.14722362087550667	-0.0583051053177366	0.9873832691261244	-0.10919151378776777	-0.9912015155344607	-0.07481155605201398	0.9830576884257813	-0.11882790200990487	0.13956185342307426
274														9.67202300199464	-0.8013674101686398	1.0486270469278127	-0.1497973566385904	-0.04943092666492221	0.987480296225266	-0.12044149527834316	-0.9903991869540054	-0.06784759904346824	0.981353452207312	-0.12909699442625872	0.14240564550220158
275														9.638313126872006	-0.7252153505179273	1.1201129574803945	-0.15311537793946467	-0.040730027128638345	0.9873685967907609	-0.13269319819121073	-0.9892544583675564	-0.06138511019540223	0.9792590036309311	-0.1404161012491587	0.1460654727091349
276														9.67786913181661	-0.5786414806435685	1.0041768112375207	-0.1571082711931419	-0.03191429158756588	0.9870655850120427	-0.14761601923890483	-0.9874906236045562	-0.05542363356136414	0.9764868160844578	-0.15441420363926667	0.1504318840129632
277														9.6244368932442	-0.5158896876575686	1.0353372186484875	-0.16203139015651002	-0.02307004698798755	0.9865158901588565	-0.16375984505822383	-0.9852355084295186	-0.04993702109792542	0.9731025340376293	-0.1696430542686619	0.1558611317421521
278														9.550290162178012	-0.5922328507562975	0.9251067180711517	-0.1677933099959218	-0.014111196410813584	0.9857211975282196	-0.18210369980709734	-0.9822463296224593	-0.04505985419164962	0.9688568767558903	-0.18706421913092194	0.162244661803584
279														9.40317268805949	-0.6186620112265896	0.8039446635366644	-0.17436001867564033	-0.004878018512822435	0.9846698882482485	-0.20229207638232338	-0.9784804637602891	-0.040668143212802224	0.9636786288594128	-0.2062818144549764	0.16962108744140303
280														9.427050057655629	-0.7832648045488181	0.731987395664875	-0.18136669261702199	0.004695363808763217	0.983404330053446	-0.2251790810263714	-0.973619128178786	-0.036880546532017	0.957288098890445	-0.22813098606520943	0.1776393788539965
281														9.463237217991136	-0.9343506540440073	0.6048446503520664	-0.18896145349412286	0.014695840657735978	0.9818745344292985	-0.24931577778748842	-0.9678428247189131	-0.03349491881369031	0.9498079869318898	-0.2511260617846711	0.18654889185656776
282														9.57725609165529	-1.2108562474533462	0.5590166774031705	-0.19648332097930427	0.025155234260210407	0.9801844309956457	-0.27559671718175616	-0.9607865824967384	-0.030587454501433797	0.9409786150894094	-0.2761455360558126	0.19571123846336752
283														9.696700873600648	-1.2736403899480528	0.5372173467313566	-0.20382244657741988	0.03601830860505506	0.9783450780355707	-0.3027149995384825	-0.9526699512489597	-0.027992731944599725	0.9310317069389271	-0.30186527695734844	0.2050788025171103
284														9.846863590132747	-1.231918709099225	0.5320584069723684	-0.2107845454605226	0.04695755814942107	0.9764040470664	-0.33175081552695407	-0.943001302853028	-0.026266694019101783	0.9195168686827894	-0.3294594520576636	0.21434830920178083
285														9.839894398120627	-1.1315599195188513	0.48275387828112093	-0.21784660730490335	0.057418023683856706	0.9742925773308468	-0.3611380568055217	-0.9321550038482639	-0.02581380885060644	0.9067095232832154	-0.35747757881702724	0.22380263856943483
286														9.775737878770391	-1.1617106579949246	0.4522680458224638	-0.22479275203466437	0.06738927666638236	0.972073507520426	-0.39203539548464283	-0.9195564703372954	-0.02690997116338875	0.8920630399920634	-0.3871363884359057	0.23312861134773205
287														9.69681344683637	-1.2913173035615588	0.28048147528342415	-0.23167009913871273	0.0765612991867066	0.9697769499384388	-0.42289479507275995	-0.9056977350481183	-0.0295229576613755	0.876064471066728	-0.41695321103878147	0.24220045899837184
288														9.397960770700273	-1.5257992745384827	0.2633429125799844	-0.23819721372766295	0.08465159654080479	0.9675206429712343	-0.45350793045424975	-0.8906138251316353	-0.03372790387053806	0.8588321398198143	-0.4468121771924862	0.25053190201056014
289														9.222568890897342	-1.700968503957013	0.32486718986529933	-0.24414965112588033	0.09152928113604453	0.9654083791587003	-0.4831382622161041	-0.8746634613441209	-0.039258743896404186	0.8408141099184248	-0.4760107352615478	0.25777007676967995
290														8.981370438114046	-1.7479393681044166	0.4155018800552784	-0.24925975579423476	0.0969921507985402	0.9635673805317776	-0.5115019730775036	-0.8580528296200587	-0.045946415734322205	0.8223352757113239	-0.5043192087006835	0.26348971527613196
291														8.805261162467668	-1.8593649199054592	0.5165035683904262	-0.25365544170377674	0.10104356218127417	0.9620026587467316	-0.5383476116980234	-0.8410157703871912	-0.05361271247636276	0.8036421877135966	-0.531490990047581	0.2677247870951548
292														8.671911218889598	-1.8289674278588448	0.6613550518461394	-0.2570594690661464	0.10380466409745107	0.9608043614987631	-0.5636407682816873	-0.8237043930633952	-0.06180742009575205	0.7850028749592322	-0.5574366910777213	0.2702495545714386
293														8.612395323546988	-1.619709976309003	0.8845004365795252	-0.25939392240661074	0.10515731805947337	0.9600295471895914	-0.5874815530819398	-0.8061668886097442	-0.07042991195306203	0.7665378123791058	-0.5822687405037497	0.27089277588232585
294														8.685340393664562	-1.6149963262063312	1.0603747893100486	-0.26084819165421763	0.10510897803039759	0.9596407263388369	-0.6100594527372687	-0.7883596216041145	-0.07947685921148478	0.7481882684435981	-0.6061692913383383	0.2697649072836345
295														8.650367521658888	-1.5641291006472282	1.2665129109045181	-0.26160473389989813	0.10373437333445196	0.9595843594963769	-0.6314203722601632	-0.7703320562692884	-0.08886414675653348	0.7299803262390023	-0.6291483949537171	0.26702250922190285
296														8.797143172947576	-1.5368073210330213	1.4156231537510018	-0.26179555138404925	0.10116858937928436	0.9598062334651344	-0.651609452746102	-0.7521383874651794	-0.09845286787699864	0.7119467749540324	-0.6511933373617134	0.2628288930240868
297														8.974329558179619	-1.538673364833548	1.5698882578621134	-0.26179596656545806	0.09778621923205294	0.9601566159842665	-0.670625163381356	-0.733875863980308	-0.10811154659371813	0.6940639467151328	-0.6722083543035278	0.257703640398726
298														9.158334633564289	-1.4683552953713128	1.6624865714022656	-0.26181308104047374	0.09383454583626466	0.9605461928526895	-0.688683848587142	-0.7154244759145656	-0.11782349493021876	0.6761423424777482	-0.6923603810661545	0.25192982244790396
299														9.23038674015905	-1.4758439591590609	1.7356743973043338	-0.26195076000563466	0.089426199360222	0.9609291098725525	-0.7057547659188393	-0.6968821036785933	-0.12753644167586947	0.6582492003149829	-0.7115885668281103	0.245661763089418
300														9.328219036269354	-1.5808655128681401	1.7623304147129055	-0.2622530934804475	0.08461773959303631	0.9612820361923449	-0.7218296031374558	-0.6783316502710179	-0.1372158747194368	0.6404571328311977	-0.7298671183076837	0.23897416307810143
301														9.467729836001197	-1.6586492685058565	1.8459111119221594	-0.26275553979621213	0.07957683458557757	0.9615752979895759	-0.7366981291514625	-0.6601224892740876	-0.1466770795295506	0.6230853816381324	-0.7469309382746994	0.2320749461638224
302														9.53763717668837	-1.5920903845294707	1.8343892568707272	-0.26342961729253306	0.07451951005422991	0.9617960695253367	-0.7505285926708714	-0.6422079490769836	-0.155806873166157	0.6060624293887471	-0.7628995954669338	0.22510561725509642
303														9.539943475643991	-1.5104235975169789	1.888840156896914	-0.26422172440047215	0.06978512052714247	0.9619339464369957	-0.7635386516301428	-0.6244787973836539	-0.16442310994835424	0.5892330674882938	-0.7779179060616084	0.2182845015273835
304														9.66669876600754	-1.390268819054207	1.9740398955585658	-0.26514268080197056	0.06540932454695975	0.9619880347901708	-0.7761617212500513	-0.606424272474212	-0.17269216606517002	0.5720772161896521	-0.7924463527687114	0.2115571712333687
305														9.768427587679712	-1.2243755790570727	2.0485028493331376	-0.26605617788574626	0.06164729975539246	0.9619842621590527	-0.7886707125665395	-0.5877356340506537	-0.1804586700795036	0.5542676405389505	-0.8067009575424744	0.20499011622866098
306														9.767169173532851	-0.9785686314403047	2.0917737013833606	-0.26698958105831727	0.058535914314574666	0.9619200124447254	-0.8013402277402797	-0.5679465370835806	-0.1878578463091845	0.5353227092245016	-0.8209812895249962	0.1985429909072941
307														9.74549436349433	-1.1227487255222335	2.1522029235162687	-0.2678518300348903	0.05602184556960471	0.9618300005541186	-0.8141832511154377	-0.5469256993436006	-0.19487922670364322	0.5151320517596015	-0.8353046343798705	0.19210709782164337
308														9.69480181624851	-1.445900753600953	2.064519021425812	-0.2682285688629463	0.05405629047109489	0.9618374874718914	-0.8270958380159656	-0.5248317487765447	-0.20115692931843476	0.4939290531871996	-0.8494878180036833	0.1854846017353946
309														9.621255863413207	-1.813555985916896	2.0106817680609743	-0.2679256466361046	0.05233364041213029	0.9620171713414677	-0.8395531139331703	-0.5025092663576374	-0.20648245956939243	0.47261656420373377	-0.8629864583560525	0.17857199090096726
310														9.553923733813772	-2.1471297293053726	2.0193480699439457	-0.2669355284947782	0.05066395740140117	0.9623817262643979	-0.851210181419569	-0.4806304916911658	-0.21079743239511445	0.4518701701538596	-0.8754584478301282	0.17142303068136644
311														9.40315030175648	-2.416297324404599	2.00208550455105	-0.2651902236210186	0.04893096059206903	0.9629537405251464	-0.8618429674026146	-0.45982534908303246	-0.2139797838098792	0.4323203035186868	-0.8866602559245589	0.16411199142447158
312														9.325634003562563	-2.690584654209884	2.003659348461843	-0.2625714781577744	0.04732748366861805	0.9637511754325585	-0.8714074694685513	-0.44055515123646594	-0.21577808246768387	0.41437331117297754	-0.8964771430486176	0.15691874005016537
313														9.336974692890962	-2.9629030420931692	1.9077997998177012	-0.2591674653303031	0.04569471885079385	0.9647508577780133	-0.8796909697325925	-0.42352880974668106	-0.21625712724784402	0.39871797386774105	-0.9047294291575279	0.14996211965392053
314														9.319016392637332	-3.1977318561789034	1.9057504241123848	-0.25504656570445994	0.043833965418483	0.9659346938577432	-0.8866065539522943	-0.40923813476443793	-0.21552950504133178	0.38584979954795673	-0.9113740903329517	0.1432382618527141
315														9.330877729763653	-3.2235239377192015	1.933681760796156	-0.25028215267498005	0.041633204676977675	0.9672773750691697	-0.8921830288785007	-0.39790840438684966	-0.21372492765116569	0.3759897432558004	-0.9164799932276952	0.13673381066803164
316														9.383353251288803	-3.149967892492519	1.9894250820270105	-0.24494586956044964	0.03897953072231636	0.9687528669221799	-0.8966033715063941	-0.38931375654400086	-0.21103836894973582	0.3689226411981808	-0.9202800634319238	0.13030997529388139
317														9.450910756866183	-2.9877990742533562	2.019778956685773	-0.23931177673933202	0.03583262519625591	0.9702813491381814	-0.899978008672027	-0.3832106759689683	-0.2078200224476457	0.36437543471068096	-0.9229656552629419	0.1239554024012317
318														9.51074608126849	-2.8012730007192586	2.0661788231826548	-0.23369214000488917	0.03223890634817267	0.9717760218370326	-0.9024548383284006	-0.3791814555657381	-0.2044423843842279	0.3618884475602883	-0.924760550992808	0.11770588281765082
319														9.658625163225468	-2.634839353620661	2.1123881537134297	-0.22832948208175238	0.028371693899919614	0.9731704345064782	-0.9041955164432818	-0.37678171871293026	-0.2011616377135481	0.3609655325043448	-0.9258674761697698	0.1116839331098044
320														9.71510357827406	-2.3856617598415832	2.1126698558011143	-0.2232441313793818	0.024419902028365414	0.9744566312512783	-0.9054623336905807	-0.3753956941070508	-0.19803038936863315	0.3609709407587712	-0.9265428976743656	0.10591618713358775
321														9.904974191713626	-1.9857032874658163	2.107327675220923	-0.21864861105049976	0.02083024778440007	0.9755813065362247	-0.9065098257768591	-0.3743616708072361	-0.19517498610329714	0.36115470460135907	-0.9270487798426004	0.10073648364247195
322														10.116015876019333	-1.5804430586463443	2.1615991084532475	-0.21477285113064862	0.01798963253314817	0.9764983336076584	-0.907748004110321	-0.3725942744394725	-0.19278762327662807	0.36036950960221403	-0.9278199608632294	0.09635318766296419
323														10.204427190981093	-1.3387460327789016	2.2066870041652518	-0.21164129168010395	0.016260060193911574	0.9772121438553999	-0.9094894135566052	-0.3693419350684616	-0.1908285660700355	0.3578225402129368	-0.9291513038479653	0.09295635681967401
324														10.12913314239295	-1.230773073878633	2.2151705989971546	-0.20907209179216582	0.015653648998605996	0.9777749350983984	-0.911981841841949	-0.3640074500091707	-0.18917636345058547	0.35295606041576205	-0.9312644842421782	0.09037964264664555
325														10.05569027391584	-1.3172962185985866	2.147982222389108	-0.20689973343601156	0.016078060007305772	0.9782300324006157	-0.9152394611773405	-0.35650932279302006	-0.1877174245121499	0.34572999437121416	-0.9341534128546899	0.08847695883119233
326														9.917344718906273	-1.6415733583425058	2.0272184260971082	-0.20484196863526624	0.017386324360142646	0.978640630472122	-0.9191630866848671	-0.34707188130683453	-0.18622655364389362	0.3364208494751419	-0.9376773565205563	0.08707575498981046
327														9.75431921059832	-1.9371186788674601	1.8465730710374058	-0.20258685042381297	0.01933360567224468	0.9790734291804013	-0.9233901628893197	-0.3366614950659842	-0.1844170404793773	0.32605087810738326	-0.9414272406466933	0.08605565323532172
328														9.622062878127364	-2.313486070945039	1.6705669544408919	-0.20013583847281696	0.021753022021178514	0.9795266470044235	-0.9275769799985949	-0.326152595281999	-0.18227844295884887	0.3155100510846974	-0.9450668180736017	0.08545242559909594
329														9.535765421865117	-2.612536193159104	1.5054649784565575	-0.19747621035163374	0.024316729435817475	0.9800060423358121	-0.9314293729242802	-0.3163824045558352	-0.1798374191911934	0.3056836102885441	-0.9483200254961466	0.08512731432359671
330														9.448330336779948	-2.8137434051502117	1.3852719217172487	-0.1946670147099571	0.026867203565726416	0.9805013547958364	-0.9347517419108673	-0.30799187791922567	-0.17714452893156996	0.29722707544655547	-0.9510095459606839	0.08507002476278591
331														9.354353837321849	-2.888906242500513	1.268582026644834	-0.19179234998855013	0.029222545050330617	0.9810003758137157	-0.9374017856824037	-0.3014992976842976	-0.17428730790082392	0.29067780562903456	-0.953018476398363	0.0852185247351333
332														9.404920835887241	-2.8273605089065796	1.2846349383162972	-0.18890021299227716	0.03135556851768917	0.9814955618108546	-0.9394429422661578	-0.2968077117104319	-0.17132466400236157	0.2859434695141284	-0.9544223439296411	0.08552380750453697
333														9.482726732543714	-2.5068712683794234	1.2801354384513493	-0.18620604325275994	0.03348476646833909	0.9819399573653735	-0.9410325025492451	-0.29340177358470076	-0.16844354663582833	0.2824626322224866	-0.9554026217631562	0.08614343692952747
334														9.637304699275667	-2.082858062847401	1.2800067763638734	-0.18393673234007887	0.03580359749591555	0.9822857939023679	-0.9424098270800629	-0.2904241672939193	-0.16588405853052907	0.2793402876761257	-0.9562279568481487	0.08716133444960189
335														9.667540332542425	-1.8380229781327413	1.2686079699904482	-0.18216246086832685	0.03820270697739464	0.9825260256247642	-0.9437825688538466	-0.2871218693715233	-0.1638154292374085	0.2758465163420226	-0.9571319581479878	0.08835787522212724
336														9.650742968146503	-1.751007929489141	1.3048209459987972	-0.1808406534558108	0.04079328045415237	0.9826660502568836	-0.9453109539880942	-0.2829701549128474	-0.1622192704296201	0.27144770827508274	-0.9582608202876646	0.08973484258534997
337														9.655117635721695	-1.6920897837498394	1.2575158662648496	-0.1798856618993778	0.04357784967196049	0.982721791587523	-0.947036385872573	-0.27783151175204	-0.16103333478193693	0.266013594533133	-0.9596408818383805	0.09124771464545228
338														9.656219279692484	-1.7087478273005925	1.1747504455620201	-0.1793114170420462	0.04664413654761923	0.9826859825214258	-0.9489806951522246	-0.27156740033459725	-0.1602709808540172	0.25938977610301744	-0.9612884434971822	0.09295952050215628
339														9.603611888822845	-1.7838465406815527	1.0450135667483382	-0.17904677350302223	0.05002820567762667	0.9825677745249103	-0.9510272154566766	-0.2645793241505466	-0.1598280848060208	0.2519712054161706	-0.9630653975035743	0.0949502594646528
340														9.582124824054457	-1.911111057077589	0.9160537968139266	-0.17900043588601347	0.0535576456732193	0.9823901580037121	-0.9530857932916071	-0.2571819551621624	-0.15963994664455006	0.24410308186977991	-0.9648777230970299	0.09708071328933532
341														9.534396317366605	-2.019270437379578	0.8298678486970851	-0.17904059900809413	0.057190127605706575	0.9821780659387921	-0.9550766204326804	-0.24973932774020885	-0.1595585073970015	0.23616331851012184	-0.9666227586211241	0.09933443263025765
342														9.54334998362099	-1.953177055869544	0.7321499435610375	-0.17912780251699087	0.06089862052194939	0.9819391979058366	-0.9569754111625136	-0.2423723199908262	-0.15954222304018068	0.22827898018821646	-0.96827011547439	0.10169410348412405
343														9.516280269621374	-1.9896986527545204	0.655249319261173	-0.17918932612991495	0.06443581427788136	0.9817022008936589	-0.9587693199395937	-0.2351580842510419	-0.15956837579529765	0.2205732906398153	-0.9698189012644198	0.10391690048590418
344														9.427121069810381	-2.0413750661369914	0.6794253240164807	-0.17916664537024407	0.06772519443696923	0.9814849011702873	-0.9604522017483095	-0.22817768678753575	-0.1595823029321069	0.21314521187115293	-0.9712611601885277	0.10592864280088438
345														9.425548043409664	-2.1087848747392797	0.6522927778402239	-0.1789489385268623	0.07060901510403261	0.9813213767090516	-0.9619970569654206	-0.22165031414919178	-0.15947664602516154	0.2062497025209475	-0.972566452857389	0.10758975316644975
346														9.41532851458394	-2.156925332356766	0.6358690073597273	-0.17844412668516255	0.07314126189997877	0.9812278274994293	-0.9634267729140578	-0.21560307304305423	-0.15913569092694935	0.19991634971651462	-0.9737379887331455	0.10893935199896349
347														9.47256612945731	-2.1152815343641156	0.5980467618604007	-0.17777800315910816	0.07535076965126519	0.9811815546094016	-0.964725132634086	-0.21007459703852516	-0.15866342408774187	0.19416590858568727	-0.9747773721173791	0.11003942362186053
348														9.473667370981023	-2.108562407461268	0.6042964699806674	-0.1770703307972114	0.07721718991167881	0.9811644120806209	-0.9658767357215664	-0.20509569868207264	-0.15817043267932412	0.18901912427904816	-0.9756911703834656	0.11089865054420439
349														9.47799512447656	-2.1368751193809428	0.6507120667712221	-0.1763891867366961	0.07875370606256832	0.9811649752125168	-0.9668764545751807	-0.2006910027140249	-0.15771189878309438	0.18449058618394798	-0.9764839861518728	0.11154482685653078
350														9.438669728367872	-2.1668694818384906	0.6271521485633985	-0.17580458127792334	0.08003433293757967	0.9811662727351219	-0.9677410122180525	-0.19677103273701393	-0.15734832044476627	0.18047183290717117	-0.9771773975214768	0.11204575538716521
351														9.48668270345926	-2.040157493425051	0.6425858980310505	-0.17527417627119132	0.08120419093950704	0.9811650434592114	-0.968487085386294	-0.19334249195412306	-0.15700779039567458	0.17695120393039881	-0.9777650843524894	0.11253315621963356
352														9.576896073396648	-1.7914884446501669	0.5889735106292935	-0.17499967606716718	0.08247161160763489	0.9811083256476967	-0.9691788301702515	-0.18992824771788452	-0.1569065195224128	0.17339985157493643	-0.9783280094107774	0.1131671218867773
353														9.58360734732454	-1.5674991126723057	0.6692867594990136	-0.175052680967466	0.08387967710404648	0.9809794894160758	-0.9698749985964681	-0.1861304046015841	-0.15715584488129275	0.16940792774721303	-0.9789380328967573	0.11393542804862561
354														9.50712685832846	-1.4164267192258493	0.6557429823171608	-0.17539668603085662	0.08543573200131177	0.9807837367262944	-0.9706633151630988	-0.18143167546915756	-0.15778236825779096	0.16446498449814778	-0.9796852978553134	0.11475184547609546
355														9.461641691984767	-1.3188463626071618	0.6407266031697443	-0.17593571847015066	0.0870993681832759	0.9805408319027142	-0.9715595985998089	-0.17573190468990113	-0.15871434731188755	0.15848838864399767	-0.9805773797799613	0.11553974610018619
356														9.3935296644247	-1.4146436946831062	0.6628141949121087	-0.17646408817782822	0.08882458371425273	0.9802910888667495	-0.9725964031802006	-0.1689033112010463	-0.1597745536255994	0.15138250263654868	-0.9816220580209638	0.11619583943576939
357														9.283396708543687	-1.4762287183128828	0.6570718619106489	-0.17685344343173018	0.09054305116586925	0.9800636792739108	-0.9737390260040676	-0.16114494428763132	-0.16082479960250684	0.14337073893577484	-0.9827686720770618	0.11666434074257181
358														9.226816615913158	-1.5231371831073748	0.7458839655658809	-0.17706066776327117	0.09228205397087913	0.9798640428376479	-0.9749734177480331	-0.1524511034578049	-0.1618193305486605	0.13444833437400222	-0.9839932334977782	0.11696564373628301
359														9.138887175473593	-1.5199867785554475	0.8360886382572734	-0.17707803582812368	0.09396141107906003	0.9797012924638228	-0.9762863242920743	-0.14272409204852968	-0.16277237649304238	0.1245326552656919	-0.9852923864401641	0.11700654253297807
360														9.18031804218134	-1.530488660238564	0.9038805348149248	-0.1769857746103051	0.09557310127719504	0.9795620541332999	-0.9776416342538887	-0.1318944571975275	-0.1637702266407295	0.11354677696428289	-0.9866456478760899	0.11677968559725951
361														9.333678283048782	-1.657480459997575	0.9280272299500204	-0.17687958675634527	0.09716462762756789	0.9794246509695885	-0.9789534472442345	-0.12029629085741733	-0.16486039710790878	0.10180255359043916	-0.9879715772955939	0.11639760538139104
362														9.446137412484811	-1.8808604006187881	0.82740983992631	-0.17704884112667937	0.09858670023744193	0.9792519442880842	-0.9801064229033727	-0.108336923268507	-0.1662964546834036	0.08969452402045242	-0.9892137148225386	0.11580638483148534
363														9.579453340237555	-2.0463431501932936	0.8253536530104583	-0.17757332151962973	0.09981193227511304	0.9790328358436173	-0.981013442647261	-0.09678073067617207	-0.16806580709697205	0.07797654025318485	-0.990288376355744	0.1151025231037485
364														9.631908695790589	-2.2157738885988354	0.8081188998065579	-0.17838367740254343	0.1008662916707132	0.9787774286531872	-0.9816620693586593	-0.08620167348999544	-0.17002603644736286	0.06722235654022429	-0.9911585456888943	0.11439358412540504
365														9.680036167860274	-2.3419494407257178	0.7094799580870614	-0.1794400552973483	0.10176280866236959	0.9784914906773747	-0.9820571737000319	-0.07717845364114989	-0.17206741085361438	0.05800839714377776	-0.9918103735425976	0.11378580225187557
366														9.739551604019281	-2.431185428308243	0.7299125237448749	-0.18068238929648062	0.10252893570450278	0.97818285179276	-0.9822374837642516	-0.07000700146957922	-0.1740934956674416	0.05063002751911366	-0.9922634917644304	0.11335679611242339
367														9.64555892077519	-2.461703897231678	0.6797517546975032	-0.18188655577049406	0.10310253914744794	0.9778993543567229	-0.9822757149978837	-0.06486099805772036	-0.17586207850572094	0.045295701289889634	-0.9925537352467648	0.11307246389971229
368														9.610347423056526	-2.3913374460836403	0.6869290570967055	-0.1829435943258747	0.10330365593595253	0.9776809274837046	-0.9822221330175107	-0.06177811500050273	-0.17726574942023288	0.042087084784549866	-0.9927294793533895	0.1127690476907875
369														9.573714476139248	-2.305120920667507	0.6118321400334235	-0.18369993207069157	0.10305870316467597	0.9775649536778814	-0.9821264059514492	-0.06073583772238564	-0.178154092709231	0.04101289663157842	-0.992819249268554	0.11237384300499922
370														9.48780492480002	-2.3832464828928153	0.726657975505992	-0.18400973409139576	0.10223341110962197	0.9775933446032173	-0.982025880012281	-0.06163826680055459	-0.17839813634656887	0.042018909382790404	-0.9928489581596561	0.11173789659540836
371														9.43856710328383	-2.5230062504347477	0.9589916101318524	-0.1836331814505759	0.10096855981289554	0.9777955842606618	-0.9819421885457773	-0.06486337340328324	-0.17771404318363487	0.0454795890952025	-0.9927729310975675	0.11105635621465143
372														9.441957709601853	-2.638684682938897	0.8519751773547338	-0.18275685447956624	0.09920866666314199	0.9781398532927983	-0.9818280906073882	-0.07014976587768462	-0.17633096960419903	0.051122721318271	-0.992590877857654	0.11022620631586122
373														9.441083239715152	-2.356380186288847	0.9278399620579163	-0.18148132900905556	0.09691573426927808	0.9786071058765893	-0.9816382693325547	-0.07729841414851732	-0.1743882546271724	0.05874381161360026	-0.9922863979825438	0.10916441258915313
374														9.437397570947878	-2.356462067646895	0.9339579336905618	-0.1799333098909443	0.09424428597789652	0.9791537257000079	-0.9813493371114077	-0.08566148710861349	-0.17209180159828114	0.06765709528712216	-0.991856907112542	0.10789992247657992
375														9.470519411001835	-2.276640280660716	0.8904346279158801	-0.17810081384476387	0.09124648767974763	0.9797725136958799	-0.9809170746200511	-0.0953746215916857	-0.1694266043898795	0.07798585016959664	-0.9912506040564883	0.10649153548978818
376														9.485261759048628	-2.1335683740340787	0.9232312190903839	-0.1759358874803456	0.08806559248849816	0.9804544940567885	-0.9803586592989866	-0.10585009174534812	-0.16641110904923107	0.08912610523296133	-0.9904747394543443	0.10495869601348881
377														9.567922885249486	-1.996429563676257	0.892341949856285	-0.17357166704348467	0.08483123309672774	0.9811608116364183	-0.9796374879468677	-0.11695919809780567	-0.1631898838453824	0.10091218265847207	-0.989507052967086	0.10340465908021881
378														9.558147092124047	-1.774715694211183	0.8695004180759645	-0.17096418736459362	0.08155119937321276	0.9818964550906347	-0.9788044613102649	-0.12810213376214963	-0.15978632558735034	0.11275226453551401	-0.988402370093463	0.10172355497001984
379														9.554451682114646	-1.6925906333849345	0.8733469007766412	-0.16817330879955802	0.07831218529961625	0.9826418166560018	-0.9778732471405343	-0.13907752130515982	-0.15627333615956657	0.12442528173259881	-0.9871801480485778	0.09996851786713662
380														9.539772491239844	-1.5588846123240858	0.893465261002918	-0.1652431451865597	0.07522091150468946	0.9833801489969473	-0.9768951734911505	-0.14951025763470224	-0.15271706804316487	0.13553790236885488	-0.9858947699092482	0.09818849060374713
381														9.531804264987231	-1.5052932692796777	0.8077857904665627	-0.16226481513002916	0.0722646922219235	0.9840975277018473	-0.9758815316614984	-0.15934863279536304	-0.14920874434246978	0.14603207158985804	-0.9845739319544872	0.09637845497233999
382														9.578359090743929	-1.5060886591369003	0.7724611908148993	-0.15937666958779245	0.06945072982981715	0.984771888975924	-0.9748429288479145	-0.16851955635454074	-0.14588496564515807	0.15582150450539173	-0.9832485724638377	0.09456163853012312
383														9.567766122299197	-1.5127724836570529	0.7840987216374206	-0.1566397282840214	0.06684912106374208	0.9853908821052251	-0.9737683330046911	-0.17717571322135375	-0.1427725473673775	0.16504311303527147	-0.9819062896516704	0.0928483127585894
384														9.570328182131243	-1.484089547094888	0.7268704718728731	-0.15406946456354279	0.06450123152627124	0.9859524284775093	-0.9726763652375805	-0.18530078705030142	-0.13987246629250638	0.17367581465855497	-0.9805627004175377	0.09128801647836415
385														9.593095297140382	-1.4571143952962178	0.6833837094910832	-0.15161326571635947	0.06234536308558053	0.9864717296306817	-0.9715887794181628	-0.1928971696060506	-0.1371346989886224	0.18173789194206608	-0.9792363032790925	0.08981982505411717
386														9.57020970327903	-1.3488685919260024	0.757577218618277	-0.1492740602353939	0.06039585356779309	0.986949641984158	-0.970568171683873	-0.19971742075415036	-0.1345747969031854	0.18898327718362784	-0.9779904359037093	0.08843092347029241
387														9.548782278208026	-1.2753200721757811	0.8315122827113032	-0.14699257118027306	0.058725526183028454	0.9873927772636066	-0.9696947972886643	-0.20550482402212952	-0.13213541317500682	0.19515425726616503	-0.9768925631194865	0.08715351968068424
388														9.48879595226429	-1.2737183040485365	0.8805274743843359	-0.14484461745695443	0.05716518350820632	0.9878016899095797	-0.9690217062279258	-0.21003227631991483	-0.12993604489514876	0.20004241963360603	-0.976021815687717	0.08581634837712593
389														9.09599777029252	-1.5163213489871317	0.9864805229088405	-0.14285093800877552	0.05525313884532829	0.9882007387964002	-0.9684259075443193	-0.21391380121547543	-0.12803182122623608	0.2043156164050457	-0.9752886630620108	0.08406635828761277
390														8.673468298964881	-2.4366459357907053	1.1173677245008624	-0.1407551133609063	0.05207616330246073	0.9886738953155656	-0.9676178965836959	-0.2185818595851355	-0.12624411618467019	0.2095318693509482	-0.9744280598771773	0.08115634202141953
391														8.40967433850902	-3.107328306583344	1.1045989565256862	-0.13823764321945894	0.0466987526878373	0.9892975186942148	-0.966049079653502	-0.22649340366717324	-0.12429768218225573	0.21826481552864108	-0.9728925760805556	0.07642320138275538
392														8.245418096815948	-3.3551466605833182	1.0731034471370402	-0.1350670666936549	0.03832388338767512	0.9900950295082086	-0.9633409604463699	-0.23884754839306752	-0.12217218403911656	0.2317996579398648	-0.970300535189335	0.06917940437914
393														8.514058873899742	-3.0477748024721034	1.1941956628358599	-0.13091908741575006	0.02658889076501547	0.9910364390062119	-0.9590882713025367	-0.2565026631644435	-0.11981682536046301	0.25101768941677965	-0.9661777345175337	0.059082187860869106
394														8.921644069890386	-2.2046239386332456	1.5157718281148735	-0.1257898158460665	0.011712531301029283	0.9919877715173384	-0.9532137938777381	-0.27849104412595255	-0.11758486936186063	0.27488249378711216	-0.9603674062316772	0.046195883552748285
395														9.858654212559676	-1.0274258139505728	2.040704068959475	-0.12020156803111326	-0.005108594420293988	0.9927363624376366	-0.9459703938871752	-0.30275647609844936	-0.11609707175201112	0.30115045563937676	-0.953054257869665	0.031559224082632564
396														10.82415579792704	-0.07279684279286125	2.4512965227954893	-0.1151581983564009	-0.022313614162778106	0.9930965169480275	-0.9379179441221595	-0.3268484012194791	-0.11610362920225004	0.3271827004060132	-0.9448133282523413	0.01671093389861733
397														11.467937712372263	0.6290764711044469	2.71230368857087	-0.11133053320073216	-0.03858972168490277	0.9930339096715293	-0.9297280840756803	-0.34889945246871146	-0.11779160304537262	0.35101453254559983	-0.9363653162347031	0.002965214069666766
398														11.726636213097924	1.0018455330142968	2.838298479887492	-0.10881590067986013	-0.05363788858156454	0.992613760063673	-0.9219642747528913	-0.36790305945741714	-0.12095129152368617	0.37167321108549956	-0.9283158491323868	-0.009418514267643618
399														11.87502736098666	1.156319701852137	2.926568232712619	-0.10721282746702343	-0.06718643615432324	0.9919634027641383	-0.9148435816276728	-0.384011024583781	-0.12488696550387957	0.389315592779404	-0.9208808369137651	-0.020294172164084134
400														11.99854261698959	1.1385378460013398	3.088187889933772	-0.10612337984277331	-0.07856480260667947	0.9912443694882311	-0.9085107212170551	-0.39752452030858365	-0.12877315398443107	0.4041609799132197	-0.9142219793599393	-0.029190319812945842
401														11.945406927286806	1.0003879363808958	3.229148518608169	-0.10494123719708542	-0.08736637261145297	0.9906333598623973	-0.9029097332617141	-0.40914630544932484	-0.13173197910313295	0.41682292441371976	-0.9082766195790161	-0.035947628702181766
402														11.844577166903962	0.6600854911262768	3.3890667138195454	-0.10313184037848311	-0.0937656962874644	0.9902382630962481	-0.8977619947458584	-0.4198409439066616	-0.13325532863454642	0.428237345744255	-0.9027411456332821	-0.04088030932643483
403														11.764158628309639	0.05748087906192294	3.6272406463389655	-0.09972808764961927	-0.09818404820665416	0.9901586747645571	-0.8925570384116094	-0.4309873011268929	-0.13263438260592325	0.43976839553979696	-0.8970004676392933	-0.04465332394393828
404														11.895892475480743	-0.444783228585997	3.7186884369377897	-0.09431370369063624	-0.1004731620847803	0.9904595241587816	-0.886673003091522	-0.4439040885246125	-0.1294609816886716	0.45267638648908604	-0.8904236653929511	-0.04722060168364123
405														11.866030922070797	-0.6494084588629587	3.95996058153069	-0.08673620788265557	-0.100621000459307	0.9911368444915689	-0.879745397855887	-0.45909912120276675	-0.12359624534035862	0.46746643215692346	-0.882668347216221	-0.048700345266342704
406														12.078693873209474	-0.682941905143247	4.000677350109196	-0.07724647295391485	-0.09861047214375723	0.9921234586480483	-0.8714776599911154	-0.4767050825863405	-0.11523433677841233	0.48431360764755554	-0.873514876244209	-0.04911303724546112
407														12.261370158705327	-0.7137432700338207	4.16865833630044	-0.06640356714473838	-0.09484736832536955	0.9932746563726506	-0.861734846392331	-0.4963731841113075	-0.10500817400749657	0.5029946528380206	-0.8629123007681341	-0.04877233231459632
408														12.532644872794712	-0.7495126392449664	4.281959405473398	-0.05438903335342077	-0.0896432671248556	0.9944877664959298	-0.8503468864748105	-0.517905210256199	-0.09318994501596639	0.5234042469387089	-0.8507280869047789	-0.04805950933851594
409														12.978669406699252	-0.6571575310123654	4.543895649684225	-0.04154811952358006	-0.08351931211161423	0.9956396327328764	-0.8372515950655752	-0.540888072974948	-0.08031101464679219	0.5452371230246563	-0.8369376422517092	-0.04745379497938662
410														13.292469509297069	-0.16867957055860194	4.853173202121072	-0.028579626523895785	-0.07656898593538042	0.996654601825819	-0.8228115826986238	-0.5643567566442655	-0.06695185290154876	0.5675951940641676	-0.8219724092831779	-0.04687274317198886
411														13.585189420407056	0.41287502058706527	5.122928568330945	-0.01616987449468521	-0.06877028008330033	0.9975014705433225	-0.8078566878023556	-0.5869402115210047	-0.053560807244531106	0.5891571158289051	-0.8067043056020855	-0.04606578113115667
412														14.177968426468203	0.8390887111764325	5.307334864474087	-0.005149698040771256	-0.05946007521747293	0.9982174012033764	-0.7930473950046009	-0.6078256077301243	-0.04029714461252698	0.6091381697829374	-0.7918412277992596	-0.04402453941673612
413														14.615857829761874	1.2620717131009045	5.533887150508971	0.00391709430683157	-0.0485254546459602	0.9988142653284418	-0.7791828579236446	-0.6261989511141327	-0.02736690595412622	0.6267844368601803	-0.7781517550420121	-0.04026308277943652
414														14.890755359333326	1.484843461277726	5.6050400430983185	0.010777750854327861	-0.035753140852388954	0.999302533272938	-0.7666764826309931	-0.6418654074836241	-0.01469590611190591	0.6419431525198246	-0.7659833624792844	-0.034328957715590136
415														14.898472633068732	1.3914741337702168	5.585010330883635	0.01564981294456036	-0.021494910471504425	0.9996464635953164	-0.7557016228403675	-0.6549121987313495	-0.002251486021347171	0.6547290589176833	-0.7553992194705336	-0.026492992131380566
416														14.979300309292954	1.235539694384074	5.4192732858001	0.01909546638281595	-0.0054600595230087645	0.9998027560042171	-0.7456363526524827	-0.6662687270414152	0.010602498277041073	0.6660794192637429	-0.7456917400083076	-0.0167939309471426
417														15.165974983410399	1.0532252748045523	5.252635445712233	0.021509172190632864	0.012184355710889938	0.9996944017986622	-0.7362457497628346	-0.676285576483415	0.02408350050672542	0.6763723467645881	-0.7365387705453166	-0.005575662808881943
418														15.46693609644548	1.0274338360184372	5.0962257555394626	0.022915459482831746	0.0319167761257117	0.9992278024146604	-0.727074541327903	-0.6854743111335219	0.038569160333651265	0.6861759927813782	-0.7273969261536404	0.007497916558965034
419														15.714461550851498	0.8399478302735645	4.88762702450676	0.02356948177929974	0.053646145362029385	0.9982818092184448	-0.7180234080006487	-0.6939021625633446	0.05424181369614922	0.6956197704865706	-0.7180681582396686	0.022164273741789142
420														16.041016734572786	0.8895304262182404	4.711277178040038	0.023126593109900284	0.07823563704020747	0.996666617173487	-0.7086375985139433	-0.7019361181289285	0.07154327388708359	0.7051935299359464	-0.7079299902977721	0.039207322957270474
421														16.092015351926033	1.0656247847978964	4.725143595065783	0.021363479318977696	0.10570447695408264	0.9941680769886204	-0.699431049382264	-0.7089586052139283	0.09040964137273533	0.7143807170629767	-0.6972834858542006	0.05878717073989831
422														16.302353576414976	1.0139771426868487	4.49072659924669	0.018020356579842356	0.13632069327983592	0.9905008507479636	-0.6903823588129328	-0.714886418983435	0.1109486664765783	0.7232202053238181	-0.6858236482775618	0.08123089359737934
423														16.138586773594536	0.999336935292254	4.285474381374297	0.01319752364816057	0.1693872891174747	0.9854611974375194	-0.6817489527883422	-0.7194337552592531	0.13279095287544224	0.7314671494616523	-0.67358965110741	0.10598486297317561
424														16.033765302275533	0.7365787663294286	3.9755248446206792	0.007200572881731426	0.20445895166455957	0.9788486547134875	-0.6730359848203904	-0.7229783126582287	0.15596449135206347	0.7395746851312733	-0.6599234020021489	0.13240237385669462
425														15.875591303802295	0.52439866388648	3.7657749233650426	0.0005114604629943842	0.24048185978856393	0.9706534981757541	-0.6639453702062438	-0.725754679132254	0.18015740645150613	0.7477809062752866	-0.6445530395788021	0.15929562260099478
426														15.750993090966666	0.5224596009474193	3.6108201691442696	-0.007011757855818257	0.27734545729757626	0.9607446760550743	-0.6541842729707763	-0.7279217580132471	0.2053602960861726	0.7563026988246625	-0.6270641207462775	0.1865390474491329
427														15.700920075710027	0.745081960047733	3.5022252441954578	-0.015545653373915946	0.3147813810510633	0.9490368880105575	-0.6442702513678462	-0.7290003712545248	0.2312451121930527	0.7646398994713723	-0.6078413780373548	0.21413706657666515
428														15.452734798212525	0.8815714192280961	3.3660821617429875	-0.02548925938581653	0.35286589947983077	0.9353266566500995	-0.6343969760364427	-0.7288007315536547	0.2576625127617044	0.7725870659361185	-0.5868007759633147	0.24243365046352788
429														15.14214684983783	0.42843024821824344	3.1192679841588498	-0.03603336839963173	0.39062447700487923	0.9198446142291868	-0.6245735046347931	-0.7273379110821364	0.2844072791102345	0.7801343048924262	-0.5642624221648465	0.2701821335001118
430														15.013165273492644	0.09086668948612991	2.805081373244714	-0.047224800023882185	0.42815321371526777	0.9024714088811854	-0.6138818712866458	-0.7251626759729534	0.31191047029772934	0.7879840521027754	-0.5392809276815127	0.29708115839052585
431														14.579936674118018	0.2916450808865214	2.580306715152756	-0.05925279236818376	0.46573730193036755	0.8829370714763277	-0.6025535796207478	-0.7218708710621587	0.3403404607127731	0.7958758007897936	-0.5118507703448156	0.3234045432807382
432														14.139130887657098	0.3323926687686146	2.2311631334291797	-0.07244640803623664	0.5033504784659694	0.861039960623621	-0.5907016858307602	-0.7172635734397639	0.3696004390867497	0.8036311568868799	-0.48184153208757347	0.3492931457045142
433														13.972270008016444	0.2221149336914322	2.0140435312032583	-0.08623740687119508	0.540240077569698	0.8370805028452273	-0.5782845735126678	-0.7113253744619843	0.3995036466464226	0.8112644831948479	-0.4496185830612481	0.3737553585871267
434														13.60861614152262	0.15849508695970133	1.912927700300112	-0.10079741126259029	0.5760245263670749	0.8111939514729798	-0.5649673251220484	-0.7042722647013218	0.4298982422817158	0.818933332712253	-0.4149654469905394	0.3964238569722362
435														13.393824490284779	0.4935420101256388	1.756211851288461	-0.11639105275446587	0.6107416290929962	0.7832290758976838	-0.550875866616248	-0.6958709349100477	0.46075961360259593	0.8264314263255631	-0.37783369945023254	0.41743597490063833
436														12.25635375232034	0.45700480920775505	1.3847126189124772	-0.13324968710501178	0.644225234448797	0.7531390098685692	-0.5360948313798276	-0.6859977630103369	0.49194450999340117	0.8335747432919561	-0.3382024784714119	0.4367748057083232
437														12.05770066433064	0.2769550245785135	1.1411098857312847	-0.15048823696336605	0.6759789375775728	0.7213915486662943	-0.5206255238056255	-0.6745073992257995	0.5234394256757572	0.8404179641688869	-0.2968033765662793	0.4534373177861298
438														11.735338869189349	0.8227285975578107	1.0203189030281348	-0.1690041490725882	0.7059978385240505	0.687753334848781	-0.5045513334299959	-0.6613988673869717	0.5549589986235419	0.8466791302082883	-0.2532164888363315	0.46799130360631336
439														10.981759221800267	1.2530911738161865	1.0683189640467852	-0.1883663718653621	0.7339010008370334	0.6526158371666146	-0.4885152524016444	-0.6464881154807384	0.5860085022532706	0.8519806090054152	-0.20842849496305574	0.48029845342890465
440														10.556350141883907	1.4211557714108745	0.8995153377615994	-0.20819121434964627	0.7594472022634527	0.6163573356761756	-0.47260732507980163	-0.6298274709920108	0.6164086899652879	0.8563286370013174	-0.16296411800768287	0.49004485681766285
441														10.107933304889018	1.4369808810996079	1.0531650061319702	-0.22833465278194298	0.7826167328414628	0.579115131744547	-0.4567275570430511	-0.6114195546911406	0.646193521151964	0.8598041782734228	-0.11694946608617679	0.49705090021618725
442														9.74636861862848	2.064235883414754	0.97423401483672	-0.24996269488793016	0.8034971232560763	0.5402879085113554	-0.4415031591555959	-0.5911993352084192	0.6749505956029325	0.8617387142399913	-0.06982634866821041	0.5025242973346398
443														9.918174285927922	3.049284501592028	1.4745705973459489	-0.2747779082642453	0.8222562936213375	0.49838909371095497	-0.42772500157818116	-0.568761221150446	0.7025396759901883	0.8611320596487342	-0.02013109325284196	0.5079825931363933
444														9.988202035310279	3.3343970381698145	2.295095170639132	-0.305143333404629	0.8386664534580583	0.45113869920767663	-0.41709522181110065	-0.543577061669692	0.7283924450245851	0.856106957115208	0.03409630288795246	0.5156726869908012
445														10.35144311609139	2.950610979673636	2.5298793740921215	-0.34157087564788885	0.8512789599264464	0.39831328034059044	-0.40951507972700607	-0.5162599741122202	0.7521788607810203	0.8459472420815131	0.0938070973658024	0.5249509425636689
446														9.784133708524525	2.4986893412388658	2.465418424510529	-0.3834191742346267	0.8582577966548086	0.3411499542876563	-0.4044985683949909	-0.4881190290688326	0.7733826489049924	0.8302834726740258	0.15853506849316695	0.5343182451144889
447														8.282896489940654	1.5448620930777028	1.8324085492918398	-0.4283088361711819	0.858499377856661	0.28201127473456405	-0.40062143186763527	-0.46014336817714063	0.792319726531482	0.8099716101111283	0.22637777925919	0.5410167205102483
448														6.355149018467491	0.3438292103071552	0.9516116772704745	-0.4724633350485219	0.852481333885476	0.2237274511803744	-0.3951217893736354	-0.43178106033214436	0.8108291358237102	0.7878179793562747	0.294687446823389	0.5408346698277651
449														5.1852058115509205	-0.22670100037338148	0.18693746850460238	-0.5136781683473145	0.8415564553026539	0.16708522346928245	-0.386549582966914	-0.4008558538276836	0.8305985819637447	0.7659726883325885	0.36207363476302845	0.5312141976058586
450														3.6452705378912307	-0.14900521777221137	-0.1981026084073994	-0.5505713612678377	0.827178334118915	0.11245968040118248	-0.3750273687797347	-0.36544524946333184	0.8519414547437114	0.7458053692605252	0.42687910842408194	0.5114182026221122
451														1.9347057210174288	0.736602045158069	-0.7404527916223704	-0.582018712137123	0.810816116072223	0.061898664281228255	-0.3609613136617359	-0.32581275398652493	0.873815186054414	0.7286708095991211	0.4862337660603916	0.4823023698686226
452														1.0954944666102977	2.316501929339789	-0.7861682054920742	-0.6078938382436525	0.7938424467693697	0.016710808855964376	-0.345988197264415	-0.28376980588649103	0.8942968548646828	0.7146728263891948	0.5378558050020132	0.4471620335477018
453														0.7623174880798397	3.886264601945467	-0.5388963842783785	-0.6295235424952289	0.7766220208633873	-0.023629349426626256	-0.3326008633537424	-0.24186973007776233	0.9115238336809712	0.7021942574107269	0.5816848548674602	0.41056784393960855
454														0.45791956153781954	4.772652330702114	-0.3261386292571161	-0.6476802587322605	0.7595762031753617	-0.05961773241421475	-0.3223851746381589	-0.2023125858801511	0.9247364039379058	0.6903463490321616	0.6181533864375308	0.37590997487932776
455														0.049387831963845	5.011969137961741	-0.5016802892403677	-0.6631309623121968	0.7429389903459455	-0.09109875655928112	-0.3152462753265738	-0.16682693521944908	0.9342315342451292	0.6788793064423322	0.6482364000185682	0.34483685559311245
456														-0.5680568286319302	5.0825117350612405	-0.3790059173148864	-0.676092276248679	0.7273236891983033	-0.1178960776610074	-0.3101844865578967	-0.13581570525505604	0.9409249058797869	0.6683448348687182	0.6727215957118086	0.3174284744115814
457														-0.9665171024919319	4.9675606120977776	-0.32522940599532046	-0.6866785593478076	0.7133228708275048	-0.14015362316552965	-0.30634105388697325	-0.10909734810720337	0.9456494738217714	0.6592630088480902	0.6922920269585527	0.2934348898378999
458														-1.0618123868313782	4.837608644077484	-0.5524631565701847	-0.6952697598465867	0.7010906744623115	-0.15834085772424708	-0.30259127229780197	-0.08568906637543103	0.9492607154164254	0.6519497549444025	0.7079048312348826	0.2717209357819992
459														-0.7620959762656289	4.8629169972114425	-0.3142893176235141	-0.7027019428359835	0.6900652297088044	-0.17326268577356393	-0.2984362798352378	-0.06481485381440887	0.9522262449665625	0.645868226817698	0.7208391037339409	0.2514860236979598
460														-0.6079602030619707	4.867721357242971	-0.061230353323316264	-0.7093482723042581	0.6800795091949996	-0.18524818420716585	-0.29331876916916233	-0.04583111179877099	0.9549154982742588	0.6409283331481386	0.7317044282798736	0.23199030454648684
461														-0.5801506980137605	5.034887745923952	-0.12760388401143447	-0.7157472719175637	0.6706621444209899	-0.19472578356038012	-0.28723250976323267	-0.028551713275982632	0.9574352641323174	0.6365558326476	0.7412132538680383	0.21307178183108966
462														-0.7287901541481844	5.398365123329882	-0.28432236252825943	-0.7219112604277733	0.6618148995327191	-0.20210188228732734	-0.28035577735773753	-0.01271077589323473	0.9598119994448553	0.6326490102495399	0.7495595206070622	0.19471968287152847
463														-1.035132392236947	5.704810913218559	-0.453219440624257	-0.7279333609045332	0.6535487580113493	-0.20733316903972202	-0.27267129508124344	0.0015147547501789677	0.9621060598274833	0.629097279378117	0.7568829013921969	0.17710134572944886
464														-1.4971956509950008	5.5977148590473975	-0.6055778579995399	-0.7330954830063554	0.6467910486620542	-0.21031488812330715	-0.2639962149946147	0.014373635273032481	0.9644166097063839	0.6267990198334679	0.762531794733622	0.16021314164613898
465														-1.4991132398285436	5.780641668201739	-0.9939390016995818	-0.7370106367455449	0.6419519121846163	-0.21145463760920838	-0.25488993085820655	0.02576689844102141	0.9666267066928315	0.6259763929023408	0.7663118225547908	0.14463660028405534
466														-1.5151588998183063	6.326913363357922	-1.0607271029707162	-0.739918318590732	0.6387156315824647	-0.21110003265295202	-0.24606146174496338	0.03508621465744399	0.9686189728603006	0.62607878007308	0.7686425043628703	0.1312023689914893
467														-1.465942876109573	6.683052885346542	-1.11210944381823	-0.7420211155248269	0.6368198136546399	-0.20944018012826926	-0.2380709617574662	0.04173354738996657	0.9703507243209154	0.6266792491244363	0.7698823520247232	0.12064113211385924
468														-1.1966005088973661	6.593992681034381	-1.0255771234751059	-0.7433927911648899	0.6360579138247859	-0.20687553819853904	-0.23104645838452922	0.04605578018494569	0.9718520459306146	0.6276819991938911	0.7702656654508344	0.11272139333570547
469														-1.2343937099651796	5.997365260825548	-1.1438038618284483	-0.7437378044544629	0.6367580489201057	-0.20345334934749962	-0.2242720464568729	0.04902961885660312	0.9732924255601824	0.629727026102026	0.7695032706949575	0.1063418496475485
470														-1.3078172555104426	6.029020473209167	-1.034661375937821	-0.7431866468812027	0.6386722624202069	-0.19942755354396036	-0.21739664089285649	0.05139044488779271	0.9747295638805347	0.6327814065109508	0.7677608764382888	0.10065251206370202
471														-0.8845398370888842	6.44863214998768	-0.5888512998131044	-0.742879217874088	0.6401707845462723	-0.19573409070520514	-0.2113619360033532	0.053130802869701524	0.9759627297163224	0.6351823357585582	0.7663931656792297	0.09583796711361936
472														-0.7765767449946515	6.725363260254201	-0.28278588627557155	-0.7434509341452341	0.6403555672225838	-0.1929389956582697	-0.20674779027210227	0.05430202474321802	0.9768861967119763	0.6360314927235772	0.7661566665087697	0.09202120749038478
473														-1.1654890091743297	7.220596878085835	-0.1375174507071769	-0.7447347529198816	0.6394897639635071	-0.19084807984169108	-0.20359715404622655	0.0546275548737669	0.9775295540866221	0.6355457077643115	0.7668563568455381	0.08951525740313115
