// Start Time: 1748433505.005953
// Update Rate: 100Hz 
// Filter Profile: 46.1 human
// Option Flags: AHS Disabled ICC Disabled 
// Firmware Version: 4.0.2 
PacketCounter	SampleTimeFine	Year	Month	Day	Second	UTC_Nano	UTC_Year	UTC_Month	UTC_Day	UTC_Hour	UTC_Minute	UTC_Second	UTC_Valid	Acc_X	Acc_Y	Acc_Z	Mat[1][1]	Mat[2][1]	Mat[3][1]	Mat[1][2]	Mat[2][2]	Mat[3][2]	Mat[1][3]	Mat[2][3]	Mat[3][3]
0														9.77154669610076	-0.4281258166321698	-0.29639381042540475	0.037550322123989344	-0.03736281194014114	0.9985960112038852	0.2198791125402607	-0.9745011306497463	-0.04472943360778697	0.9748041593965897	0.22125000937015055	-0.02837752943468297
1														9.743474304428608	-0.44341688742334257	-0.30895096362395863	0.03754137763200227	-0.037340257749396005	0.9985971911219761	0.219875117005752	-0.9745031383898616	-0.044705326192944775	0.9748054051384812	0.22124497377233093	-0.028373996780191812
2														9.720049470090002	-0.44385942588434596	-0.3023840162043268	0.037539936156375964	-0.03728252390324327	0.9985994024656628	0.21987989800800478	-0.9745046509067858	-0.044648805281132756	0.9748043822456709	0.2212480480647167	-0.028385164825805997
3														9.743225159077816	-0.40771194770567065	-0.304217462823533	0.037564953865372785	-0.03724955366208439	0.998599692065378	0.21987818260187758	-0.9745062601482803	-0.04462212172798745	0.9748038054176787	0.2212465133822168	-0.028416918542036818
4														9.757768151215862	-0.4312089088085365	-0.25767223174653175	0.037564546794428444	-0.03721316725165172	0.9986010639926385	0.2198371303678043	-0.9745172060154561	-0.04458532596581326	0.9748130799983031	0.22120441985396538	-0.028426461286842897
5														9.785879988840236	-0.4146610682647451	-0.24550695946847242	0.03756664309786789	-0.037191595529319665	0.9986017887768581	0.2197969681344067	-0.9745272604057982	-0.044563567237061216	0.9748220556210656	0.22116374917231113	-0.028435117843381985
6														9.752871549896707	-0.41058442160659875	-0.27164703936359724	0.037547809910909336	-0.037184184503061796	0.9986027730753287	0.21975640475992783	-0.9745369836598208	-0.04455098255043474	0.9748319263021114	0.22112214701847624	-0.028420266713287234
7														9.757526652934057	-0.39537884347251123	-0.2525266069293464	0.037509105429075096	-0.03716996700586386	0.9986047569297344	0.21969062103544276	-0.974552928657284	-0.044526624333900866	0.9748482435943414	0.2210542530653818	-0.028388715411834797
8														9.701387146147994	-0.4267272759534161	-0.27677002315444404	0.037472560099948704	-0.03717432562284215	0.9986059667126183	0.21966518048781167	-0.9745588722483164	-0.044522050754058004	0.974855381952017	0.2210273151367873	-0.028353310963808886
9														9.729479425820234	-0.41070934949247667	-0.2643317118512494	0.037485428873611615	-0.03722391991350128	0.9986036362884099	0.21958649653793316	-0.9745743664031584	-0.04457100950257903	0.9748726138118549	0.22095063732914638	-0.02835846793263641
10														9.696454503394007	-0.4070408062800999	-0.29049971313614076	0.03748271133444264	-0.037219849597575225	0.9986038900119268	0.21953173985375335	-0.9745869842884951	-0.04456484323141065	0.9748850504278966	0.22089566055355214	-0.028359224263139804
11														9.701093005127452	-0.39200011190513573	-0.2716355953431655	0.037476482652747334	-0.03722077354223878	0.9986040893491753	0.21949081100645912	-0.9745962790423331	-0.04456317718212739	0.9748945056423824	0.22085449258223439	-0.02835482277388851
12														9.748332046062732	-0.4236083093853162	-0.29000034869996827	0.037468074015871655	-0.037260007807164625	0.9986029417379818	0.21945453089091102	-0.9746028308037185	-0.044598554470166946	0.9749029963545046	0.22081896206528165	-0.02833961346631869
13														9.77674172605851	-0.44187721905100685	-0.28254514880218723	0.03744710147718483	-0.03730521404636611	0.998602040652788	0.21942244104676345	-0.9746082911181684	-0.04463710618760358	0.9749110251484683	0.2207872276393691	-0.028310654448182093
14														9.753281253371798	-0.4433634774391064	-0.2756007039565915	0.03744313659932391	-0.037395878084063486	0.9985987982287609	0.21946942315460943	-0.9745936333662806	-0.04472607854590184	0.9749006020214505	0.22083658687869873	-0.028284590751495642
15														9.753271542119457	-0.443756699995034	-0.2753113434985315	0.037406960587024085	-0.03745992901248861	0.9985977533611919	0.2195653994504579	-0.9745693843941073	-0.04478337153287194	0.9748803796691169	0.22093272442096418	-0.028230774274337844
16														9.706348579772449	-0.44654077956615656	-0.261742571943955	0.037414730899861304	-0.03754358573048952	0.9985943205737694	0.21967622192743438	-0.9745404280282162	-0.044869941589767356	0.9748551150973047	0.22104622437191257	-0.028214734794828666
17														9.70664142043597	-0.4812281984297757	-0.26678365202725957	0.03745690529990814	-0.037629067713429776	0.9985895220301344	0.21978615695149067	-0.9745112183723654	-0.04496588127572845	0.9748287159587825	0.221160436175701	-0.02823182623786963
18														9.720804179793639	-0.4718174216945856	-0.2153950201728137	0.03754072259371827	-0.037699838619315015	0.9985837052121463	0.21993435684885965	-0.9744735362737122	-0.04505780486979226	0.9747920664555184	0.22131436751888345	-0.02829095094012629
19														9.669240186384798	-0.48918020108459126	-0.22145223834986083	0.03757458066983632	-0.03772201627396088	0.9985815942504217	0.22007201469936694	-0.9744409242304126	-0.04509094733027508	0.9747596930698603	0.22145413672633674	-0.028312648995552636
20														9.702270474194364	-0.49255994186335483	-0.19565732447971806	0.03762068759701387	-0.03771329816961545	0.9985801875692799	0.2202111304526772	-0.9744092286513679	-0.04509670879122578	0.974726495941032	0.22159504114536566	-0.02835305715971026
21														9.692709119723396	-0.4872273230142713	-0.22917082402805591	0.03771717386594792	-0.03763975148543924	0.9985793227899729	0.22036544479718984	-0.9743764628902705	-0.045050852431255034	0.9746878913451746	0.2217515674658477	-0.02845622588357527
22														9.706953764800224	-0.476131471113576	-0.17844448226556553	0.037808259901290886	-0.03751669164238029	0.9985805091886416	0.22046857256146252	-0.9743576061740842	-0.04495401876828653	0.9746610405653585	0.22185525267371714	-0.028567514157405438
23														9.730447661263778	-0.47357095942462357	-0.18649835579896842	0.03794132276771445	-0.037366813388982775	0.9985810819777174	0.22052922709509282	-0.974349174345886	-0.04483911739018988	0.9746421476744564	0.22191756962584824	-0.02872762203663448
24														9.785960953504182	-0.41008593922796915	-0.2499255989351105	0.038072752309598	-0.03719406322054712	0.9985825289843187	0.220569034737148	-0.9743465128123364	-0.04470093830740074	0.9746280143966182	0.22195827227563564	-0.028892194823516293
25														9.781376438600537	-0.4228717378235964	-0.27013733679789514	0.03811511314347921	-0.036992300336093686	0.9985884076364518	0.2204933260850055	-0.9743723329510021	-0.04451123376849549	0.9746434893344499	0.22187863010093256	-0.02898175637366257
26														9.813765148609907	-0.3942406597222325	-0.33107403008307484	0.03814431880048036	-0.036821020184654274	0.9985936227594328	0.22044513352570877	-0.9743906276661318	-0.04434915806679515	0.9746532481083103	0.22182677293095718	-0.029050452026738227
27														9.808853443257176	-0.37272676989882664	-0.34550688247448447	0.03812855344302518	-0.036631299288461	0.9986012023449508	0.22034348218743205	-0.9744223237005485	-0.04415750141867544	0.9746768506894267	0.2217189278939953	-0.02908184560302357
28														9.767013521511451	-0.3924541749392857	-0.3184095135829274	0.03808516675889123	-0.03646194647154395	0.998609055903487	0.220225708906504	-0.9744570157125624	-0.04397910487032047	0.9747051642468993	0.22159433879969304	-0.02908249993297768
29														9.775942580188296	-0.36507167834612564	-0.3719706498053159	0.03807277413288335	-0.03630665541561899	0.9986151864669179	0.22011745224789514	-0.974488571344852	-0.04382158753587706	0.9747301016618506	0.22148104002555263	-0.02910975478216049
30														9.757547015523796	-0.38378545845632256	-0.3516614493112717	0.03805990307870394	-0.0361398393873833	0.9986217280765994	0.22000255838281674	-0.9745221046117327	-0.04365251342287628	0.9747565429801714	0.2213607454635379	-0.02913935972480869
31														9.79951748526114	-0.3600136166511833	-0.37903575417755886	0.03800141636884957	-0.03601589401449115	0.9986284332684994	0.21991123245593872	-0.9745488283562738	-0.04351587054310027	0.9747794325865062	0.2212632742407802	-0.02911393615741198
32														9.75807930677793	-0.3762187737906949	-0.26032362477874144	0.037939857020024115	-0.035894767120451865	0.9986351350431593	0.21976366266017544	-0.9745881903011155	-0.04337962539927337	0.9748151105843021	0.2211095317234542	-0.029087371100703696
33														9.790817020525768	-0.3821788165759986	-0.32516956299798494	0.03787176121993924	-0.03580313453946221	0.9986410092016296	0.21956684740161786	-0.9746374559360156	-0.04326926170719762	0.9748621077999773	0.22090714122390986	-0.02905005562929225
34														9.748600157105303	-0.36861053763295865	-0.2923840548445882	0.0377758542748855	-0.03572687334696768	0.998647372877259	0.2194036135983457	-0.9746786708947894	-0.043168771615065285	0.9749025793246161	0.2207375795455218	-0.028980714321665713
35														9.759074560939096	-0.44034946101078853	-0.2688320949151072	0.037645915313332445	-0.03566084136723205	0.9986546397294725	0.21920371759483728	-0.9747280297366103	-0.04306969048401589	0.9749525707709193	0.22053020754256597	-0.028877539860738877
36														9.730693377884476	-0.4210408531696853	-0.2753204956136888	0.037576386689748	-0.03561529247703847	0.9986588837561687	0.21906085962173028	-0.9747629727427698	-0.04300565952832604	0.9749873614284088	0.22038307083678804	-0.02882615380893111
37														9.75880104373829	-0.404060885102745	-0.262511836934327	0.0374943455774599	-0.03556770755568159	0.9986636632164763	0.21894383301653772	-0.9747922626122374	-0.04293766103715137	0.9750168060263087	0.22026116982016686	-0.028761867736764923
38														9.740414585359066	-0.42380789768960325	-0.24130174062432794	0.03740709505770773	-0.03553390525963074	0.9986681384806179	0.21881607223227878	-0.9748234142677571	-0.04288166890631054	0.9750488376343932	0.22012871819086186	-0.028689922542006807
39														9.74548395841186	-0.4422715806972153	-0.226580466842974	0.03727348252110235	-0.03548097528489881	0.998675016155697	0.21874382618772265	-0.9748432858007835	-0.04279844195630772	0.9750701646576541	0.2200492411301717	-0.02857455988341867
40														9.740532571592253	-0.42192430766160444	-0.23983536451435175	0.0372383619921588	-0.03545087891722473	0.9986773951482716	0.21874761881751345	-0.9748440586401115	-0.04276143818608763	0.9750706557259369	0.22005066807004026	-0.028546800593414856
41														9.717119179965653	-0.42253999005682114	-0.23283251430834173	0.0371872609533041	-0.03543269706580095	0.9986799445274918	0.21871287740065115	-0.9748531700705066	-0.04273141774633413	0.9750803991886611	0.22001322865256798	-0.028502532097240907
42														9.731010363854393	-0.41584610832173224	-0.27199201118405764	0.037151242557677266	-0.03540052809857508	0.9986824258926172	0.21873226324949013	-0.9748505191618817	-0.04269264929195486	0.9750774236901276	0.22003015225225858	-0.028473670463632195
43														9.731039319765868	-0.41533778727388554	-0.2717325586040895	0.037119954464323035	-0.03541193738072865	0.9986831848346652	0.21877852920002253	-0.9748398920461978	-0.04269824395021944	0.9750682356336103	0.220075395186061	-0.0284386408264814
44														9.749495488369693	-0.39441198728047544	-0.292059568460886	0.03710614519385086	-0.03543873201592304	0.9986827475539751	0.2188358325787059	-0.9748259441454036	-0.04272302658529187	0.9750559021760946	0.22013285737055827	-0.028416768595953823
45														9.754082831401808	-0.3798112397156293	-0.27292248364102834	0.03710557038045148	-0.03550834783278804	0.9986802961313136	0.21892835403213068	-0.9748020763708973	-0.04279354745484844	0.9750351544675323	0.22022731242326432	-0.028396802906357932
46														9.744909796038721	-0.4095516714545903	-0.31042109582445165	0.037066498485569976	-0.035586103296457325	0.998678979423415	0.2190504160551996	-0.9747715426560863	-0.04286437744699005	0.9750092255543348	0.22034987833000486	-0.028336217176766043
47														9.749492369366894	-0.3951628818526382	-0.29114725822057924	0.03706628794558986	-0.03564397876506374	0.998676923271851	0.219194085128826	-0.9747365787382429	-0.042924994050115614	0.9749769450312514	0.2204951447253684	-0.028316917382851248
48														9.754062419133781	-0.3809693477172686	-0.2720365038303534	0.03706881341443585	-0.035753786071874974	0.998672904335335	0.2193380066805693	-0.9746992683991103	-0.043036902858295006	0.9749444814436569	0.2206422510847965	-0.028288781147185194
49														9.735174523454718	-0.3682783516746708	-0.24620472461968654	0.03707137546095668	-0.03586618703857389	0.9986687787994311	0.21945060813015013	-0.9746689030014948	-0.04315043583986515	0.9749190446969123	0.22075811683645308	-0.028261460296362506
50														9.777463701197444	-0.381191856381979	-0.2784159059133204	0.03710690059826882	-0.035965494834918746	0.9986638879569388	0.21958087572540957	-0.9746347516742815	-0.04325898570787216	0.9748883612720239	0.22089269795557087	-0.02826833999824696
51														9.796303643881695	-0.39540999458779197	-0.30378893669124885	0.03707347892986124	-0.03608960663568321	0.9986606517996585	0.21969232750677858	-0.9746044369995006	-0.04337594512562036	0.9748645230977951	0.22100618017098106	-0.02820336737945306
52														9.725937934176885	-0.3999258678239349	-0.28312674141493105	0.03701872119907629	-0.03620254642416203	0.9986585952732757	0.21976805476581018	-0.9745828949736726	-0.04347623407320346	0.9748495352541527	0.221082691446306	-0.028121649269212068
53														9.740103242358613	-0.39057175746694933	-0.2306761405964078	0.03697555934979324	-0.036316698990630156	0.9986560495912468	0.21983030325273473	-0.974564226932146	-0.04357987328985677	0.9748371380813216	0.22114625241810734	-0.028051546460866272
54														9.73550586350685	-0.40594461442526975	-0.2489139858065221	0.036920817228946745	-0.0364296427917902	0.9986539612804877	0.21990604481527629	-0.9745426497800211	-0.04368014667371306	0.9748221297800173	0.22122274947617382	-0.02796981239396573
55														9.726613016069212	-0.4320058845217627	-0.1948232698031119	0.036880970859884676	-0.03654865876001377	0.9986510849797724	0.2199693699804533	-0.974523460702176	-0.04378927735709971	0.9748093507239429	0.22128764105547927	-0.027901785915360022
56														9.717012913838376	-0.4279954485234765	-0.2272358023483279	0.03687801350017417	-0.03666065246690922	0.9986470891566157	0.21997051439153556	-0.9745183135348088	-0.043897942817349295	0.97480920436699	0.2212917828252385	-0.027874036941628266
57														9.716991395004262	-0.4284798879356479	-0.22724295810233258	0.036918377879199216	-0.03672052622073657	0.9986433979799003	0.21995165427771346	-0.9745195578369842	-0.043964771962410665	0.9748119321978299	0.22127637548387707	-0.027900940798696927
58														9.740426355795764	-0.42754616226487385	-0.23412508367919824	0.036950695911206755	-0.03678969304903583	0.9986396570119952	0.21995282472929623	-0.9745159212797128	-0.044039460327714525	0.9748104436070025	0.2212809021531469	-0.027917044560777093
59														9.73581487365716	-0.4426503565307689	-0.25324302352728856	0.036982946028638775	-0.03685964428290664	0.9986358837566278	0.21993891517100048	-0.9745156681039817	-0.044114467165025886	0.9748123590191329	0.2212703758825123	-0.02793359018038094
60														9.731208657172647	-0.4576079481612209	-0.2723499379602908	0.03700502162700803	-0.036901404697496115	0.9986335237241616	0.21990552576175112	-0.9745211793848941	-0.04415915159649314	0.9748190540371232	0.22123914043773057	-0.02794735451776542
61														9.74467611542976	-0.4176352545028498	-0.30696731113954623	0.03702411551696677	-0.036958097588007985	0.9986307194818623	0.21988122835698465	-0.9745239931431413	-0.044218007695629474	0.9748238098684349	0.22121728189954434	-0.02795449700079894
62														9.730786599469472	-0.42388303216622586	-0.26755491381977825	0.03704208876590437	-0.037028049978449606	0.9986274616565742	0.21986534977694588	-0.9745243157099411	-0.04428979631396979	0.9748267085114772	0.22120416272047216	-0.02795723104698994
63														9.74962693695967	-0.43762535187522034	-0.2934614442388357	0.037097036972319086	-0.0370694659418819	0.998623885425668	0.21986392236602195	-0.9745222483710634	-0.044342339492123795	0.9748249409456561	0.22120633382566274	-0.02800164969617297
64														9.735742947344095	-0.44358155440010666	-0.2543762612097244	0.03712141573517502	-0.03707890050477332	0.998622629240482	0.21984422929443287	-0.974526052248376	-0.04435637874232262	0.9748284543137592	0.2211879938571546	-0.028024204425714072
65														9.749619815361864	-0.43747427426632146	-0.29392288815451495	0.03710344207903826	-0.03711223981228319	0.9986220587599711	0.2198770178398019	-0.9745173118430187	-0.04438587550260023	0.9748217435058387	0.22122090899002397	-0.02799781801970702
66														9.754223498884743	-0.422519257889237	-0.2749973247829891	0.037114187838105495	-0.037105264049384815	0.9986219186663904	0.21985493448079252	-0.9745225247240742	-0.04438081330780433	0.9748263152200826	0.22119911434099634	-0.028010836638604153
67														9.778092028527679	-0.45507407046357357	-0.286567717734004	0.03707854356052109	-0.03712000269743036	0.9986226950190819	0.2198589114957772	-0.9745213267047088	-0.04438741751427967	0.9748267746852891	0.221201919515717	-0.027972668075100127
68														9.773132010726806	-0.43524633830738435	-0.3000936655406071	0.03703752565608981	-0.03711397551931467	0.9986244411761743	0.21991144419277725	-0.9745100864246732	-0.04437395823704936	0.9748164844760893	0.22125244468192456	-0.02793165437188444
69														9.77775266928086	-0.4201632587226326	-0.2806806289772859	0.03698286066807216	-0.03713685794309361	0.9986256164343675	0.2199332127142652	-0.9745046799326055	-0.044384802969395204	0.9748136488385807	0.22127241710517095	-0.027872342320793997
70														9.787357810755395	-0.4246306494505369	-0.24723976537635511	0.03692340841814318	-0.03715981121984384	0.9986269625545326	0.21998620370997868	-0.9744922297316345	-0.04439554448295961	0.9748039454618852	0.2213233892356889	-0.027806928797855124
71														9.749764227409377	-0.4355215094518045	-0.292026527038159	0.03692122481204785	-0.037144610069918704	0.9986276088217932	0.22000289441082393	-0.9744891377782039	-0.044380703049333406	0.9748002613916548	0.2213395542939557	-0.027807410805664068
72														9.778223843527412	-0.4533042511941143	-0.2848699652119183	0.03694203733343693	-0.03714577417648739	0.9986267958243886	0.22004560619817265	-0.9744791767734281	-0.04438766977282446	0.9747898322564379	0.22138320960680827	-0.0278254817326552
73														9.74978714868112	-0.43493489847356	-0.2921354813705666	0.03692638482212185	-0.03717338722897677	0.998626347231983	0.22009122090977618	-0.9744677465184253	-0.04441244728390878	0.9747801273017482	0.22142888311425504	-0.027802034824107813
74														9.749798919401718	-0.4347118116244456	-0.29207469791928364	0.0369310700018885	-0.03717120348003547	0.9986262552628791	0.2201480875768442	-0.9744548768450334	-0.044412977035864845	0.9747671083929603	0.22148587906405215	-0.027804491911385953
75														9.763977003578505	-0.42437289262206596	-0.2402673403980454	0.036924776764494405	-0.03718468493640191	0.9986259860764056	0.2202477760875276	-0.9744316842809122	-0.0444275792494218	0.9747448271159952	0.22158563102251433	-0.027790828252565125
76														9.74984142625785	-0.4340080189203264	-0.29170223212307783	0.036869431931502494	-0.037179456157803895	0.9986282256319708	0.22028325972019935	-0.9744244095238006	-0.04441121042299892	0.9747389037460706	0.22161849689049565	-0.027736462642267035
77														9.717529789603638	-0.4602480935058254	-0.23124399960709502	0.0368412432796974	-0.037193561428479086	0.9986287407149229	0.22034636571124638	-0.9744097172510071	-0.044420513782018986	0.9747257059867932	0.22168072066618427	-0.027702999358722113
78														9.712149423761772	-0.4062536806098258	-0.23994866984262195	0.03681975384318664	-0.03717989334606131	0.9986300422367147	0.22035259948599534	-0.9744091247024091	-0.044402585470320194	0.974725108749483	0.22168561799868766	-0.02768481796668104
79														9.712580333838075	-0.4399994393148242	-0.24492171635681526	0.03683784132180867	-0.037184732262170644	0.9986291950135145	0.2203606978170873	-0.9744068847174929	-0.0444115511181149	0.9747225945387311	0.22169465194663873	-0.027700992652667455
80														9.684154786038826	-0.4212873554647201	-0.2522023866695481	0.036820455424143694	-0.037142869532018744	0.9986313941116043	0.2203494200398401	-0.9744114862563977	-0.044366524990183925	0.9747258010078861	0.22168144418179417	-0.02769386493448167
81														9.736089844323514	-0.4375011440998434	-0.25161463972889453	0.0368187391945356	-0.03712191124274966	0.9986322366866645	0.2203500833066953	-0.9744122836487892	-0.0443457129955578	0.9747257158969682	0.22168144978783716	-0.027696815504772987
82														9.768443337137011	-0.41029951523630886	-0.31188738085157097	0.036845450649219125	-0.03709901320661724	0.9986321024208822	0.2203441166880426	-0.9744143875336363	-0.0443291282162747	0.9747260553650048	0.2216760352102678	-0.027728187932749393
83														9.787614570478862	-0.41912681550325437	-0.24646568553315773	0.036843730240148476	-0.03706420342966654	0.9986334584651746	0.22034230264330723	-0.9744163620494359	-0.044294729214524556	0.9747265304729509	0.22167317878910647	-0.027734321655603578
84														9.810657417527006	-0.3832522360069914	-0.24843384926604414	0.03688586505141539	-0.03706184097526245	0.9986319907267808	0.220307537073672	-0.9744239476237991	-0.04430078335406912	0.9747327952151509	0.2216402270364653	-0.027777467330242833
85														9.810660322582976	-0.382931184600372	-0.24881389457564648	0.036907812877743806	-0.03705818632235916	0.9986313154388252	0.22028753156003741	-0.9744284371291321	-0.04430151637655581	0.9747364858195094	0.22162109949319814	-0.027800566031269902
86														9.782210291748447	-0.3645415933962171	-0.25619447960321967	0.03690284391421539	-0.0370863818695934	0.9986304523650705	0.22021912577470565	-0.9744427866772363	-0.04432597585757332	0.9747521309307648	0.22155327976025202	-0.02779257946661451
87														9.740311036947718	-0.3863507737722185	-0.22900408126501656	0.03692124857607754	-0.037108316719094106	0.9986289572378018	0.22018007842893256	-0.9744505014328967	-0.04435034746431876	0.9747602548660943	0.22151567232918778	-0.027807417102911514
88														9.702702158878763	-0.39730116456716946	-0.2744685815973666	0.03697018379559924	-0.03708396390366418	0.9986280514442364	0.2200810306778883	-0.97447359265444	-0.044334604485752216	0.9747807678888002	0.22141814930204218	-0.027864990826852565
89														9.69812119976512	-0.41187918892423603	-0.2936833802854396	0.03698969996943102	-0.037147321434917085	0.9986249739548788	0.2200371097064648	-0.9744805563926819	-0.04439949959891756	0.9747899427303283	0.22137687711868206	-0.027871954165133328
90														9.707704648937654	-0.4165757114295613	-0.2608557122177406	0.036988138190576614	-0.037164525087382605	0.9986243917050216	0.21993656475570322	-0.9745026357024613	-0.044413066685567326	0.974812692324354	0.22127677484088926	-0.027871200177947586
91														9.749600453129933	-0.3944734931543579	-0.28845032516493907	0.0370628327660556	-0.03718767753735522	0.9986207603824052	0.21991099955164287	-0.974506654066867	-0.04445147304192412	0.9748156229275117	0.221255187100274	-0.027939997810844552
92														9.745431299053495	-0.4433861563653174	-0.3128408524140885	0.03708582712777525	-0.037231508844107586	0.9986182735036644	0.21986206725834928	-0.9745155745742934	-0.04449793582874867	0.9748257858751652	0.22120852077016717	-0.02795491963037372
93														9.769174636787389	-0.43818133676109805	-0.22842090008189125	0.03710613555331721	-0.03727978813699662	0.9986157179319574	0.21986112091271992	-0.9745134313012608	-0.044549519912615215	0.9748252264971914	0.22120983163029348	-0.027964051473204132
94														9.792618223556914	-0.437008600425882	-0.23526111125122748	0.03712912599151674	-0.03732362284535026	0.9986132260193652	0.21981220356426598	-0.9745223411432167	-0.04459598386587378	0.9748353825991993	0.2211631836234088	-0.027978975003216444
95														9.726949951161192	-0.4646047940007267	-0.2926080110362293	0.03712520345905668	-0.0374169768079583	0.9986098783382206	0.21982719845119875	-0.9745148056242262	-0.04468664722568956	0.9748321507260725	0.22118061277094037	-0.027953791246455473
96														9.731519153061342	-0.4502828310048385	-0.27346262067553956	0.03711272111565023	-0.03748437636484149	0.9986078146399271	0.21980848049162638	-0.974516161036876	-0.044749120459647365	0.9748368467776309	0.22116322797085558	-0.027927562696323682
97														9.699192136717631	-0.47725315408281693	-0.21330142627913226	0.037111040702414055	-0.03754635936783503	0.9986055485306524	0.21982398418469679	-0.9745098812015418	-0.04480967995559949	0.974833414812577	0.221180384163647	-0.027911485558307192
98														9.740664847411757	-0.4211901153750205	-0.23571823468705588	0.03715065869697809	-0.03755707877766479	0.9986036723305544	0.21980582204101073	-0.974513117334578	-0.04482839211614528	0.9748360011587879	0.22116430538523082	-0.027948539643641634
99														9.745663393441017	-0.44051850867922204	-0.22223578294069998	0.03719580139567097	-0.037569222806437624	0.9986015350760553	0.2197812605666701	-0.9745176842556583	-0.044849532625374444	0.9748398175404303	0.22114211849104937	-0.027990955093233738
100														9.740645186544398	-0.421079999967039	-0.23672532815576833	0.037275912591837546	-0.037590640801704545	0.9985977418683473	0.21983078238486664	-0.9745046697641442	-0.04488959482923709	0.9748255913015941	0.22119582349581757	-0.028061970912678535
101														9.731039036586571	-0.4163182539113163	-0.27023824056348783	0.03733841142297595	-0.03759241398884004	0.9985953401868548	0.21983598170102614	-0.9745027726295841	-0.04490531468322265	0.9748220269269436	0.22120388004676775	-0.028122220223526007
102														9.717175854553448	-0.4221652105688616	-0.2311408358449096	0.03735849357984783	-0.03761077083640296	0.9985938978756757	0.21986409154748815	-0.9744953628918578	-0.04492848706848859	0.9748149179231109	0.22123340077700107	-0.0281364207958405
103														9.722169380921116	-0.44169801182748225	-0.2176372679164759	0.03743316887159853	-0.03766307174677609	0.9985891301705763	0.21990263676212607	-0.9744834961041695	-0.04499717953005511	0.9748033587412877	0.22127676978660177	-0.028195796486575775
104														9.69827699780479	-0.4089569465457525	-0.20666735645365475	0.03751848004528607	-0.0376776224375408	0.9985853796358859	0.21988879667414907	-0.9744851088649626	-0.045029875612055265	0.9748032010371566	0.22126718999412578	-0.028276313052044644
105														9.698261689265804	-0.40886436383008207	-0.20756703371018395	0.03761606306049925	-0.03767475589300749	0.9985818166621256	0.21989405238077875	-0.9744830460896573	-0.045048846948419013	0.974798254782695	0.22127676256720916	-0.028371760967325854
106														9.71250439566442	-0.4370411220758994	-0.2530936505811086	0.03772753347764901	-0.03770077993803647	0.9985766292126795	0.21993085913553537	-0.9744723732218903	-0.04510001138805622	0.9747856433173391	0.22131932816489672	-0.02847287416192068
107														9.730903824113259	-0.4165145346800445	-0.27476684043077315	0.03785951433602763	-0.037732531038843206	0.9985704348095045	0.21997664160508457	-0.9744591877950857	-0.04516158179127944	0.9747701956473579	0.22137196620878846	-0.028592276133017513
108														9.740478019171118	-0.42138899646305883	-0.24297159105611385	0.03795755747517504	-0.037761411553672186	0.9985656210925719	0.21998079377784474	-0.9744559303428245	-0.045211615637690564	0.9747654457352234	0.2213813804663236	-0.028681181695264235
109														9.758889533310725	-0.4007147483226275	-0.26434476823589087	0.03802968666328593	-0.03777227548777455	0.998562465816119	0.21995224716276623	-0.9744611793706395	-0.04523736141323523	0.97476907619207	0.2213564209686675	-0.028750356443014546
110														9.754275353520228	-0.41534954234157395	-0.28393524828970296	0.03809887091235942	-0.03778346966414532	0.9985594050707963	0.21995254713136164	-0.9744598920273716	-0.045263626019465944	0.9747663068888001	0.22136017765203964	-0.028815251243533235
111														9.712373332143384	-0.437316978289773	-0.257606545968339	0.03823356683827345	-0.037799934655714296	0.9985536336656371	0.21993226068332156	-0.9744623648457371	-0.04530894183246213	0.9747656103277069	0.2213464805215517	-0.028943746875198573
112														9.758818735723235	-0.4006161967184395	-0.26709358725657056	0.03833662223407114	-0.03780270541645343	0.9985495775668225	0.21990330808205644	-0.974467751116781	-0.04533362028310166	0.9747680947231763	0.22132229326618025	-0.0290448620783193
113														9.778055545402518	-0.4481259112507312	-0.2985131658221391	0.038389478657324394	-0.03781525399982168	0.9985470717464188	0.21984180799826825	-0.9744805981085627	-0.04535574237106363	0.9747798866331164	0.22126357692785023	-0.029096428313830802
114														9.754178978823418	-0.4151717201400153	-0.28748399917396644	0.03847479411753818	-0.037829802591637346	0.998543237047596	0.21982794130026553	-0.9744822046375313	-0.0453884243884284	0.9747796501985977	0.22125401438314024	-0.029176954571118574
115														9.754577228517594	-0.44924610800692333	-0.2931796602029953	0.0385313960351531	-0.037843366717187785	0.9985405405465974	0.2198322092360026	-0.9744800350085607	-0.04541432760851018	0.9747764519632184	0.2212612504828244	-0.029228885246897263
116														9.754570289551104	-0.4490950352180922	-0.2936416040439924	0.03857101734985763	-0.03785408150527719	0.9985386047289253	0.21981399611337882	-0.9744832724715466	-0.045433014271705194	0.9747789922506869	0.22124515856067295	-0.02926595428476969
117														9.749949887080545	-0.4638004092318324	-0.31297059670745675	0.03861639242815307	-0.03789071967286099	0.9985354613625437	0.2198036111113591	-0.9744834928397044	-0.04547850838953142	0.9747795375254047	0.22123791615725125	-0.029302519962552065
118														9.730687767422202	-0.4161848694907692	-0.2828003585491426	0.03867034128955921	-0.03790063365181119	0.9985329972881922	0.21980244582419473	-0.9744827478681017	-0.04550009799040011	0.9747776615794248	0.22123949935810572	-0.029352928465891936
119														9.730669428793272	-0.41617283521930637	-0.2834483751088747	0.03874895588455396	-0.037929990220410284	0.9985288349665905	0.21977324391755504	-0.9744872235177511	-0.04554527921332524	0.9747811239841547	0.22121475322081136	-0.02942436544165017
120														9.759542880919954	-0.46826384619864897	-0.28193872880152654	0.03879429087774133	-0.03789739702342325	0.9985283122146023	0.2197366145453885	-0.9744965525815645	-0.04552240365772979	0.9747875785130955	0.22117924022270935	-0.029477456998195817
121														9.74948829306177	-0.4290988517743439	-0.3101824558900134	0.03883669993796812	-0.03792603093538163	0.9985255764953725	0.21971482747853657	-0.9744997510640003	-0.04555907991035034	0.9747908007998457	0.2211602390885153	-0.02951344307778414
122														9.782985021438712	-0.4664135567755274	-0.28955843734814846	0.038883843282651265	-0.03789759977990505	0.9985248212550817	0.2196469987104066	-0.9745159467163003	-0.045539714021323716	0.9748042073611918	0.22109373922966574	-0.029568831298576903
123														9.74072566824111	-0.4537852488355336	-0.25766147266074385	0.03890489136425196	-0.037891870575845185	0.9985242188210551	0.2196445378982783	-0.974516548416769	-0.04553870697898449	0.9748039220270849	0.22109206907107598	-0.029590718046087205
124														9.735695523721443	-0.43408966438584934	-0.27195856629247134	0.03895792963643818	-0.037899706232086786	0.9985218535344951	0.21965898410373352	-0.9745123655961343	-0.0455585338080762	0.9747985486350284	0.22110916210719853	-0.029639973199963032
125														9.73568800972381	-0.43382313632436453	-0.2726520577929005	0.03904636390040844	-0.03787694479347313	0.998519262968557	0.21968972605929532	-0.9745055151790545	-0.04555683427981784	0.9747880824723648	0.221143252075932	-0.029729721342995286
126														9.71728205599095	-0.4541636677927783	-0.2526897820485779	0.039084876142715774	-0.03786628909432728	0.9985181603792364	0.21971738728026868	-0.9744993269471927	-0.04555580650369316	0.9747803045731085	0.22117234440520434	-0.029768303389085815
127														9.74071671375134	-0.4525683962634625	-0.2601285452502718	0.039184446610416424	-0.03785429313729814	0.9985147127783901	0.2197414087184021	-0.9744933926820867	-0.04556688395543938	0.9747708922809951	0.22120054274352902	-0.029866828617725605
128														9.75406646930141	-0.4121688511150071	-0.295510236710927	0.03925522687160249	-0.0378503532147941	0.9985120820124183	0.2197407834479028	-0.9744929813149659	-0.04557869521576238	0.9747681853922814	0.22120302920481175	-0.0299366767971046
129														9.782547077246953	-0.4297721003182883	-0.2890104511656629	0.03930082515456246	-0.037786018345450825	0.998512724986401	0.21970370532730676	-0.97450385760271	-0.045524865544989135	0.9747747057692986	0.22116611027694688	-0.029997077480029666
130														9.753660296467347	-0.37670914842906517	-0.29167827416079434	0.03933002952480941	-0.037750071687326386	0.9985129347510621	0.21968126256148	-0.9745102857493471	-0.04549555855377155	0.9747785859655366	0.22114392385124962	-0.030034534900694132
131														9.777964651811063	-0.4431442672138007	-0.308751712418817	0.03934504920566051	-0.03772518399889653	0.9985132836348516	0.21964056559056533	-0.9745204960955846	-0.045473339845147495	0.9747871506385692	0.22110317316100442	-0.030056576120279677
132														9.735729746869664	-0.4303604034370965	-0.27662044491457893	0.03935812039358777	-0.0376858756650906	0.9985142528449148	0.2196322675449172	-0.9745240327086864	-0.04543761356273647	0.9747884926547713	0.22109428859324703	-0.030078399879053475
133														9.773898224691289	-0.4526412000197788	-0.23676576298816535	0.03935505421942853	-0.03767562704029567	0.9985147604489912	0.2196005993750191	-0.9745317128455642	-0.045425955272546004	0.9747957511507312	0.22106218081212248	-0.030079158117711113
134														9.735768517503086	-0.42929072309727234	-0.27691783353992294	0.039380842847877795	-0.03765064174281327	0.9985146861178085	0.21961028654902956	-0.9745303863814816	-0.045407577132170404	0.9747925272889839	0.22107228500089104	-0.03010935977467677
135														9.745445211817234	-0.43354391560023936	-0.2444127172239345	0.03940099245723416	-0.03764280354920692	0.9985141867466585	0.2196239974098268	-0.9745274254237636	-0.04540481096380883	0.9747886240386237	0.2210866717780306	-0.0301300847492999
136														9.749560922444	-0.42243836252363737	-0.3169678418417014	0.03941084704355374	-0.0376337518011791	0.9985141390389406	0.21961756418602363	-0.9745291944367191	-0.04539795911180376	0.9747896750767867	0.22108041504368148	-0.030141988119667007
137														9.763848620506241	-0.41196791104872593	-0.265725983970458	0.03947545574999173	-0.037599189753854845	0.9985128889118983	0.21957157467740385	-0.9745405287179238	-0.04537710303529083	0.9747974209993667	0.22103632917700147	-0.030214718217129566
138														9.726125886019915	-0.422980026311918	-0.3112431297507006	0.03949731731815376	-0.03762167216922134	0.9985111775577986	0.2195684518126893	-0.9745399894798695	-0.04540378699134326	0.9747972388621382	0.22103488115627404	-0.030231182890916197
139														9.754177763948046	-0.4066995274559828	-0.29938901575453486	0.03954212688374936	-0.03760263584758629	0.9985101211198729	0.21952812900169794	-0.974549535416333	-0.04539387179811123	0.974804503876815	0.22099602891709008	-0.030280925090778843
140														9.736239714888343	-0.46120215870880993	-0.28427920070893486	0.03958334748257958	-0.03759822324857867	0.9985086540489392	0.21950900308695345	-0.974553647008755	-0.04539809099188387	0.9748071379333687	0.22097864763475578	-0.03032294714682654
141														9.754619408277987	-0.44021026709421257	-0.30523497572520203	0.03960748230764116	-0.03760536852627497	0.9985074279159137	0.2194801561953282	-0.9745596122016994	-0.045409506733155344	0.9748126529655455	0.22095112247571225	-0.030346220440090665
142														9.736249689070702	-0.4606205478993439	-0.28487993864737365	0.039630742098383576	-0.03759342187073747	0.9985069548645018	0.2195063792812839	-0.9745539716003219	-0.045403809232928444	0.9748058030887756	0.22097803300348154	-0.030370301189808324
143														9.745943158080241	-0.4647767525909241	-0.2523848114396546	0.03965520099850711	-0.03754844791327122	0.9985076760311218	0.2195197498986216	-0.9745527326894987	-0.04536574271271579	0.974801797514866	0.22099114295992514	-0.03040345860344379
144														9.73122590789546	-0.4401186495740845	-0.29923128767865104	0.039647299774047184	-0.03755115545076501	0.9985078879733198	0.21952837858694405	-0.9745507348659012	-0.04536690608052983	0.9748001757363478	0.2209994929782526	-0.030394760860073478
145														9.71748013226383	-0.4458406951138807	-0.2597946434479065	0.03967402902163303	-0.03755972259579235	0.9985065040648047	0.2195076517196499	-0.9745547690335974	-0.04538053536921523	0.9748037557671367	0.22098024661131782	-0.030419867683566026
146														9.763903141335124	-0.40882565028762013	-0.26856046571326	0.03971525380854979	-0.03755530796531138	0.998505031263515	0.21948852236302963	-0.9745588812441396	-0.04538475007163456	0.9748063844506848	0.22096286075221216	-0.030461894267792666
147														9.707815022512692	-0.44042181520885965	-0.29325394338082256	0.03972603999386387	-0.03753018552024513	0.998505546765376	0.21951817097136622	-0.9745531907214395	-0.04536354338065003	0.9747992687521839	0.22099222526930234	-0.030476581349127396
148														9.764381920538371	-0.442006621038341	-0.2739976254302219	0.03972066234406785	-0.03751984941279246	0.9985061491463086	0.21951027688911834	-0.9745555052198405	-0.04535201854123626	0.9748012655526314	0.22098377348969178	-0.03047399762494979
149														9.731289450272604	-0.4381321160346704	-0.30007890921873026	0.03971444431981813	-0.03750815904315141	0.9985068356889509	0.21950210035276496	-0.9745579536827927	-0.04533897720871291	0.9748033600953029	0.22097495993619085	-0.030470907897633792
150														9.717551156654396	-0.44367510212518296	-0.2608433680124987	0.03976977154861794	-0.037483636012877686	0.9985055544673873	0.21953032653558335	-0.9745520986368527	-0.04532816755270415	0.9747947481404229	0.22100494128810783	-0.030528919471365712
151														9.731295957924399	-0.43736245617934716	-0.30098927813027043	0.039838335353898524	-0.037491028562780915	0.9985025437191112	0.21960808450660613	-0.9745334242886332	-0.04535299508974551	0.9747744335258132	0.22108601882881668	-0.030590456401538735
152														9.717552737875492	-0.4430075025347963	-0.2619169102300426	0.03986228785144147	-0.03746185952069579	0.9985026825644991	0.21964900465921278	-0.9745252202341088	-0.045331113816882165	0.9747642344482415	0.22112712228244114	-0.030618344691057342
153														9.735916560407693	-0.421814808610317	-0.2831319083585426	0.03995629895752606	-0.03743889512238362	0.9984997863322914	0.21963604997462854	-0.9745282333411588	-0.04532910734287865	0.974763304461734	0.22111773233500498	-0.030715610393834303
154														9.712944885999534	-0.4566831326995627	-0.28225591795438326	0.04001920601763387	-0.037375237287998436	0.9984996518714384	0.21961470775722383	-0.9745353153258751	-0.045280230999919305	0.9747655324673863	0.22109728813434754	-0.030791977741125187
155														9.74146819302269	-0.4739735695788105	-0.2758785311809883	0.040072286815346636	-0.03730774963880233	0.9985000468934777	0.21958481688381998	-0.9745446077050581	-0.04522516762924743	0.9747700857245714	0.22106772584410128	-0.030860015661522577
156														9.750720017403621	-0.44369953514419663	-0.2388864746967649	0.040149506088068776	-0.03724328005324734	0.9984993516531495	0.21958054959155132	-0.9745477012325292	-0.04517920166919588	0.9747678694960953	0.22106495903527767	-0.03094970896106486
157														9.7226884865735	-0.4589733010766972	-0.25186500496206804	0.04020912310132152	-0.03718952990770856	0.9984989560759023	0.21959140993902337	-0.9745470576500064	-0.045140282527995956	0.9747629655974908	0.22107684476434697	-0.03101918130167669
158														9.731346203166533	-0.4327332252348843	-0.30601403565424207	0.04026927746643183	-0.037119601356444	0.9984991339442764	0.21961689710684967	-0.974543819778405	-0.04508616014782192	0.9747547403308643	0.2211028686536073	-0.03109208381010753
159														9.717175910943691	-0.4035824987907244	-0.2622399384990733	0.0403344574838031	-0.037022129833041734	0.9985001219039051	0.21960541424536553	-0.9745501546513708	-0.04500508974673052	0.9747546324966141	0.22109128877369927	-0.031177691620388692
160														9.740616912213962	-0.4011478850046268	-0.2701456610303928	0.040461282468327475	-0.03691400476639753	0.998498993926947	0.21961842229924558	-0.9745507778961318	-0.04492805235969474	0.9747464455989615	0.22110662033089742	-0.031324578816640525
161														9.749223522815337	-0.37484541316221864	-0.3250441695105642	0.040608538614490486	-0.036855409035653805	0.9984951804672922	0.21962176566866864	-0.9745511527152954	-0.04490357208358861	0.9747395686213688	0.22111474298676762	-0.03148084810998414
162														9.810232750171137	-0.39961981573308225	-0.3844960787297153	0.040719683624716396	-0.036782540395414204	0.9984933410331608	0.21958834703142363	-0.9745608751206536	-0.0448559754333126	0.9747424609677734	0.22108402340767774	-0.03160679326289412
163														9.847516494993043	-0.3534595386543352	-0.33539316735934854	0.04076659934935506	-0.03675794431881085	0.9984923324227105	0.21952409526852534	-0.974576072943987	-0.04484026808140536	0.974754972274584	0.2210211111512475	-0.031660897830657564
164														9.838267039692276	-0.38254732770366895	-0.3736952257317928	0.040809696800580386	-0.03675771500853217	0.998490580343348	0.21947375787130555	-0.9745870568706052	-0.044847945171868686	0.9747645039971921	0.22097271091164838	-0.03170524845297423
165														9.814850512652042	-0.3835656224697791	-0.36709066315436784	0.04078671789827576	-0.03676404021286478	0.998491286386773	0.21940433983283897	-0.9746027406829748	-0.044846778209250204	0.9747810930181207	0.22090247440999938	-0.03168465707463125
166														9.796065380380334	-0.36985946105356715	-0.3413338997910883	0.04078251234633401	-0.03677510558929105	0.998491050683789	0.21935050971266945	-0.9746144837358027	-0.04485489918822694	0.9747933835308447	0.22084881639096549	-0.031680589060123165
167														9.749707235876441	-0.4066093046811963	-0.3327741556700709	0.0407718283805969	-0.03683032978376008	0.9984894515309231	0.2192691141111274	-0.9746305477733492	-0.04490379654264687	0.9748121427267027	0.22076870737276494	-0.03166171564419651
168														9.731392893033123	-0.427323199080715	-0.3120716255168335	0.040769465513528724	-0.03684557871616993	0.9984889854228797	0.2191840710737863	-0.9746491420537453	-0.044915396930445384	0.974831366785693	0.2206840574735035	-0.031659960640670726
169														9.74046693848951	-0.4360150100164837	-0.3705531674311909	0.04077561700936655	-0.03690587498865126	0.9984865073944804	0.21906977038724823	-0.9746722340326288	-0.044971901319861715	0.9748568021817277	0.22057196693407594	-0.03165790016487385
170														9.769626465555621	-0.45047313695091695	-0.27230134204382234	0.04081154267081677	-0.03698339183001556	0.9984821714550419	0.21900836946374633	-0.9746822638339379	-0.04505350899076953	0.9748690948479489	0.2205146555136363	-0.03167861445901654
171														9.759889982513135	-0.4460768734398939	-0.30496006871322073	0.04075894615339326	-0.0370465975142973	0.9984819767632656	0.21896943529720653	-0.9746887534363953	-0.04510233176043128	0.9748800411917802	0.22047535811790664	-0.031615213880243465
172														9.770095480953296	-0.48520383100245656	-0.2767567899365995	0.04072955951720536	-0.03712783324502483	0.9984801585309863	0.21894989784922325	-0.9746897997603015	-0.045174511342543924	0.9748856575072528	0.22045706666322257	-0.0315695509137891
173														9.770096451733261	-0.48545186617937996	-0.27628715962393446	0.04068699677258203	-0.03719009080575285	0.9984795768765069	0.21894963026785275	-0.9746874776446997	-0.04522588117642373	0.9748874948932307	0.22045683946857553	-0.03151434962565869
174														9.699838820257558	-0.4894656822313161	-0.2554483249243311	0.04062762266726416	-0.03723222510180477	0.998480424290018	0.21897215655351418	-0.9746810827062331	-0.045254631463618814	0.9748849116335268	0.22047799987430317	-0.03144615462528133
175														9.704470391941777	-0.4747357035840234	-0.23610419115152292	0.04060901035444431	-0.037276250791711624	0.9984795388013451	0.21900311089464833	-0.9746722762142537	-0.04529449633004967	0.974878733841548	0.22050948983261454	-0.03141686167110036
176														9.666245559872298	-0.4517185711865016	-0.2757355943912949	0.04056879441636557	-0.0372721885606527	0.9984813252532576	0.21903997356207403	-0.9746645343791842	-0.04528283786749786	0.974872126435836	0.22054439322573433	-0.031376865923225916
177														9.694302509493914	-0.4353366023671058	-0.26362964260398825	0.04061754586964145	-0.03727662219610439	0.9984791777524343	0.219110303748625	-0.9746479194023793	-0.045300198628696164	0.9748542915526984	0.22061705881971805	-0.03142011456096544
178														9.661156191187178	-0.4317482415724335	-0.2900915257156552	0.04065439562177309	-0.03728105941682787	0.998477512378415	0.21913890145937331	-0.9746408672690023	-0.045313593063302834	0.974846327368477	0.22064746193393314	-0.03145370500125666
179														9.731425114052145	-0.42744684687765416	-0.31089540324617326	0.040722744554358425	-0.03725465031299942	0.9984757128273155	0.21915318921308158	-0.9746381295916712	-0.04530337739929985	0.9748402626757345	0.22066401468319263	-0.03152546415518731
180														9.713106787861669	-0.44775114881895456	-0.29086356322424023	0.04076374922315085	-0.037230916691120594	0.9984749248687274	0.2191643554583924	-0.9746362575389017	-0.045289632224946544	0.974836038544831	0.22067628856064792	-0.03157013812637144
181														9.741154556985984	-0.4311903882819907	-0.2793382095996623	0.040833155123559395	-0.03719221782642591	0.9984735311343047	0.2191374130408275	-0.9746433986604982	-0.04526631919305375	0.974839190660916	0.22065127323599415	-0.031647558687923405
182														9.769702188575588	-0.44847471248216714	-0.27288280637861717	0.04086539702866582	-0.0371066814058857	0.9984753945494759	0.2191434688250471	-0.9746455719343912	-0.04519014472215467	0.9748364782859816	0.22065607470388338	-0.03169759137945832
183														9.741190058466135	-0.4295639326288299	-0.28060318619462715	0.04091451888033998	-0.037071694985280915	0.9984746824911028	0.21910659529828563	-0.9746549976008213	-0.0451656456672129	0.9748427063078349	0.2206203188345562	-0.03175488743099503
184														9.73658539745513	-0.44345289116891623	-0.30023381304926466	0.04096638113009471	-0.036978589875057186	0.9984760084788997	0.21906640817149808	-0.9746677690374251	-0.045084906681138015	0.9748495598952396	0.2205795182932011	-0.0318278444384304
185														9.74634027123043	-0.4471021279672646	-0.2684673835566489	0.04107883893040132	-0.03688879688919157	0.9984747095726549	0.21902345993877026	-0.9746803895793683	-0.045020685977228955	0.9748544778522483	0.22053878305975644	-0.03195922680450236
186														9.74173930527869	-0.4607325491702762	-0.2884499364542716	0.04113511571006734	-0.03678685110089899	0.9984761538672814	0.21893556492390706	-0.9747042883959671	-0.044930708807680936	0.9748718483303168	0.22045017071572257	-0.03204062365872018
187														9.746385974538416	-0.4448364394807879	-0.27056370812046476	0.04123403384359253	-0.03668484487283179	0.9984758267527775	0.21886214604807797	-0.9747244685730003	-0.04485054506148774	0.9748841549026305	0.2203779311132107	-0.032162897849008
188														9.788626677439911	-0.4555561239605419	-0.3041623590209108	0.04130693938025365	-0.03654973535710772	0.9984777682073657	0.21880514337874135	-0.9747426743715266	-0.044732851351694844	0.9748938639616339	0.2203198484121886	-0.032266366476344066
189														9.750869515893648	-0.4655359854401687	-0.35001679068731173	0.041365203342287604	-0.036444299681901604	0.9984792100855913	0.2187558981011966	-0.9747579317297943	-0.04464114218735818	0.9749024448622485	0.220269806261659	-0.03234865454792707
190														9.750387960641426	-0.4300898135250071	-0.3457481186343847	0.04141685788841637	-0.03633187700485721	0.9984811658694194	0.21874606696693485	-0.9747646524805629	-0.04454245683552746	0.9749024577203343	0.22025863657925313	-0.03242423388610022
191														9.740138046925532	-0.3899238394476503	-0.3742486881225989	0.04146340361672879	-0.036219994094372196	0.9984832989030515	0.2187274820335373	-0.9747733681180926	-0.04444287806813341	0.974904649062556	0.22023849081283225	-0.032495113489586835
192														9.755070483797478	-0.41274539611679817	-0.32832078120608843	0.04150263825710526	-0.03611258046337297	0.9984855595099894	0.21866937843286888	-0.9747908740260653	-0.044344727434979386	0.9749160137947693	0.22017863985358851	-0.032559677497498496
193														9.759711250616984	-0.39685464244535484	-0.3102535924574423	0.04157643367691061	-0.036024825776610966	0.9984856594315588	0.21861972420914794	-0.9748052415552495	-0.04427366286098501	0.9749240054226924	0.2201294004992902	-0.032653187997461364
194														9.749952111729852	-0.3912073230486416	-0.343877438339844	0.04162509390990399	-0.035961990826162984	0.9984858971326595	0.2185814226972676	-0.974816186599373	-0.04422175929896943	0.9749305171183388	0.22009120282209493	-0.032716192194284566
195														9.783147039063829	-0.39375876400622944	-0.31850657891848594	0.041674097298876556	-0.03591639241456068	0.9984854943213983	0.21853754954738996	-0.9748276189747739	-0.04418656720990313	0.974938259097542	0.22004800848882158	-0.032775980655926296
196														9.74997861654736	-0.3896484940366091	-0.3448942396545745	0.041676397548870925	-0.03586693586163765	0.9984871760815189	0.21848011119276395	-0.9748427456894264	-0.04413685749912784	0.9749510341040449	0.2199890544745306	-0.03279172168179095
197														9.770091110797395	-0.4325438187338078	-0.28443079489690587	0.04165187387921043	-0.03585472010103152	0.9984886381170429	0.21844922268887818	-0.9748504992679883	-0.04411849026857881	0.974959003501673	0.21995668465275262	-0.032771914310797845
198														9.76496708816821	-0.41249846131542445	-0.2980967302397569	0.04161577717899101	-0.0358224542425669	0.9984913013450982	0.21846864632889268	-0.9748479017343479	-0.04407968982831248	0.9749561926881689	0.21997345352605216	-0.032742969975431246
199														9.769604380217661	-0.39751405591388533	-0.2788636164185183	0.04159732569713459	-0.0358887275752833	0.9984896903463122	0.2184416476656649	-0.974851249094533	-0.04413942346631512	0.9749630295862283	0.21994781511043998	-0.03271161213067464
200														9.703233557851576	-0.3910094072777512	-0.3306351216614224	0.04159878904457287	-0.03593597315559227	0.9984879301140229	0.21846999754064905	-0.9748427487451381	-0.044186823755648766	0.974956614893511	0.21997777399633928	-0.03270134588975743
201														9.755204391465604	-0.40779891092443227	-0.33051566570634144	0.04164678249068687	-0.03597134832387669	0.9984846556697491	0.2184726617823027	-0.9748401018587655	-0.04423202303477533	0.9749539689451654	0.21998372191540824	-0.0327401974690954
202														9.764968436198606	-0.412731363409312	-0.2977299276076109	0.041616420989192826	-0.03605048036438162	0.9984830676428862	0.21846862897288072	-0.9748378072349013	-0.04430245749572072	0.9749561690962116	0.2199809365625751	-0.03269336156304903
203														9.783744320297867	-0.4265309696901426	-0.32341926306622093	0.04167295531564169	-0.036131841548571006	0.9984777688168973	0.2185079939239849	-0.9748247438882294	-0.04439566752019443	0.9749449324893054	0.22002547291065377	-0.03272873177907837
204														9.764161212175043	-0.4177180212726184	-0.38926383142198095	0.04171241506066575	-0.03622202971970534	0.9984728534080388	0.21859028509221284	-0.9748017575048484	-0.0444951775899725	0.974924797968085	0.22011246699912945	-0.03274355170785975
205														9.760264569086134	-0.42919988309171014	-0.31695539451345134	0.04172170502522976	-0.03633252902938541	0.998468450510138	0.21876367907776886	-0.974757568870082	-0.044610925196028356	0.9748855071474527	0.22028987553860832	-0.03272031003883946
206														9.755083527670363	-0.4104991298658915	-0.3307402760417599	0.041741525678216096	-0.03643025481005306	0.9984640612303132	0.21889221090831262	-0.9747239441737203	-0.044715016024799034	0.9748558073057404	0.22042247886479693	-0.032712165525573766
207														9.731647912670589	-0.4125037177561816	-0.3238380316195506	0.04175963027582802	-0.03653137610297476	0.9984596095182068	0.21905507999169066	-0.974682385847911	-0.04482319318900166	0.9748184473065027	0.2205894496068376	-0.032699992554927115
208														9.741389945208734	-0.41789315276149863	-0.291091595885069	0.04181181692143954	-0.036635855373158124	0.9984535973528295	0.21915535697957583	-0.9746544612356353	-0.04494007900114627	0.9747936712314478	0.22069548091103186	-0.03272312993229198
209														9.760149217212453	-0.4319573960070437	-0.31676138032406764	0.04180406780237489	-0.03673352826992726	0.9984503331743734	0.21924360471518084	-0.9746301555368233	-0.04503667072244126	0.9747741593346985	0.22078656621069703	-0.032689913952494876
210														9.737249070537779	-0.46791760166513496	-0.3146855052328397	0.04178430871930672	-0.036803447768036957	0.998448585445057	0.21931909468251215	-0.9746100998245146	-0.045103082241608194	0.9747580244617088	0.2208634409594204	-0.032651710446340965
211														9.760133589979723	-0.43277510331043034	-0.3161260924508893	0.041769055605285155	-0.03688399292055691	0.9984462514627807	0.21944022320475556	-0.9745791607830885	-0.04518238381468148	0.9747314165623723	0.22098649378087892	-0.03261341951933122
212														9.736711013364227	-0.4345138943111295	-0.3090989919702843	0.041763600972448744	-0.03695308954195417	0.9984439247184176	0.21953280115719068	-0.9745550940408746	-0.04525171703988777	0.9747108037002001	0.2210810662455856	-0.032588514814632596
213														9.713293101401154	-0.4361651436210824	-0.3020318670610526	0.04173936243152482	-0.03701905694482825	0.9984424946118456	0.2196244149138995	-0.9745315674631401	-0.045313799129655746	0.9746912034062568	0.2211737177893229	-0.032546037573133735
214														9.736192648668824	-0.40073612668928676	-0.3035224439538448	0.041725403902243996	-0.03704568569247048	0.9984420903791918	0.21968161574761802	-0.974517520819185	-0.04533860737766772	0.9746789103965016	0.22123114335012845	-0.03252388107659365
215														9.723067574063018	-0.44097336259033154	-0.26881823487915263	0.04172117363714478	-0.0371049942345362	0.9984400648377421	0.21973606794360298	-0.9745025084208174	-0.045397373560805615	0.9746668169764598	0.2212873256298021	-0.03250408282949091
216														9.745955963327953	-0.40555420365136813	-0.2706813976909952	0.0417582530124479	-0.03712871468197662	0.9984376329302765	0.21973438051631586	-0.9745014297251693	-0.0454286856811069	0.9746656094909988	0.2212880973068056	-0.03253502214344467
217														9.741322447355257	-0.4202083899678771	-0.2900153839586732	0.041809296086827374	-0.03713802393518864	0.9984351505926231	0.2197099062336453	-0.9745060350462261	-0.045448264667495325	0.9746689385958328	0.2212662532711965	-0.03258381960114465
218														9.71790231947949	-0.42152343532225245	-0.2835133098399015	0.04181710553517781	-0.03718062562783139	0.9984332380097245	0.21965934763457304	-0.9745154905427501	-0.045489885567865415	0.9746799991183845	0.22121744906346502	-0.03258434514363706
219														9.689348041172883	-0.40330459694865445	-0.2907150057477673	0.04183384924820921	-0.037176112273836784	0.9984327046592985	0.2195913009285237	-0.9745309647563204	-0.045486913366756074	0.974694613514201	0.22115002918227095	-0.03260483060965125
220														9.731547265773923	-0.4149961453027488	-0.3236781191693563	0.04190996818264764	-0.03716539702854224	0.9984299113260983	0.2195274437216241	-0.9745451527892742	-0.045491170879406254	0.9747057279097003	0.22108929969277347	-0.032684331741376804
221														9.74131297489476	-0.41943944081923407	-0.29144313682407774	0.04193124746125371	-0.03717928398639332	0.9984285008595272	0.21942866666134675	-0.9745667001531431	-0.045506122663197285	0.9747270544791332	0.22099196319068595	-0.03270659675906101
222														9.74131396507653	-0.4193236345684002	-0.2915766387235289	0.04192824293737191	-0.03721178173930831	0.9984274163623366	0.21932890458129187	-0.9745878625050917	-0.045533832179235734	0.9747496366038588	0.22089314511216124	-0.03270113733652685
223														9.737217933824097	-0.46799028534750836	-0.3155397082187205	0.041921340224928105	-0.037210086625861505	0.9984277693889746	0.21921356594311792	-0.9746141414189302	-0.045526781708632974	0.9747758787230273	0.22077745536974355	-0.03270017523214186
224														9.764734500231025	-0.41753058718698793	-0.29870922382902565	0.04197992161269076	-0.03723046707006743	0.998424548227425	0.21913441288453644	-0.9746305308890811	-0.04555696816753682	0.9747911546947594	0.22070165513791032	-0.03275643674524259
225														9.765259239587555	-0.451391954709589	-0.30409123405878763	0.04198070080053096	-0.03721233956460196	0.9984251912609305	0.21902614949690147	-0.9746558552644325	-0.04553580607960413	0.9748154525841586	0.2205928502533278	-0.032766260394735736
226														9.760121265777782	-0.4316104385450934	-0.31809272187471405	0.041993599196682996	-0.03722888327649092	0.9984240321008374	0.21894255910317822	-0.9746738796113128	-0.04555199465208358	0.9748336747568068	0.22051040486430012	-0.0327790772707649
227														9.732083259408306	-0.4475279435824708	-0.33044057665587806	0.042025015010578815	-0.03724599163357309	0.998422072182197	0.21885774617207607	-0.9746919558248172	-0.04557277905583183	0.9748513656213647	0.2204276011701446	-0.032809870291360455
228														9.764746677121623	-0.41644565802692285	-0.2998236233914188	0.04207254983962255	-0.03723694377565663	0.998420407728248	0.21875971082106538	-0.9747140404321408	-0.045571134569316066	0.9748713194424566	0.2203314535028974	-0.032862761993238176
229														9.755492244624367	-0.4455682731037615	-0.33809555046314743	0.04209847916961018	-0.03723908896665763	0.9984192347428706	0.21869361745934485	-0.9747286105652735	-0.04557672024221854	0.9748850289824702	0.22026662479464532	-0.03289064103089645
230														9.747023971676066	-0.47071618700080187	-0.28492267584136305	0.042110188808133	-0.037234201744149764	0.9984189232075981	0.2186559531121196	-0.9747372220658703	-0.0455732606683031	0.9748929716472338	0.220229339870478	-0.03290488858877283
231														9.736712877843425	-0.4316866308185125	-0.31297741825039105	0.042157693019389375	-0.03726090734455313	0.9984159222003339	0.21862230080899542	-0.9747431141545337	-0.04560867239135892	0.9748984657431068	0.22019874248546883	-0.03294685568539352
232														9.717922922511553	-0.41817756575030407	-0.2877306273958311	0.04219797831883598	-0.037254381491215655	0.9984144638803611	0.21861880492980648	-0.9747437862065251	-0.04561106645136152	0.9748975067959018	0.22019687171137164	-0.03298770879675428
233														9.713283727907546	-0.4328307552944077	-0.30708780028773147	0.042253119527651206	-0.03730016535688904	0.9984104223987907	0.2185740161541271	-0.9747512394235416	-0.045666406739811066	0.9749051612092524	0.2201561239362176	-0.033033433683820945
234														9.746459530530405	-0.4363271473615871	-0.28154709916447385	0.04230375782939022	-0.0373403122569502	0.9984067773979031	0.2185746736448205	-0.9747487303097556	-0.045716789044942197	0.974902817779584	0.22016042750701814	-0.03307388766617081
235														9.765221156140788	-0.4497589235773639	-0.3077123165423953	0.04236074334032647	-0.037367314619373995	0.9984033509668285	0.21856100681914697	-0.9747499901370759	-0.04575525134858126	0.9749034073803703	0.2201502680577695	-0.03312409624784418
236														9.764681491309831	-0.4156157195443984	-0.30308048700290124	0.04240059357946324	-0.037397360695928236	0.9984005343934306	0.21851247137349739	-0.9747591590620904	-0.045791720636079475	0.9749125548059967	0.22010456432692374	-0.03315857723273774
237														9.736622980308823	-0.43173579132518947	-0.3156945284389062	0.042458016028288637	-0.03742317848230432	0.9983971266921913	0.2185074998666085	-0.974758501997245	-0.045829415075160654	0.9749111699929313	0.22010308606734452	-0.03320906693427933
238														9.760009499082312	-0.43047438181599607	-0.32302332752248014	0.04250958536424554	-0.03746542911517585	0.9983933477209154	0.21849254788379863	-0.9747594023177141	-0.04588152256039285	0.9749122738336035	0.2200919108337006	-0.03325070095749105
239														9.755355882024926	-0.44527154368852917	-0.34239376620373957	0.04255643168761952	-0.03748673527755671	0.998390552239076	0.21847448590872964	-0.9747620141450708	-0.045912033136868494	0.9749142778362275	0.2200767149383937	-0.033292497848490366
240														9.745831591507082	-0.4025903933869491	-0.2794420764675944	0.04263845054784077	-0.03753155220804487	0.9983853690453074	0.218462479163317	-0.9747618101786721	-0.045973455547914766	0.9749133847335859	0.2200699797929141	-0.033363097297010036
241														9.741685238725	-0.45181997383509237	-0.3039569160474684	0.04268430174827098	-0.03760790832689513	0.9983805364767175	0.2184390894756496	-0.9747630935043254	-0.04605730920198073	0.9749166192928047	0.22005125942187556	-0.033392044764205986
242														9.741649294756574	-0.45224743801556644	-0.3044727889648444	0.04276469076738182	-0.037667854227554545	0.9983748364123879	0.2184279715386977	-0.9747619974859204	-0.04613317143605737	0.9749155873577262	0.22004586116341857	-0.033457682403140565
243														9.73645678766042	-0.43315845227423594	-0.3188555371975572	0.04282208096085066	-0.03772796750547738	0.998370106648876	0.21844590170117376	-0.974754571332032	-0.04620512630940363	0.9749090508412278	0.22006845783803833	-0.033499499289452894
244														9.718184632437115	-0.4542451259048872	-0.2985824398307855	0.04287202103234955	-0.03778534736022689	0.9983657933530522	0.21843183163593716	-0.9747545677482194	-0.04627167148647339	0.9749100085345169	0.2200586289579427	-0.03353617569698597
245														9.699393509627063	-0.44114758356595	-0.2734055029016331	0.04294766758899998	-0.03782285394971205	0.9983611218230418	0.21839828624501514	-0.9747596080721113	-0.04632380636717699	0.9749141943852825	0.22002985749711795	-0.03360320514315235
246														9.713476848233205	-0.46940477046111895	-0.31884216130598364	0.043045599321170136	-0.03785171579706588	0.9983558103152902	0.21840245837649852	-0.974756300397186	-0.046373710344256705	0.9749089406473731	0.22003954746183546	-0.033692061358835734
247														9.741491040877959	-0.4535887427243435	-0.307525546673876	0.04311939533921927	-0.037911441734201176	0.998350359508732	0.2183783406043014	-0.9747581928635045	-0.046447452033309924	0.9749110821508247	0.22002088089794836	-0.03375194614239296
248														9.741976074663375	-0.48774079763933126	-0.31348537169841895	0.0432257018656278	-0.03788400719668787	0.9983468038196672	0.21834775116598615	-0.9747652561982263	-0.046443028212670365	0.9749132260150031	0.21999431198903213	-0.03386302457684398
249														9.760188237687318	-0.466832349324538	-0.33516906288299914	0.04331978150865512	-0.03791911946705466	0.9983413929657962	0.21837857570989333	-0.9747556771668492	-0.04649911291536907	0.9749021459618198	0.22003070287994153	-0.03394547965780037
250														9.759651181150987	-0.43263910000961936	-0.33086240929959065	0.043377150875666626	-0.03791809494055179	0.9983389408702781	0.21834534832245925	-0.974762620516195	-0.04650959589529899	0.9749070374388797	0.22000011754651264	-0.03400318561057225
251														9.783049156444623	-0.4309911629872658	-0.3381973041378403	0.04342375641957602	-0.03791496125260868	0.998337033817551	0.21834635346556602	-0.9747620496876463	-0.046516840144486565	0.9749047375547535	0.22000318679953432	-0.03404923628138751
252														9.778395520584887	-0.44544101895127053	-0.35745749410508293	0.04344811170049706	-0.03792439148765736	0.9983356159728809	0.21832667017544632	-0.9747657957733113	-0.04653072619811971	0.9749080606291869	0.21998496294227343	-0.03407182706465256
253														9.740521243341044	-0.45657564940420087	-0.4025008595158585	0.043448260444687914	-0.03793154421689536	0.9983353377586371	0.2182877277031478	-0.9747742472476486	-0.0465363818638289	0.9749167741907648	0.21994627720446058	-0.03407225477381276
254														9.749842816218642	-0.4267640168781976	-0.36472147175267555	0.043440969068285706	-0.03791694487333251	0.9983362096497754	0.21831103348815262	-0.9747697461536041	-0.046521335330926006	0.9749118805634396	0.21996874158641366	-0.03406725496934898
255														9.759686568525408	-0.4310638485736865	-0.3318730496742462	0.0434259835059419	-0.0379277108558487	0.9983364526580092	0.21827547853553528	-0.9747774235460778	-0.04652730397255407	0.9749205092860778	0.21993286087828373	-0.034051979080058914
256														9.754527983925598	-0.41140071956275837	-0.3456682244808826	0.043432543241418375	-0.03794887527938953	0.9983353630181656	0.2182708170518952	-0.9747774195438634	-0.04654925102411281	0.9749212607236962	0.21992922773573573	-0.03405393041166421
257														9.774172613690396	-0.4207708630352352	-0.2802323539098404	0.043448617333789075	-0.037985392088570394	0.9983332748334395	0.21832273563174132	-0.9747638333091022	-0.04659026055752148	0.9749089192114591	0.21998313403627678	-0.03405906606944348
258														9.750771421223929	-0.4221775466715167	-0.27331223968267676	0.04342146996112545	-0.038034250582763676	0.9983325957460383	0.2183168982677594	-0.974763155311198	-0.046631780777729684	0.9749114359146476	0.21997769621115	-0.034022129452389416
259														9.722716082452179	-0.4384287354166865	-0.28519471472377056	0.04342036283960693	-0.03810070572168926	0.9983301098907044	0.2183378164450535	-0.9747553405031043	-0.04669715270423859	0.9749068006742402	0.22000082359888135	-0.03400540567220023
260														9.750754744249255	-0.42261430295372343	-0.27323222000460345	0.04346840984746203	-0.03815386066468217	0.9983259889743998	0.2183549777154496	-0.9747484720839055	-0.04676023820488441	0.9749008160075665	0.2200220422741141	-0.0340396806875356
261														9.72216501024593	-0.40483372504945564	-0.2804598354031378	0.043482253438753504	-0.0382187977807185	0.99832290223759	0.21838254850971967	-0.9747390590544865	-0.046827654863061535	0.9748940230313693	0.22005247158296273	-0.03403753234212842
262														9.722662199679595	-0.4393318593090479	-0.28564152038753343	0.043515325199927124	-0.03829002120297041	0.9983187320435398	0.218367901681203	-0.9747386710562365	-0.046903972783453235	0.9748958282750488	0.2200418083542274	-0.03405475867053548
263														9.74138422009912	-0.4528669214625366	-0.31194143215831405	0.043619566484140726	-0.03830405976250027	0.9983136443149749	0.2184284957168049	-0.9747232264151839	-0.04694277522332302	0.9748775952285647	0.2201077710860852	-0.034150306424483856
264														9.73153961655961	-0.4481725047240685	-0.3452461345671393	0.043640667853180715	-0.03834374670142082	0.9983111985739848	0.21841061419626928	-0.9747251724201705	-0.04698554944743527	0.9748806571656539	0.22009224279689243	-0.0341629762300793
265														9.764753800201202	-0.4515553858976916	-0.3196797646759509	0.04370330973659753	-0.03836375771384298	0.9983076894485694	0.21843991232672755	-0.9747169493843248	-0.04701992434710668	0.9748712865915989	0.2201251704757764	-0.034218180872918946
266														9.791877797394548	-0.4394685095837003	-0.39935419717081844	0.04375298789202181	-0.03840177623692996	0.9983040516958595	0.21845619330683702	-0.9747109527564917	-0.04706856894380938	0.9748654100215097	0.22014509342336258	-0.034257410661235055
267														9.825605076275586	-0.4771038152415534	-0.37872544550982257	0.04377467859843265	-0.03844990611559983	0.9983012482378779	0.21849109024165086	-0.9747005699587006	-0.04712157050861858	0.974856615610018	0.22018265972116308	-0.03426624227276476
268														9.792378083637049	-0.47388402092865095	-0.40441573655181184	0.043727875771288394	-0.03850627781488075	0.9983011266393391	0.21853149218746754	-0.9746892809608698	-0.047167706137794446	0.9748496601029564	0.2202227784513349	-0.03420625744399225
269														9.788142117086839	-0.4506357652656589	-0.3262812323691419	0.04364878473573752	-0.03857130350272438	0.998302077598356	0.2185364589822154	-0.9746859296958843	-0.047213923247110864	0.9748520911844052	0.2202262314052763	-0.034114620244434124
270														9.741354133372376	-0.4535496912387784	-0.3118889504111255	0.043600361533145615	-0.03864280327533631	0.9983014285421022	0.21857773907742672	-0.9746737373539185	-0.04727449304164476	0.9748450032974364	0.22026765415640992	-0.03404967075395626
271														9.689910593751707	-0.47091758726272415	-0.3167574417679403	0.043577910126129826	-0.038641555147810494	0.9983024571565461	0.21856620196384985	-0.974676643406847	-0.047267918890716604	0.974848593940688	0.22025501359315405	-0.034028633221787896
272														9.699747956313548	-0.47526373540436895	-0.28410842239938966	0.04361818252515848	-0.03863501746002518	0.9983009514064713	0.21856274253566532	-0.9746773037413794	-0.04727029877971567	0.974847568458008	0.2202532383355547	-0.03406947716374442
273														9.69458306298394	-0.4556008473091701	-0.29819811784677364	0.04362395681550696	-0.03865419200913839	0.9982999568425714	0.21855099229556785	-0.974678988572317	-0.047289882662871804	0.9748499444316454	0.22024241797566196	-0.03407144208648022
274														9.68993961620773	-0.46993414675183454	-0.31732968485835483	0.04365319088517339	-0.03861822990998191	0.9983000707423411	0.21852868674681497	-0.9746854179337379	-0.047260439439850505	0.9748536361907134	0.22022027242276118	-0.03410893753534161
275														9.68478487690188	-0.4498121526066021	-0.3316631416961177	0.043702067262089084	-0.03856505415085244	0.9982999879371737	0.2185156162897493	-0.9746903643010569	-0.047218843443943226	0.9748543761785811	0.2202076981783661	-0.0341689172853738
276														9.737307560897923	-0.49968661194759045	-0.33710505657343937	0.04373874963064922	-0.03847069131869528	0.9983020222809371	0.21847418634828625	-0.9747037895850232	-0.04713334772800244	0.9748620167388826	0.22016477574320598	-0.03422747203259641
277														9.775238880091003	-0.4871728263872349	-0.29259360131409284	0.04372498908534839	-0.03840033792579668	0.9983053337414715	0.21846118158372202	-0.9747101921841583	-0.047061166510883434	0.9748655484068202	0.22014871178252593	-0.034230209318146354
278														9.785135207545517	-0.49070504088512285	-0.25960561186008263	0.0436490162108496	-0.03832092988916759	0.998311709696052	0.21845799379466624	-0.974715459606208	-0.04696677284919938	0.9748696673561211	0.2201392267113888	-0.034173857433383636
279														9.77538702824702	-0.48468917666448424	-0.2917678623411109	0.04356048802236445	-0.03823961850779915	0.9983186943354468	0.21849979934373098	-0.9747107795580477	-0.046869327924474125	0.9748642580226247	0.22017408519106102	-0.03410352826727292
280														9.70473511679536	-0.4533144786821754	-0.2654943910174513	0.043453120755442776	-0.03815553859327275	0.9983265904358506	0.21850925764776735	-0.9747137235022867	-0.046763891396354174	0.9748669296980151	0.22017563918600452	-0.03401701471616542
281														9.71375165003987	-0.46045998151565537	-0.32347995888000153	0.043390853081422875	-0.038034377615618745	0.9983339220863221	0.21848141094496093	-0.9747263373348682	-0.04663089509382899	0.9748759443849075	0.2201407582097079	-0.03398440281201687
282														9.6904448396356	-0.460120720282755	-0.316281503508492	0.043295667219695855	-0.03790242977004059	0.998343072804899	0.21839369653602558	-0.9747532949710271	-0.046478029825450545	0.9748998299893847	0.2200441313933463	-0.03392494253519135
283														9.65786769592645	-0.4891536556524671	-0.3470577813034665	0.04326618384791858	-0.03776217073492916	0.9983496660973169	0.21830196177992384	-0.974780824247421	-0.04633139499902304	0.9749216844538205	0.21994627330533445	-0.033931490400811115
284														9.764559338629065	-0.4415243818145081	-0.4091499705982671	0.043280862471037906	-0.037608925198881885	0.9983548145269537	0.21822288091649616	-0.974805608609741	-0.04618224407169426	0.9749387371462209	0.21986267115719693	-0.03398329947716161
285														9.858800997564284	-0.4682159371420232	-0.44178212544880363	0.0432407790348297	-0.03745971819110186	0.998362161012478	0.21820064276767973	-0.974817931134996	-0.04602695550933507	0.9749454931042212	0.21983350666067747	-0.03397815217220357
286														9.933728892329443	-0.4474865492235229	-0.44297060858293513	0.04313667381771735	-0.03734534841316989	0.9983709492587629	0.21820831202793073	-0.9748225474847388	-0.045892629879818014	0.9749483883436423	0.21983249502124041	-0.03390153682167274
287														9.919684423745453	-0.4179306198295571	-0.39737271811662794	0.04299381765134669	-0.037275144105036115	0.9983797350085344	0.21821536658596652	-0.9748256594725455	-0.045792875206400255	0.9749531196060224	0.2198306103932423	-0.03377746740979104
288														9.901010267186482	-0.403297060781116	-0.3703106619890259	0.04282229263250076	-0.03721615676236688	0.9983893072992797	0.2182205787376767	-0.9748289590653376	-0.04569769778647338	0.974959501861021	0.21982597263160092	-0.03362307968465611
289														9.83033622903568	-0.37204591242888824	-0.3429204894955513	0.0425800363420577	-0.03716508714682751	0.9984015709134667	0.21825666824383336	-0.9748256538327872	-0.045595738798494975	0.974962033759372	0.2198492686520654	-0.03339658367171189
290														9.723247497524124	-0.382602509986574	-0.27406996062244704	0.04237576296739787	-0.03713589312780624	0.9984113481699475	0.21824503758716324	-0.9748317103034483	-0.04552186458651268	0.9749735372211441	0.21982734595235243	-0.033204513097411126
291														9.634315507635316	-0.3725729151496972	-0.2263234270592968	0.04222105282208449	-0.03711482322471188	0.9984186860208467	0.2182678316887452	-0.9748291203897516	-0.045468007324245455	0.9749751465286124	0.21984238885424812	-0.03305733979571296
292														9.586956769691469	-0.34054467234403424	-0.20640712197797909	0.042102957089765414	-0.037119403520425934	0.9984235027715369	0.2182981450146873	-0.9748232887220885	-0.04544750431210126	0.9749734667607339	0.21986747291798237	-0.032939846162609476
293														9.587594837213489	-0.37431803225616544	-0.21064852999193723	0.042047398415803405	-0.0371493118913515	0.9984247317211559	0.21833578841118906	-0.9748140077890408	-0.045465742236686785	0.97496743524352	0.21990356714766465	-0.032877368666080375
294														9.639017310873214	-0.35660667219321707	-0.2048959313037514	0.04202284415720675	-0.037185135029394606	0.998424431943542	0.21831353581240157	-0.9748176470359993	-0.04549456130445757	0.9749734768956673	0.2198813788387809	-0.03284659175516008
295														9.69103212872088	-0.3733460131133948	-0.20436661917302518	0.0420158931616354	-0.03726661662644973	0.9984216864667194	0.21824794057656652	-0.9748287937555539	-0.045570377430740286	0.9749884620629715	0.2198181570078092	-0.032824940118340196
296														9.742261653070964	-0.39409023383545055	-0.2950894628883144	0.04199257482370711	-0.03732386333597805	0.9984205290784807	0.21817974271447976	-0.974841792744485	-0.04561884465615765	0.9750047300032547	0.21975078690279234	-0.032792806023345555
297														9.771479486137794	-0.4465228025605436	-0.29255576073006545	0.041917158259759446	-0.037427077458891164	0.9984198343964888	0.21806602514281898	-0.9748634728932002	-0.045699211120325614	0.9750334150796257	0.21963702577547078	-0.032701932460750205
298														9.761679318542837	-0.44245343968709117	-0.3246490707632105	0.041884716068040784	-0.0375578760630529	0.9984162841748591	0.21801787160782232	-0.9748686590599005	-0.045818175895022586	0.9750455775088135	0.21959167454251194	-0.03264380878697837
299														9.771458600558518	-0.44779374079394674	-0.2913080695716892	0.04183650488693946	-0.037652808088912346	0.9984147299103036	0.21797587760985998	-0.974874253967637	-0.04589886416083004	0.9750570360953538	0.2195505750255793	-0.032577927602612244
300														9.748641187607118	-0.48390891459995333	-0.2890497970287204	0.04180377726376844	-0.03776427528198846	0.9984118908140607	0.21795805972672744	-0.9748734749560475	-0.045999913339935694	0.9750624228256579	0.2195348886613412	-0.03252236543997039
301														9.757048158642428	-0.4591019907765954	-0.34205963779967996	0.04180494346225161	-0.037893719741232484	0.9984069374289678	0.21796140675744044	-0.9748667371085178	-0.04612667388518027	0.9750616246506861	0.21954250359227734	-0.03249488036598014
302														9.772585315149959	-0.5182472749579414	-0.3002437033412504	0.04180103479989	-0.03802289320280065	0.9984021900427438	0.21794746737013404	-0.9748639403671999	-0.04625147823238787	0.9750649080736129	0.21953258838774967	-0.032463328220811716
303														9.781001661133566	-0.49329921735225085	-0.35335274188738014	0.04178602748982607	-0.0380983284278706	0.9983999425468841	0.21798352202033	-0.9748524814345176	-0.04632303496723776	0.9750574916558674	0.21957039147381807	-0.032430404773953425
304														9.715943829147013	-0.5174644335677264	-0.318852813675523	0.04177900182607591	-0.03820188730723206	0.998396279446484	0.21804673156979726	-0.9748335085756005	-0.046424706890975165	0.9750436594625622	0.21963662345872492	-0.032397774267760304
305														9.757561592001725	-0.4955782002118613	-0.3461876355580183	0.04180028904921157	-0.03823882124258915	0.998393974533791	0.21819669528273267	-0.9747977743073148	-0.04647043547461019	0.9750091989325521	0.21978874346854735	-0.032403244303933765
306														9.780960090877798	-0.49422646461556696	-0.3532076824163691	0.041844245914465394	-0.03826429043146427	0.9983911573935472	0.21830675851653325	-0.9747713094159731	-0.04650863925631085	0.9749826758819123	0.21990165624034344	-0.032435217170539266
307														9.81414083807205	-0.4974315908052466	-0.32768700157957786	0.04189742834513693	-0.03826207006014147	0.9983890121053901	0.2183805820871222	-0.9747542003960361	-0.046520642488833794	0.9749638592611286	0.21997786889820764	-0.03248400113362221
308														9.79456387431008	-0.48776314260236364	-0.39379694867275883	0.0419481674205569	-0.038246328289980674	0.998387484708413	0.2184567714254433	-0.9747372067932252	-0.04651899301697039	0.9749446088206387	0.22005589304828072	-0.032533270144501414
309														9.79917315846381	-0.47257468540964426	-0.37515565068205764	0.041951837067368825	-0.038219966391955906	0.9983883400439284	0.21858468752253968	-0.9747095153692824	-0.04649833361801714	0.9749157798227224	0.2201830938504964	-0.03253655536587852
310														9.794006566936778	-0.4527133371866603	-0.38893787790417556	0.04193461698995288	-0.03822095843331813	0.9983890254977489	0.2187191163357995	-0.9746792801632751	-0.04649998892136696	0.9748863708387728	0.22031672464168217	-0.03251314804764732
311														9.794787444686385	-0.4484991317708738	-0.2975132121439996	0.04192384486253525	-0.03823317195122801	0.9983890102532629	0.21890274309608837	-0.9746373083091269	-0.04651565668619294	0.974845618699161	0.22050020819601884	-0.03249119709340259
312														9.766206331408492	-0.4301606013533208	-0.3044502233459267	0.041908249236770334	-0.03821903389316124	0.99839020632926	0.21903628965281646	-0.9746079149039135	-0.04650286036120427	0.9748162916473218	0.22063253988231102	-0.03247275602784899
313														9.699992129984878	-0.3852098574938682	-0.26007491682182726	0.04192320074425859	-0.03823882850725646	0.9983888206674537	0.21920526636756515	-0.9745685744740086	-0.04653111694794594	0.9747776651298906	0.22080282072947177	-0.03247488139820309
314														9.709782819322587	-0.3896406621094021	-0.22757976239796415	0.041974895043124405	-0.03822515684007613	0.998387172178544	0.21926586962554798	-0.974554936168464	-0.04653122400101689	0.9747618101892741	0.220865374774391	-0.03252536890331775
315														9.681773577201705	-0.40557653637359964	-0.2402956416621857	0.04204084279626863	-0.03823863874868172	0.9983838811016668	0.2192817511372006	-0.9745500122969875	-0.04655950118015158	0.97475539555069	0.22088476642491567	-0.032585868198165446
316														9.700575364247117	-0.4186850227419668	-0.26671460924577267	0.042114148227104076	-0.03822159957595807	0.9983814440608162	0.21926494539623437	-0.9745538404196268	-0.046558520635249775	0.9747560116457307	0.22087082525587604	-0.03266184794674637
317														9.66736661987058	-0.41507135731402267	-0.2934645554135701	0.04219210099005	-0.03820158075754293	0.9983789189689811	0.21921667411953166	-0.9745648870139829	-0.046554600066959745	0.9747634976762403	0.22082554251500988	-0.0327445166544732
318														9.742778169711707	-0.42992904242659036	-0.30066084770729007	0.042249518794580554	-0.03820049841396661	0.9983765322174548	0.2191836442778083	-0.9745718130528764	-0.04656512948471135	0.9747684382676355	0.22079516100619884	-0.03280226567664396
319														9.770788299714146	-0.41331472812727693	-0.28903686600807726	0.04226848825418711	-0.03815955425594404	0.9983772950742088	0.21916963737833683	-0.9745766942589533	-0.04652888413382933	0.9747707653351912	0.2207806953206703	-0.0328304678852947
320														9.779800341461607	-0.42149398289087536	-0.3479376915911301	0.042310677850405654	-0.03815719505070107	0.9983755981621855	0.21913511807233627	-0.9745841767296444	-0.04653474503662891	0.9747766957448573	0.22074807118990547	-0.032873735696966166
321														9.790206999310955	-0.46005150647132576	-0.3205575350555368	0.04233667951877024	-0.03816479406740668	0.9983742054265614	0.21910755158407513	-0.9745897903371826	-0.04654698066855392	0.9747817634763984	0.22072197231884125	-0.03289870103095088
322														9.780413211270702	-0.45512823483704545	-0.3533946155757934	0.0423192157736732	-0.03817875691871647	0.9983744119800165	0.21902112214226716	-0.9746088899996672	-0.046553835386136	0.9748019450287552	0.22063520583478718	-0.03288272972850198
323														9.785031623428953	-0.44007131029669355	-0.33433873749196824	0.0422856653205993	-0.03818284550706058	0.998375677196404	0.21897229546390862	-0.9746201034210416	-0.04654876826324053	0.9748143701893509	0.22058495940689635	-0.032851474179965146
324														9.779851355975316	-0.42028864887982303	-0.34796183386691315	0.04224914524551765	-0.038187122602181794	0.9983770597291334	0.21894679808927855	-0.9746260585438239	-0.04654401802362766	0.9748216807870435	0.22055790549127235	-0.03281616968549389
325														9.780485091473201	-0.4540662268477193	-0.35277087217255343	0.042232555042241215	-0.03819605358788633	0.9983774200095448	0.21894629483816394	-0.9746259310253371	-0.04654905530334473	0.9748225127023089	0.2205569225014381	-0.0327980588671154
326														9.751900172408066	-0.43576225095799925	-0.35950792848427976	0.042180144240499984	-0.038216282519053305	0.9983788615461937	0.21890459071905832	-0.9746349753660617	-0.04655582622311648	0.9748341477369222	0.22051344753465568	-0.0327445241591392
327														9.73831681251044	-0.4417890683914053	-0.3193765906331578	0.04212424628950534	-0.03828230383283859	0.9983786922244443	0.21884607051511024	-0.9746457206562047	-0.046605972006206725	0.9748497039516589	0.22045449512268547	-0.032678284617852216
328														9.761127530783478	-0.40624808634140797	-0.32060801828554253	0.042086388429447674	-0.03832103705356167	0.9983788028739919	0.2187911381731642	-0.9746567325695674	-0.04663358782794058	0.9748636693229762	0.22039907389994728	-0.03263547851937443
329														9.766957884080494	-0.45974155475284895	-0.3114243127825966	0.042048525055429	-0.03836132974685125	0.9983788508981533	0.21869030472881135	-0.9746780409328017	-0.04666119523775779	0.9748879279990512	0.22029780957478867	-0.03259452313299804
330														9.737752157091503	-0.4075835144806014	-0.31296084499898746	0.041993809593160014	-0.03841390473376165	0.9983791323334835	0.21863476024062262	-0.9746887105933411	-0.046698598013388035	0.974902744672708	0.2202414342602137	-0.03253227727388719
331														9.729966937826278	-0.4671869185514039	-0.2642190246011494	0.04196249439556965	-0.03843878473101982	0.9983794914222266	0.2185300537842762	-0.9747115259442056	-0.04671249066961869	0.9749275689286578	0.2201360965855445	-0.0325012972500589
332														9.705966295611711	-0.43426458827904646	-0.25198676846406975	0.04189866635221989	-0.038466092692728604	0.9983811203497688	0.2184244286174356	-0.9747347660707222	-0.046721566713897766	0.9749539839095238	0.22002839709003208	-0.032438152427951616
333														9.71501313073747	-0.4425828915749332	-0.3102802636491743	0.04190743222718002	-0.03846542742880679	0.9983807780685903	0.21834220730369855	-0.9747532567941875	-0.04672011214534619	0.9749720240262656	0.21994658274645731	-0.03245077971763949
334														9.678004711203364	-0.4498456740815917	-0.26380252897922585	0.041857866161383706	-0.03849191369481969	0.9983818365838422	0.21825368394330608	-0.974772506317068	-0.04673211287237733	0.9749939735637296	0.21985662034255804	-0.03240089514129413
335														9.72484597055576	-0.4465306113948763	-0.27722289469817385	0.04184912860115314	-0.03845896767868669	0.9983834725396918	0.21821693855844992	-0.9747824252040023	-0.046696801170756114	0.9750025734127585	0.21981840532242328	-0.032401396883544875
336														9.715071846526463	-0.4413550025495538	-0.3101908533708553	0.041866585361437	-0.03846662135671866	0.9983824457949835	0.2180858207578009	-0.974811435037582	-0.04670375685495655	0.9750311604326143	0.2196883819444474	-0.03242300146594629
337														9.733911719524878	-0.45415482306161126	-0.3360392796872955	0.04185633456608706	-0.038436454121802216	0.998384037458149	0.2179899130169258	-0.9748345580409971	-0.04666885762354944	0.9750530473156653	0.21959103680149744	-0.03242424211725681
338														9.748922679725926	-0.4778730477190382	-0.28959716360694465	0.04188642748244592	-0.038458431770379206	0.9983819290324323	0.21787678268219207	-0.9748586848994485	-0.04669316913825969	0.9750770404233782	0.2194800526286623	-0.03245414822954057
339														9.743724675466385	-0.4581297181485002	-0.3036585591816572	0.04189765895063591	-0.03844185384496472	0.9983820962173839	0.2177707158365541	-0.974883210432195	-0.04667591821754148	0.9751002520246266	0.2193739954743456	-0.032473814237487186
340														9.761945881368478	-0.4367890349653475	-0.3243039764666235	0.041881805654566395	-0.03844064000455463	0.9983828081207895	0.21768341555398404	-0.9749030701812104	-0.04666834413177125	0.9751204258694741	0.21928593422125864	-0.03246281110509702
341														9.728763877810133	-0.43312027945723386	-0.35028569638347223	0.0418763459604265	-0.038440137116619436	0.9983830565005893	0.21757525009910922	-0.974927469085285	-0.0466630535570855	0.9751448006287649	0.21917752138715513	-0.03246277753474586
342														9.743151491200523	-0.42276380520613155	-0.29871751529038487	0.04189093663304089	-0.03844150247626309	0.9983823918295904	0.21749094189214907	-0.9749461976868115	-0.046664781269116495	0.9751629810564346	0.21909395816269356	-0.0324807308066104
343														9.761987371201643	-0.43566559180721265	-0.3245661339062948	0.041877728209428644	-0.03843702206270262	0.9983831184545181	0.21742808568302568	-0.974960665765976	-0.04665541517744136	0.9751775650804483	0.21903035302011425	-0.03247184964938138
344														9.784778454589182	-0.39964328717933023	-0.326462002930733	0.04190725540390039	-0.03842035634954849	0.9983825209620238	0.21737561292011903	-0.9749729188577521	-0.046643867781283474	0.9751879946205833	0.21897872890298953	-0.03250679061236572
345														9.756792734039946	-0.4155849598545955	-0.3387525525972208	0.04189657313833817	-0.038463896962104366	0.9983812927883576	0.21729474603065	-0.9749891511319205	-0.04668135090732041	0.9752064758330613	0.2188987980906832	-0.03249070155775524
346														9.76200062928278	-0.43507425476594747	-0.3249603275746853	0.04191858333151227	-0.038505660024789626	0.9983787590476542	0.2172614124816568	-0.9749944480152868	-0.04672584922546594	0.9752129567525002	0.21886786078687046	-0.0325045919313664
347														9.748393419209988	-0.4411866232812524	-0.2853262493340158	0.04187417988380554	-0.03852949244526295	0.998379702954226	0.2171552471748065	-0.9750176194381179	-0.04673585785746749	0.9752385101520072	0.21876041688828246	-0.03246118173076068
348														9.766586513721984	-0.42030618699021305	-0.3060143256653226	0.04192758412242381	-0.0385759409635901	0.9983756680070034	0.21710929896237516	-0.9750251885888348	-0.04679138725633883	0.9752464457734377	0.21871849120748862	-0.03250525511662161
349														9.734617229680252	-0.4855513411639102	-0.3425891716318053	0.04195461395235389	-0.038633119090818846	0.9983723215701765	0.2170082062905745	-0.9750448896209678	-0.04684977723087572	0.9752677831091607	0.21862055103157577	-0.03252392805295434
350														9.724943246510325	-0.44320041357708484	-0.27914778665070544	0.04197236080290939	-0.03870304569879157	0.9983688672941817	0.21699222953766933	-0.9750450002120692	-0.04692142241787803	0.9752705743786703	0.21860768928627092	-0.0325266803718946
351														9.743737371242808	-0.45692900867341835	-0.30505711754214315	0.0420227781666096	-0.0387947975885396	0.9983631853164582	0.2170198109812872	-0.9750339687264733	-0.047022988751773104	0.9752622661401428	0.21864062639310025	-0.032554396532979535
352														9.739123771210357	-0.4720297095725018	-0.3242546005345197	0.04205451574522728	-0.03884459846205754	0.9983599124943651	0.21705128415035782	-0.9750242298831904	-0.04707962605387338	0.975253893995874	0.2186752119263028	-0.03257290184910616
353														9.738485242007327	-0.43814353007722423	-0.3192628073414229	0.04206492230555353	-0.03890537104817991	0.9983571076598948	0.21701891420353336	-0.9750285096802449	-0.04714017595045124	0.9752606488469361	0.21864532333055636	-0.032571297123837384
354														9.767089215785996	-0.4565158964587872	-0.31205001876248795	0.04204415305087045	-0.038992478836205435	0.9983545841976401	0.2170797452831405	-0.9750109732602897	-0.047222729800692864	0.9752480060897545	0.2187079985190996	-0.032529033212311875
355														9.715061883237704	-0.44040129665941863	-0.3118539956619512	0.04200477882127973	-0.03907946184346131	0.9983528405419605	0.21714496184796575	-0.97499264586999	-0.04730122665937955	0.9752351839942103	0.21877416703409466	-0.032468442191105784
356														9.720257981314434	-0.4602527816631874	-0.29774878082550865	0.042017061525478405	-0.03915612623210335	0.9983493197870472	0.21719230568865572	-0.9749782579385623	-0.04738036404178561	0.975224112135467	0.21882457431829314	-0.0324613121116219
357														9.752821130226828	-0.42982575821031027	-0.26668697297973304	0.04205056737204982	-0.03923080405653653	0.9983449773483942	0.21724590053764478	-0.9749623261016085	-0.04746242073607536	0.9752107302953942	0.21888217537208943	-0.032474987622867935
358														9.738417549267282	-0.4402517829676606	-0.31842630746205425	0.042063818644315965	-0.03930956241167366	0.9983413211242236	0.21727762813569984	-0.9749513153873863	-0.047543295385672035	0.9752030903728628	0.21891708687858846	-0.03246908683363181
359														9.752793329287162	-0.4305100792903075	-0.2665998068695807	0.04206148828413425	-0.03935803289777062	0.9983395096107044	0.21734995858325262	-0.9749327909770851	-0.04759252652980302	0.9751870726723064	0.218990863562957	-0.03245265734525227
360														9.790429190487622	-0.45746091910606784	-0.31746416710111414	0.04199017702407848	-0.03948665728235681	0.9983374323995632	0.21740897186681649	-0.9749141623610917	-0.047704454504634855	0.9751769911074094	0.21905063324363316	-0.03235206469860885
361														9.799606445810127	-0.4287634779902822	-0.2785020198862583	0.04189060649023041	-0.03961508160319209	0.9983365276285612	0.21762681353312718	-0.9748601307690605	-0.04781522214051882	0.9751326818024806	0.21926780599646206	-0.03221617814390382
362														9.781413160375703	-0.4503048930129508	-0.256099940206972	0.04168500162411187	-0.03976203746664633	0.9983392915317412	0.21780143758470807	-0.9748160206167107	-0.04791930440892617	0.9751025045735614	0.2194372491750246	-0.03197497848108516
363														9.728813217518375	-0.4004201902493678	-0.24894707927314763	0.0414847016118014	-0.03994114897074455	0.9983404850806552	0.21806654980189086	-0.9747498810529971	-0.04805881027105051	0.9750517931831522	0.21969837051299712	-0.031727379410448675
364														9.724851338813146	-0.45038004035592283	-0.2707322618514333	0.041318047888823484	-0.0401332409094249	0.9983396926361106	0.21827958729514524	-0.9746944047188002	-0.04821658615171086	0.9750112002889602	0.21990939130462422	-0.03151220282861383
365														9.678618693682887	-0.48861332782796757	-0.2604174730352481	0.04119585068710602	-0.04033170634327522	0.9983367444653161	0.21852281597048895	-0.9746312455020973	-0.04839126151856846	0.9749618868378874	0.2201528758714509	-0.03133736522166514
366														9.682496622114389	-0.4789459962886042	-0.3316234366900881	0.04116396928292354	-0.04046891892136448	0.9983325068504032	0.21866534803972446	-0.9745927392346823	-0.048522759584592734	0.9749312761418316	0.2202981144548769	-0.03126895534048524
367														9.705887570939518	-0.4783776390115274	-0.33789507508424305	0.04115203460022504	-0.040585162205355574	0.998328280004642	0.21877008111603147	-0.9745635421336543	-0.04863696076432432	0.974908283715318	0.22040586868926693	-0.03122645337822899
368														9.71621639662266	-0.5178388000525105	-0.3098111507587572	0.04113427668834746	-0.040678572865729914	0.9983252100347533	0.2187842161143927	-0.9745559872360556	-0.048724680825714586	0.9749058611273898	0.22042205300732626	-0.031187825950172443
369														9.794954630604803	-0.48823406751934645	-0.38335578775122503	0.04112505036525532	-0.04069173453299679	0.998325053764129	0.21870525721795525	-0.974573295514471	-0.048732967642973635	0.9749239666239019	0.22034308341937853	-0.03117987959498153
370														9.781322257511295	-0.49390243378051457	-0.34349832442593164	0.04104918267783436	-0.04068743851393826	0.9983283512695891	0.21859647191670672	-0.9745989217498601	-0.04870856382175974	0.9749515613952573	0.22023050213624923	-0.031112358666055606
371														9.814550160675248	-0.49636825102700666	-0.31686137936614933	0.04096431229752201	-0.04064238598727682	0.9983336724659008	0.21846285432127893	-0.9746322254114317	-0.04864161254892821	0.9749850800908652	0.22009139385905482	-0.03104628720777519
372														9.804880332635344	-0.49061803688426175	-0.34892337233938026	0.04085146192363809	-0.04059716822934263	0.9983401364216803	0.21828450128334415	-0.9746759097745367	-0.04856693736133791	0.9750297608576789	0.2199062091823167	-0.030955203195583647
373														9.77243807685038	-0.48235441050618033	-0.2829536412195446	0.040760306457210294	-0.04054659928107744	0.9983459173574334	0.21816546944274884	-0.9747062052162182	-0.0484937259429048	0.975060216274021	0.21978122485722085	-0.030883455763894285
374														9.763371167208186	-0.5109722066310465	-0.3200054821000848	0.040648561943003036	-0.04054646725723367	0.9983504787422725	0.2181170226798822	-0.9747183532014789	-0.04846747723434157	0.9750757195362986	0.21972736726488062	-0.03077702463875709
375														9.739426017638058	-0.4773073041668574	-0.30699151602253993	0.04049161766857473	-0.040484431025823664	0.9983593740447863	0.21817629130309552	-0.9747097201137997	-0.048374243445299725	0.9750689897703695	0.21977709698736497	-0.03063483030796127
376														9.730378071578704	-0.46792518894877144	-0.2472259107255592	0.04036927401380569	-0.04051718430315156	0.9983629998611443	0.21822416760430619	-0.974698677130778	-0.048380796530436906	0.9750633489107292	0.21982003224377955	-0.030506049159760795
377														9.74348487538601	-0.427330713303372	-0.2808083619921528	0.04031728267871493	-0.040527521055757285	0.9983646812435221	0.2182417484653354	-0.9746947806292322	-0.048379994222051484	0.9750615652071399	0.2198354035436686	-0.030452247939922628
378														9.772731395145579	-0.4791174765340279	-0.2782839032468427	0.04027432117513263	-0.040536457888594085	0.9983660524255262	0.2182952953178315	-0.9746827429438574	-0.04838093270638019	0.9750513540814059	0.21988712147209713	-0.03040576778725068
379														9.734435500479591	-0.45607875899449046	-0.31776406833458454	0.040211550617866465	-0.040536195470716296	0.9983685932828952	0.21829754797866563	-0.974682933534976	-0.04836692694554991	0.9750534404551421	0.21988632502366734	-0.030344560042570967
380														9.725325963638776	-0.4471532859811419	-0.2587665151130814	0.04015077537696793	-0.0405568903708432	0.9983701988140855	0.21836609182582667	-0.9746671351084943	-0.04837587911465488	0.9750405966816683	0.21995252756640118	-0.030277391562164413
381														9.73052431507723	-0.4664022407246391	-0.2443306023767726	0.04010037493733554	-0.04059402066541645	0.9983707154239357	0.21841975869349312	-0.9746537787629508	-0.04840269161294587	0.9750306502578069	0.22000485683120147	-0.030217445764346373
382														9.743622526938651	-0.4258972746462008	-0.27819772708182283	0.04002791212744988	-0.04060246312781357	0.9983732800103731	0.21845470377286597	-0.9746462766297672	-0.04839605202121121	0.9750257989664814	0.22003653205703122	-0.030143256461247436
383														9.720238082327274	-0.426915411129083	-0.2707721272896922	0.03996031744251893	-0.04061270673307042	0.9983755711563195	0.21848723682887328	-0.9746391772353853	-0.04839216404352277	0.9750212820101812	0.22006608609630202	-0.03007353283999148
384														9.702034706323094	-0.4471008497556986	-0.24965390726648423	0.03991054758900481	-0.04056399493358759	0.998379542311527	0.21850448059383615	-0.9746381889898619	-0.04833417551775056	0.9750194562938549	0.22007944674046853	-0.03003492917996675
385														9.698177445545928	-0.4951600483069626	-0.27311006542784294	0.039828671065598065	-0.04054207760359174	0.9983837022431471	0.21853134390311374	-0.9746340801933485	-0.048295563539158495	0.9750167838006932	0.2201016802962899	-0.029958665486005454
386														9.720382028972331	-0.42456846109543994	-0.2692908384081325	0.039796707939875886	-0.04048160088324286	0.9983874308238648	0.2185335796353381	-0.9746368477741953	-0.04822955040786667	0.9750175878459387	0.22010055645252116	-0.029940748827926966
387														9.725602610941277	-0.4431212893260735	-0.2552815179350443	0.039777481276452975	-0.04044466455164618	0.9983896940036026	0.21857403656800245	-0.9746297073620377	-0.04819049767079782	0.9750093038128773	0.22013896210506323	-0.029928161347376192
388														9.716556176333434	-0.47193317187745637	-0.29315590369346656	0.03978697918773216	-0.0404162343621353	0.9983904668450619	0.21859815887049333	-0.9746255291167765	-0.04816557829274962	0.9750035083144811	0.2201626807472815	-0.02994249122276066
389														9.76795894813416	-0.4537996261384755	-0.28784996513534566	0.039801356266368104	-0.04040038697350411	0.9983905351973991	0.21854124002606573	-0.9746389879019577	-0.04815152821372623	0.9750156811288869	0.22010600172153158	-0.02996280292185588
390														9.786865392686577	-0.4667284910001552	-0.31338626820245163	0.039761259495505574	-0.04041556333618218	0.9983915186356256	0.2185479378938568	-0.9746371804650776	-0.04815771275120086	0.9750158158130946	0.22011121892194252	-0.02992006382049872
391														9.762829400803474	-0.43367144087743353	-0.30105868141571074	0.03970037099953516	-0.040426110474691176	0.9983935146696351	0.21857033468740705	-0.9746322784316546	-0.04815527628158672	0.9750132764927529	0.22013098698504296	-0.02985731454529561
392														9.734907509504636	-0.4494880911100339	-0.3126541094516149	0.03964601474410817	-0.040442076357559656	0.9983950280198712	0.21855992921557588	-0.9746344494427409	-0.048158564147283034	0.9750178207890319	0.22011844179744416	-0.02980135440668369
393														9.725777719457872	-0.4402154339969364	-0.2536325381510455	0.03956402933150116	-0.040394774294703534	0.9984001952086832	0.2185768396523962	-0.9746338040400542	-0.048094835377454945	0.9750173602303844	0.22012998485461666	-0.029731078306705072
394														9.67046113565221	-0.46763467335035347	-0.186329231332632	0.03951781625403239	-0.04033507841203697	0.9984044389164176	0.21856195071347884	-0.9746405411847534	-0.04802592195272626	0.9750225719945312	0.220111101329727	-0.029699952400353835
395														9.656273015160238	-0.47668146794744043	-0.23791296446890212	0.03950017755851137	-0.04026962876281667	0.9984077789020634	0.2184413593690188	-0.9746710939342879	-0.04795446971820673	0.9750503107480465	0.21998776249656288	-0.029703128823317437
396														9.613338375288299	-0.42960699561900834	-0.20069487270352568	0.039524558295121415	-0.04018006905884498	0.9984104222923564	0.21835173953810388	-0.9746953432086247	-0.04786967482765027	0.9750693960597159	0.21989668023380293	-0.029751014938872722
397														9.655701606796915	-0.4401733791529742	-0.23370646668205244	0.039571759743909085	-0.04006371950837101	0.9984132281825621	0.21821780961572929	-0.9747305998238098	-0.04776238408652522	0.9750974635375088	0.2197615893332363	-0.029829187995088435
398														9.679834838068519	-0.47152542749360776	-0.24633551556213495	0.03963276357008483	-0.03995271169067241	0.9984152567345707	0.21808259079418	-0.9747657128847296	-0.04766328331978294	0.9751252369025708	0.2196260135158986	-0.02991966816023095
399														9.7547809245489	-0.4891409800719733	-0.34503560409288686	0.03972601068777609	-0.039832290550311386	0.9984163623981486	0.21787984684468192	-0.9748160961537365	-0.0475599728608843	0.9751667633865366	0.21942417211671478	-0.03004690128984494
400														9.812039459627531	-0.5237565132939683	-0.3322853549781216	0.03986576408740217	-0.039714720273594906	0.9984154755648162	0.21773566445077364	-0.9748526272888948	-0.04747141765441207	0.9751932635533882	0.21928314130714568	-0.030215933852235533
401														9.849175626235953	-0.5147175446436507	-0.37980630628908907	0.03989279593103229	-0.03957661845354313	0.998419879662153	0.21763309525359129	-0.9748819539311251	-0.0473393256159529	0.9752150535564689	0.21917770682990234	-0.03027758487130533
402														9.909051997301347	-0.4699476001639152	-0.42856629075993485	0.039949031270733515	-0.03945524161025528	0.9984224350494167	0.21757594030829153	-0.9748999475525743	-0.04723137157601352	0.9752255047421049	0.2191195476708207	-0.030361797197172302
403														9.909089611928442	-0.4685662203519658	-0.42920855396775726	0.03995461414918111	-0.03934953801584794	0.9984263831981451	0.21762332024416153	-0.9748942366052415	-0.04713085952738634	0.9752147042031806	0.2191639598378859	-0.03038814594674033
404														9.917594254582308	-0.4416825572817788	-0.48289850791869043	0.03995251618623552	-0.03925303318142251	0.9984302658856289	0.21768918726339256	-0.9748840050870322	-0.04703822247993464	0.975200089314492	0.21922676846481673	-0.03040410810205496
405														9.870106917361127	-0.40943191571832654	-0.46436665649194125	0.039939318304044014	-0.039202354954170376	0.9984327850283442	0.21779372189603682	-0.9748630258007518	-0.046989101175432646	0.9751772892946596	0.21932910498301522	-0.030397337897741405
406														9.846028009686982	-0.3761334653922787	-0.4522538682711358	0.03989239932756328	-0.039202959931379344	0.9984346370236307	0.21790963113888417	-0.9748374176103436	-0.04698299568686913	0.9751533157062052	0.2194427878956508	-0.030345901004563025
407														9.795295248075407	-0.3896168915891436	-0.36589185335094493	0.039844312448453933	-0.03922531000508446	0.9984356793607263	0.21800954298418124	-0.9748143862897454	-0.04699735578067675	0.9751329498757277	0.21954108348450885	-0.030289317078955047
408														9.72959749575161	-0.3791099277197676	-0.3259458497781959	0.03975235238529723	-0.03926062744258933	0.998437956816872	0.21806028837425223	-0.9748022723293921	-0.04701319490943193	0.9751253566152269	0.21958855387808465	-0.03018949969374135
409														9.71143901319196	-0.3998067022839709	-0.3044076972184831	0.039658973702052736	-0.03929730560947549	0.9984402273429968	0.2181716649640345	-0.9747764481752257	-0.047031911397607165	0.9751042459202609	0.21969660410376574	-0.030085074930141786
410														9.679573088099762	-0.4268127499733141	-0.2437699387650745	0.03966028835254687	-0.03934453920891401	0.9984383149510194	0.21820028604445257	-0.9747677591797957	-0.047079197462561215	0.9750977882745462	0.21972670046682535	-0.030074580696164532
411														9.712719465467979	-0.4301726677315994	-0.21761781707425087	0.039658161461107344	-0.03940544070431126	0.9984359976845906	0.21824029913010387	-0.9747558909065352	-0.04713942064355116	0.9750889200812035	0.21976843355201375	-0.03005717134007435
412														9.740642183589582	-0.41434215684480935	-0.2050775481258932	0.039620563808545894	-0.039506474228826124	0.9984334977440913	0.21830068459667956	-0.9747379047941622	-0.04723164259379599	0.9750769313382993	0.21983006039096237	-0.02999537498335153
413														9.699007951991685	-0.43729436928758886	-0.17712817659251223	0.03957695162618652	-0.03961183941490508	0.9984310527413234	0.21836153404369474	-0.9747196605931006	-0.04732677575491456	0.9750650774948633	0.21989198582813202	-0.029926730835454884
414														9.670357757745899	-0.41990199602117584	-0.18380124250896046	0.0395695035713205	-0.03969616720548616	0.9984279987541984	0.21845524814653391	-0.9746946007460439	-0.04741033467237636	0.9750443881918176	0.2199878396314317	-0.0298963454278266
415														9.69896523168031	-0.4384874716406357	-0.1765167912405208	0.03958615789565473	-0.03981693064126393	0.9984225298626677	0.21850434992520526	-0.974677600485417	-0.04753340063317264	0.9750327097932787	0.2200413305411032	-0.029883568844387087
416														9.665079802668147	-0.4021648139851787	-0.19737026829104315	0.039592260766019904	-0.03997345812033215	0.9984160332914019	0.21852512432450094	-0.9746653820422627	-0.04768818603566041	0.9750278062324157	0.22006707089956098	-0.029854001060003854
417														9.67025057627431	-0.4224972719443392	-0.18349282813061926	0.03963626159602712	-0.0400766728700403	0.9984101497172188	0.21856125101788304	-0.9746518166524346	-0.0477997473801591	0.9750179210251416	0.22010837464253122	-0.029872346610768485
418														9.661165774652689	-0.4528442809473684	-0.2218408947822573	0.03973956446043081	-0.04019760349796904	0.9984011817348353	0.21857278519559797	-0.9746422962788825	-0.047940920684383936	0.9750111304945881	0.22012847834218874	-0.029945758204097617
419														9.651377547711943	-0.44920509184412905	-0.255150708102538	0.039799751162552355	-0.04033174259542578	0.99839337455064	0.21859164183562763	-0.974630934435259	-0.04808571265415469	0.9750044481575472	0.22015424633894654	-0.029973886833823127
420														9.674741171911048	-0.4486230632766504	-0.2624494574519557	0.03990632070273914	-0.040422399298857686	0.9983854542224128	0.21860137679033412	-0.9746232044155255	-0.04819800286508592	0.974997909553318	0.22017183982002825	-0.030057234019838286
421														9.722205400549068	-0.4805460096750285	-0.2817510319801266	0.039992833620156376	-0.04050321393307156	0.9983787171810716	0.218542219400702	-0.9746317122848255	-0.04829413782400917	0.9750076264309144	0.2201193200740017	-0.030126621644540275
422														9.750105008811524	-0.4648771748707411	-0.2703038413257403	0.040086472503747195	-0.04056023691581416	0.9983726468125717	0.21856423150916982	-0.9746229584112673	-0.048371124056360265	0.9749988468849659	0.22014757804482613	-0.030204179412539278
423														9.726641805569734	-0.4668794598901354	-0.26424548752109017	0.04016916580774477	-0.0406510558126216	0.9983656293060319	0.2185358436678718	-0.9746240572589631	-0.0484771290862943	0.9750018067422652	0.2201259609255502	-0.03026612257825123
424														9.773435570307191	-0.46440099451531347	-0.27850194107601456	0.040270889313021085	-0.04068821467829502	0.9983600175589127	0.21847803163596513	-0.9746341868353426	-0.04853402460424687	0.975010566694748	0.22007423983307178	-0.03035990440503694
425														9.7688625133276	-0.479416523099637	-0.29829929529723354	0.04035516441620057	-0.04074461935469055	0.9983543142084289	0.2183999570944683	-0.974648137068787	-0.04860522245064759	0.9750245737652335	0.2200020111316801	-0.030433462700459657
426														9.83907586378919	-0.4754462894118996	-0.3191275719207224	0.04040535459713451	-0.04082123497437029	0.9983491544019293	0.21835591184288328	-0.9746537893098915	-0.0486896985730325	0.9750323600184473	0.21996276448307567	-0.030467673981125987
427														9.792216645358604	-0.4787213743171173	-0.3058763476757017	0.040427054936857165	-0.040878713572754466	0.9983459240192094	0.21831230197992108	-0.9746605826963415	-0.048749229145242934	0.9750412258122012	0.21992198460968915	-0.03047833085940821
428														9.824073419958609	-0.4519692490436327	-0.3664649195819414	0.040509985894347345	-0.040925562929939735	0.9983406429379238	0.21828508396758992	-0.9746635183833616	-0.048812375990404624	0.9750438775563395	0.21990025973480332	-0.030550165440862143
429														9.842916347136319	-0.4655818473609576	-0.39261939864067413	0.04054966761776835	-0.04099705283635778	0.9983360987737652	0.21824237752254738	-0.9746692129870296	-0.04888956850443592	0.9750517879114903	0.21986169951580226	-0.03057521834147159
430														9.832491321713293	-0.4272737091802811	-0.420130209042446	0.04050361712230732	-0.041111330464653636	0.9983332687571992	0.21819197319809275	-0.9746754841166412	-0.04898942226554853	0.9750649823637042	0.21981255462192212	-0.03050772031227822
431														9.82401427785058	-0.4533137937653144	-0.36638959227953294	0.04051254885787242	-0.04118656888521641	0.9983298051888974	0.2181080540276564	-0.9746906050094442	-0.04906221840268296	0.9750833862564305	0.219731406607674	-0.030504078365123644
432														9.842207757530982	-0.43308711220788837	-0.3868035986604499	0.040499141985585185	-0.04132688124326467	0.9983245506272679	0.21799911749297868	-0.9747083911416112	-0.04919285527812198	0.9751083038671723	0.21962613943890394	-0.030465629887616752
433														9.79989491891374	-0.4221409593836897	-0.3538759896374584	0.04045810577031672	-0.041460657352685615	0.9983206677062046	0.21784002738550157	-0.9747380660314405	-0.04930948284024429	0.9751455604914392	0.21946916986486192	-0.03040426504072402
434														9.810277105095064	-0.46182895764527365	-0.32541341445249783	0.040394484435799516	-0.04160596434794123	0.9983171987689305	0.21777429665928894	-0.9747463790796289	-0.04943533337305117	0.9751628793907807	0.2194047406092916	-0.03031366781587952
435														9.767958172812579	-0.45099933974797224	-0.29224401183301474	0.04036644884154478	-0.0417694044924793	0.998311507825221	0.21774122915910343	-0.9747460254793558	-0.04958772969678785	0.9751714243825059	0.21937525535151528	-0.03025211409557521
436														9.810222040144463	-0.4639243300130338	-0.3240902510102203	0.040343018804056885	-0.041925393225456214	0.9983059161583017	0.21774333330457904	-0.9747380545931633	-0.049734954803900125	0.9751719241421926	0.21938091605886295	-0.03019490079446563
437														9.787409646844553	-0.5008163739184508	-0.3216396856167216	0.04027489305515358	-0.04213084844873072	0.9983000173286518	0.21780085396212007	-0.9747156226523966	-0.04992236944218817	0.9751618947655654	0.21944121437492356	-0.03008043269123034
438														9.744429964865654	-0.45636139018424254	-0.28298614984804	0.04019189762654313	-0.04234612706253965	0.9982942536587	0.2178966037528478	-0.974684220454618	-0.050117267181560454	0.9751439285757523	0.21953923549009807	-0.029947331137704924
439														9.730665628788186	-0.4643360203128538	-0.2426330381747988	0.040211432928679514	-0.04259915944030275	0.9982827015814718	0.218015595030789	-0.9746444663963114	-0.05037225869881316	0.9751165268752208	0.21966673789636154	-0.029904569496614852
440														9.698066095461906	-0.4973477816182229	-0.27308955003383867	0.04017021513325253	-0.04286578062004244	0.9982729479796504	0.21810293769454453	-0.9746117685816733	-0.05062617021967826	0.9750986936639578	0.21975992672445221	-0.029801211735524358
441														9.684274160567686	-0.505535020355881	-0.23268260361339954	0.04013861211641512	-0.04311570435147517	0.9982634561355255	0.2181373743680452	-0.9745916644387644	-0.050864265553473925	0.9750922918991736	0.21980019027461098	-0.029713610249539224
442														9.65621069063407	-0.5236163942750209	-0.24440400765538675	0.04017465350609051	-0.04333506160808488	0.9982525079613319	0.21829191956627564	-0.9745451972482135	-0.05109105961429214	0.9750562214907078	0.2199630217919912	-0.029692321842519798
443														9.684097253972103	-0.5091840939080194	-0.2320875296035411	0.04019965718927543	-0.043525213600803	0.9982432285484685	0.21843384594751195	-0.974503128616161	-0.051286521249673964	0.9750234061326138	0.2201118081755704	-0.029667311897735638
444														9.702896548609719	-0.5239616423496626	-0.2575537916772753	0.04020925307211376	-0.0436945078821155	0.9982354461490153	0.21859833885298757	-0.9744571552776228	-0.05145890378699017	0.9749861446287831	0.22028173439753015	-0.029630647524460874
445														9.702239506770942	-0.49101007165839533	-0.2522954409835068	0.04024039464775808	-0.043832509437421494	0.9982281411355876	0.21874442332297084	-0.9744166505756411	-0.05160492559871949	0.9749520951840112	0.220433441649326	-0.02962279357082309
446														9.71189627779638	-0.49665804996372603	-0.21958736306896498	0.040301280686620033	-0.04394304783401781	0.9982208249290712	0.2189253744098703	-0.9743692854970303	-0.05173176895781413	0.9749089635522468	0.2206207243825108	-0.029648081867463982
447														9.73070121064567	-0.5110520425301653	-0.2455514799167567	0.0403652177713017	-0.04408544742521715	0.9982119627211422	0.21906729646034567	-0.9743290150432786	-0.05188920953676847	0.9748744374614772	0.22077011521062823	-0.029671323092432866
448														9.670060508671684	-0.5211543005383786	-0.19295355942779646	0.040455234796138384	-0.04423293619413675	0.9982017938940179	0.21922177836435758	-0.9742852763348517	-0.052057777592694504	0.974835978956644	0.22093358203941607	-0.029718116677791062
449														9.627726718938874	-0.5485754288268561	-0.2570586935154411	0.04050678572431293	-0.04437934682749381	0.9981932046880748	0.21931282811102124	-0.9742563788412588	-0.05221486103651421	0.9748133584108445	0.22103163090897612	-0.029731034315810423
450														9.619095140642113	-0.5749588491212804	-0.204045119118169	0.040630968810368984	-0.044462605396689475	0.9981844524409648	0.21951346687875126	-0.9742050274843888	-0.05232974568075155	0.9747630287574524	0.22124113800439338	-0.029822753429533666
451														9.613892574201012	-0.5561664136248442	-0.21889479863373038	0.04075978799618202	-0.04451685940975113	0.9981767823941805	0.21971338122826878	-0.9741552490681039	-0.052417371379173724	0.9747126088195166	0.22144931686811148	-0.029925411724803952
452														9.608691480835525	-0.5371352393033568	-0.23421253064053046	0.040967283160229184	-0.04452870203317316	0.9981677596505061	0.21993253237676763	-0.9741023310360609	-0.05248170988501122	0.9746544838622617	0.22167959618637278	-0.03011301582098741
453														9.70231501523706	-0.5316899522755246	-0.26355429230350325	0.041261963829867354	-0.04448458050615836	0.9981575889798634	0.2201206696802239	-0.9740583133873533	-0.05250993144648777	0.9745995798893167	0.221881779824699	-0.03039958324371128
454														9.754278746597654	-0.5476786902314278	-0.26558969285205747	0.04144463603226367	-0.04435165424950645	0.9981559361690366	0.22024845896019624	-0.9740340114453169	-0.05242481162010851	0.9745629576737527	0.22201503397985764	-0.030600101586607642
455														9.77712783879671	-0.5110548887386349	-0.26929846652686235	0.04160545217501854	-0.044243155537461096	0.9981540610233471	0.22024483240436504	-0.9740386094539266	-0.05235457088195411	0.9745569250425984	0.22201650947879625	-0.03078099040586857
456														9.77316170098333	-0.5582889137278991	-0.2950165929533767	0.041732456719774935	-0.04399954092592452	0.9981595275578148	0.22023331619738584	-0.9740524707006253	-0.05214470978641764	0.9745540972633764	0.2220041096924004	-0.030959437767024756
457														9.792095237150225	-0.5689806221526009	-0.32232615243680485	0.04182542931862243	-0.0437083644000551	0.9981684288454453	0.22020370635837644	-0.9740732844710736	-0.051880287063286304	0.9745568024329556	0.22197030288127978	-0.031116289471048608
458														9.768828688692167	-0.5670243701746791	-0.3169986541798059	0.04187784489814145	-0.043344449524849726	0.998182100020871	0.22011386754711737	-0.9741119750115153	-0.05153392525915962	0.9745748464946848	0.22187185228089285	-0.031252995781339055
459														9.731972513105818	-0.5702914518480308	-0.27205921983607007	0.04190915490517738	-0.042893686387489124	0.9982002576653772	0.21995487728818724	-0.9741709626224848	-0.051095866176429125	0.9746093959593618	0.22170039975442712	-0.031392006250873294
460														9.722426032677399	-0.5607968476988004	-0.3066715330304281	0.042011866494549854	-0.04237004448114233	0.9982183039818043	0.21982725146667847	-0.974225469973671	-0.05060348967398712	0.974633768441382	0.22156153318039132	-0.031614939957313515
461														9.755208978005964	-0.5246606076827457	-0.2776234708406991	0.04206728877611865	-0.04185394965784675	0.9982377422803977	0.21975975773390657	-0.9742662097912673	-0.05010989263302798	0.9746465985657377	0.2214804717283159	-0.031786924155088325
462														9.749541695390349	-0.46593352633807744	-0.2882147316909276	0.0421218881871136	-0.04133948422703515	0.9982568775517628	0.21964430489675935	-0.9743175158091787	-0.04961610337229752	0.9746702651984269	0.22135136193679453	-0.03196011118182274
463														9.711278556154973	-0.4383816847984157	-0.3297712540396137	0.042170328567774695	-0.040859017842454035	0.9982746135455098	0.21947241823834485	-0.9743797595718413	-0.04915223056316868	0.974706889798723	0.22116650921346992	-0.03212248715820676
464														9.692588335114822	-0.42026723238992075	-0.3059003709433322	0.04225977809754711	-0.040374776102527016	0.9982905331664808	0.21926736117404497	-0.9744490013002092	-0.04869258864340095	0.9747491654158605	0.22095026888350996	-0.03232712794832926
465														9.668619191457978	-0.3829230889781482	-0.2959016193905071	0.04230647040399532	-0.03992351931586938	0.9983067039579525	0.21899794736111391	-0.9745314271346384	-0.04825346182963136	0.9748077049416333	0.22066855265841645	-0.032485816198227824
