// Start Time: 1748433505.005953
// Update Rate: 100Hz 
// Filter Profile: 46.1 human
// Option Flags: AHS Disabled ICC Disabled 
// Firmware Version: 4.0.2 
PacketCounter	SampleTimeFine	Year	Month	Day	Second	UTC_Nano	UTC_Year	UTC_Month	UTC_Day	UTC_Hour	UTC_Minute	UTC_Second	UTC_Valid	Acc_X	Acc_Y	Acc_Z	Mat[1][1]	Mat[2][1]	Mat[3][1]	Mat[1][2]	Mat[2][2]	Mat[3][2]	Mat[1][3]	Mat[2][3]	Mat[3][3]
0														8.648431386337199	4.019041001764695	-0.8736285425117124	0.3232902460545538	0.3331140113857102	0.8857304738036887	-0.4681387403413103	-0.7571364363113485	0.45562104495007943	0.8223925684231571	-0.5619425880179149	-0.08883125111181656
1														8.698162760565763	4.128450152379082	-0.9008838902637246	0.3230084707376922	0.333033563484527	0.885863518508633	-0.4678410582480526	-0.7574800525645133	0.4553555909223082	0.8226726396623629	-0.5615270390280951	-0.08886569862044902
2														8.676143253925273	4.286215240339501	-0.8793247620431435	0.3227012851804762	0.3328877950163905	0.8860302457997671	-0.4674664588449668	-0.7579181236385716	0.45501123910859054	0.8230060694781158	-0.5610221330654555	-0.08896727383072078
3														8.741434409429722	4.374594455790156	-0.8301207788353225	0.32236700400777096	0.3327483967139786	0.8862042762316887	-0.4671732127676975	-0.7583063568346531	0.45466543573980195	0.8233035309042237	-0.5605800332409575	-0.08900181083666497
4														8.737008907569615	4.376952231141184	-0.7960908839438694	0.3219320235277432	0.3326553201856657	0.8863973207199494	-0.4668860225497211	-0.7587012860714661	0.45430144228387004	0.8236365789442779	-0.5601007020756852	-0.08893812095659892
5														8.725445800407543	4.374349055369891	-0.8153201756531249	0.321465690364762	0.3325996896123263	0.8865874217402878	-0.46657418368906795	-0.7591040448700325	0.4539488739680223	0.8239953525555752	-0.5595877907279069	-0.08884347716671981
6														8.716034017357392	4.265256345160488	-0.869343099962418	0.32105827575047513	0.33243700433473045	0.8867960429101402	-0.4663864532857285	-0.7594562395972875	0.4535525287420494	0.8242604320017382	-0.5592064540808689	-0.08878559540043751
7														8.764403817461949	4.224202226602486	-0.8714574810611743	0.3207265917471032	0.33226492199108837	0.8869805380957031	-0.46617591877698283	-0.7598019488039733	0.45318981822865384	0.8245086209972113	-0.5588389930990324	-0.08879478415614722
8														8.83277384434973	4.216932161827031	-0.7695595701445502	0.3205056202413863	0.3320565525503931	0.8871384296162764	-0.4659368855792718	-0.7601467593984301	0.45285728748994936	0.8247296320918592	-0.5584938227808917	-0.08891391266395371
9														8.932998481633279	4.191588005706237	-0.7476525118882109	0.3201746029469903	0.3319247423474733	0.887307268676021	-0.4656543757746722	-0.7605195269669904	0.4525218794973406	0.8250177125066089	-0.5580645254085487	-0.08893682887810744
10														8.927272339551266	4.183544608392379	-0.8013689555029816	0.3197956719421922	0.3318993440605413	0.8874534092667764	-0.4651499620938648	-0.7610039456049194	0.4522261685681418	0.8254491147073321	-0.557418891127604	-0.08898280082664534
11														8.876071985107204	4.19484925736606	-0.795921222796404	0.3193778358934281	0.3319413570219511	0.8875881553054076	-0.4644144686618627	-0.7616222215362433	0.4519411388219905	0.8260248175675781	-0.5565487644049023	-0.08908688793434338
12														8.838350920835406	4.1762378765893615	-0.8009414670690349	0.31897902058441846	0.33200713515291586	0.8877069598885428	-0.4635904319947816	-0.762279879183998	0.45167831158261473	0.8266415763738824	-0.55560835846735	-0.0892359580624304
13														8.79815106871856	4.294056849590337	-0.7414996116679796	0.31852754694398616	0.33221605763642026	0.8877909060619861	-0.4625773087372198	-0.763007690728317	0.4514880921252217	0.8273828831195859	-0.5544833225065985	-0.08936335816634194
14														8.691348246353732	4.38672115258154	-0.8147693773536667	0.31801254141060736	0.33256333967916535	0.8878455094254892	-0.46138105655510825	-0.7638066233963792	0.4513612330583048	0.8282484797194972	-0.5531736320155376	-0.08946166041986864
15														8.58469139544367	4.450233538227292	-0.9185353470921093	0.31738137713897935	0.33308822973051994	0.8878745928679075	-0.4598614129213236	-0.7647664035302603	0.4512868588130992	0.8293350000761863	-0.5515293095080067	-0.08954819039071915
16														8.491089658868875	4.5424056391453655	-0.9718001030817062	0.3167041493578564	0.33359386337759134	0.8879265826048509	-0.45835024769674004	-0.765740615606797	0.45117220664227553	0.8304297274398679	-0.5498694789920023	-0.08961040038528045
17														8.475807476628113	4.6367302454979	-1.0466343339121207	0.3160253225005059	0.3340666187268255	0.8879907036624184	-0.4569237973234289	-0.766670892030719	0.45103922972659455	0.8314737752797674	-0.5482839023400627	-0.08964442791809929
18														8.466338644530136	4.78386730588119	-1.0941399110759227	0.3153389615660315	0.3345147365042539	0.888066005643695	-0.4557452486852024	-0.7674485151819098	0.45090913147323325	0.8323806867169136	-0.5469210798703704	-0.08955291605586002
19														8.51031646312528	4.899549342315466	-1.087594634561925	0.31454350495584116	0.3350737338357159	0.8881373634655207	-0.45496670743496026	-0.7679405395863885	0.45085765246423165	0.8331072431661402	-0.5458872782481365	-0.0891033154880086
20														8.585394976639629	4.813093928134538	-1.016319163139979	0.3137856441584817	0.33556959207668796	0.8882182267852491	-0.4545894647916057	-0.768187647078983	0.4508172106028533	0.8335988171899767	-0.5452346171592016	-0.08849985441078806
21														8.711042023190402	4.790209442402979	-0.9454055603193342	0.31303152536152135	0.3361311694860689	0.8882719746956824	-0.45434815287592667	-0.768310506269642	0.4508511083871484	0.8340138009098368	-0.5447153411237967	-0.08778483374884821
22														8.755550874553375	4.575708509628475	-0.9413792965256242	0.3121983019384551	0.3367788359063957	0.8883198950559862	-0.4543606130525244	-0.7682497220644566	0.4509421225106602	0.8343192755613881	-0.5444009370247429	-0.08682722034766804
23														8.700221325178566	4.431252583729676	-0.9862996458144005	0.31134522634538475	0.3375594968070025	0.8883229908920207	-0.454313549954219	-0.7681665165281921	0.45113124610576344	0.8346636138948056	-0.5440347314283775	-0.08580712464426654
24														8.61777778378469	4.318280288823371	-1.0429101080964707	0.310603069486587	0.3383657702603474	0.8882760487267637	-0.4540770048946695	-0.7681565723432431	0.45138625808919586	0.8350687437878371	-0.5435476850120895	-0.08494767369741046
25														8.651922173369215	4.236630882389589	-1.0304330688562247	0.3099864175333342	0.33917423689054843	0.8881831218699012	-0.4535590505554929	-0.7682862574875458	0.45168618997593973	0.8355792054641198	-0.5428600773546486	-0.08432275974169606
26														8.703023094390907	4.25530258773293	-0.9993313972750224	0.3094108529282948	0.3399801773484071	0.8880756741969293	-0.45283629357290683	-0.7685352754681012	0.4519876343267828	0.8361843189831635	-0.54200277616569	-0.08383779168935507
27														8.708084765259223	4.2818265999759495	-0.997314077500852	0.3087395235798203	0.3409035130480492	0.8879553487485753	-0.45189752753322265	-0.7688939890534274	0.4523169886339311	0.8369399806372412	-0.5409129582372806	-0.08333450918993962
28														8.600819467930982	4.360382699042186	-1.0100613772636553	0.30810674024600404	0.3418186292555592	0.8878233277566162	-0.4509751409727791	-0.7692310424567417	0.45266436301690055	0.8376703760069132	-0.5398551917086329	-0.08285356447173425
29														8.500949381579154	4.402726618425906	-1.087064894021407	0.3076314292783468	0.34263572936933856	0.8876731722203293	-0.45012854289662757	-0.769515238634999	0.4530238320202137	0.8383001840569522	-0.5389314005214961	-0.08249695110740934
30														8.543517033043225	4.475444644413034	-1.052690104400769	0.3073685466037743	0.34322458095318326	0.8875367392892503	-0.4495415273339867	-0.7696778894997611	0.4533303007933832	0.8387115068728396	-0.5383240970314301	-0.08228107190834044
31														8.653673371830909	4.456424268897931	-1.00571707034069	0.30731426261793926	0.34358258505665207	0.8874170109015156	-0.4493434436758208	-0.7696398732088106	0.45359115422666735	0.838837537081613	-0.5381500467461786	-0.08213472816013329
32														8.627928981996542	4.412059281510719	-1.0179477435094348	0.30725750231851995	0.3437963698298541	0.887353865918664	-0.44935219030511914	-0.7695435824938563	0.45374583602553625	0.8388536441698137	-0.5381512154909018	-0.08196238728031452
33														8.569948550428379	4.3737510192657405	-1.0384093703520303	0.30728526342639595	0.34378105914115414	0.8873501846828885	-0.4496357350051003	-0.7693603350189206	0.4537756942653465	0.8386915241537817	-0.5384229362456249	-0.08183684400834462
34														8.539484841570312	4.286418180366684	-0.9912299335501715	0.3075482301259464	0.34346946079096446	0.8873797471490782	-0.4502539445762936	-0.7690360450998384	0.4537124053083485	0.8382633664546518	-0.5390846787297551	-0.08186719501088846
35														8.568968616811294	4.16048761431505	-0.9257329134251149	0.3079106528996694	0.34297359867947075	0.887445852117048	-0.4511017983460116	-0.768624339438096	0.4535678475733763	0.8376742787980865	-0.5399867919053248	-0.08195161504144866
36														8.616817000374319	4.08647705551418	-0.8141952462278453	0.30831062618875393	0.3423732555259001	0.8875387944646114	-0.4517894566793497	-0.7683554738586074	0.45333889379237413	0.8371564039129586	-0.5407498679538555	-0.08221153018531735
37														8.65078193310973	4.059332318280777	-0.7521695370346456	0.3087258964103529	0.3417132243493443	0.887648800590863	-0.45227070308442047	-0.7682443146007512	0.45304733109813716	0.8367434087085163	-0.5413249905448628	-0.08263003445755185
38														8.66566070088668	4.02598304973303	-0.7663481319941227	0.30914977581564207	0.34097917132539635	0.8877835439088653	-0.45249452029985826	-0.7683339585013443	0.45267166612485854	0.8364658541815913	-0.5416605329317434	-0.08323906446110696
39														8.672829098648448	4.0456314902276125	-0.7757798800991018	0.309575123587629	0.3401966208281823	0.8879355280834245	-0.45257547551219074	-0.7685399030002332	0.4522409274505196	0.8362647199425659	-0.5418603848534026	-0.08395618801436655
40														8.679729671907022	4.0823976660678785	-0.843063968869985	0.3099266665274874	0.3394392131540599	0.888102742901131	-0.4524537643126435	-0.7688883464353908	0.4517701870145585	0.8362003662606698	-0.5418410572199223	-0.08471845239567638
41														8.762398615368003	4.228369606334154	-0.8986898930151063	0.3102777147732652	0.3386735272895503	0.8882724703762547	-0.45221944862830515	-0.7693137842410827	0.45128025844144387	0.8361969325448352	-0.5417162940967523	-0.08554616714201224
42														8.78654248594628	4.376932433292735	-0.8594667019601655	0.3106371438480049	0.33787148834667124	0.8884522622090386	-0.4521056359696173	-0.769676495748904	0.4507755381741499	0.8361250258104113	-0.541701900729628	-0.0863365042114077
43														8.807378326959359	4.40718510025296	-0.7617162892585818	0.3108878657624007	0.33708402316758407	0.8886636575481497	-0.4521363877899352	-0.7699734545283804	0.45023723319812337	0.8360152042624396	-0.5417704685997453	-0.08696745135534079
44														8.802975290826122	4.4082643236514425	-0.7338688452552508	0.3110895800435556	0.3362851612501517	0.8888956988934553	-0.4523060983021708	-0.7702016863768377	0.4496760564461295	0.8358483514531758	-0.5419424809195484	-0.08749788996183622
45														8.761595947803622	4.315922665635747	-0.7124251755148286	0.3112496650161119	0.3354892628878221	0.8891403716592472	-0.452587311505256	-0.7703691222411562	0.44910593512203234	0.8356365067969462	-0.5421977222235229	-0.08793894770703659
46														8.791786883813716	4.2200803167996375	-0.7650504247563761	0.3113103764462801	0.3347850963310443	0.8893844999725868	-0.4527199931669524	-0.7706185408411443	0.4485439468979374	0.8355420140865386	-0.5422785297118802	-0.0883376415223518
47														8.873418209689387	4.16946440650981	-0.7623595661357292	0.31125531423427055	0.3341321957032695	0.8896492596273194	-0.452647137716416	-0.7710128282582711	0.4479394907555237	0.835601997411484	-0.5421207378948845	-0.08873785813419549
48														8.855861914639517	4.2001945735381545	-0.7224971839247551	0.31101837838599083	0.3335722373192481	0.88994220643589	-0.4525322321826929	-0.7714463500554809	0.44730873881674404	0.8357524436948409	-0.5418487717766906	-0.08898180365779279
49														8.85099152991119	4.23542989102847	-0.8052153651405299	0.3106279344979411	0.33312670242917375	0.8902454079849036	-0.45224966003376565	-0.7719802201397497	0.4466730176676522	0.8360505554743003	-0.5413622999818588	-0.08914218333351304
50														8.840225482902277	4.259681685411187	-0.7969933597292559	0.31016844792513126	0.3327602335740327	0.8905426215872377	-0.45178441215102405	-0.7726139490921906	0.4460476775026673	0.8364725810503705	-0.5406831906208339	-0.08930458292274929
51														8.828492265846354	4.33143151786042	-0.8157109646066225	0.3095919273034831	0.33251952992138306	0.8908330936653495	-0.45118024204059176	-0.773310794886402	0.4454512360566016	0.8370120833899042	-0.5398343975081836	-0.08938453740031621
52														8.797560322544827	4.393158464775038	-0.7640907414378079	0.30896764487454853	0.3323521335552118	0.8911122565322362	-0.4505009274122986	-0.7740329530085871	0.44488414453368175	0.8376084460064466	-0.5389017043748383	-0.08942619415227615
53														8.80582827934753	4.441372481583169	-0.7375741151198536	0.3083316112127252	0.3322383918244667	0.8913749315102244	-0.44982118643761837	-0.774730390915146	0.4443576505747579	0.8382079203627335	-0.5379688396090961	-0.08942600209572349
54														8.853856688455117	4.44578981134816	-0.7653940578518547	0.30760957986393817	0.3321716874850447	0.8916492115228215	-0.4492159408323924	-0.7753821752722014	0.44383276216635664	0.8387975827802557	-0.5370702489465293	-0.08929816805799051
55														8.86312416627977	4.434286113446931	-0.7959042983630916	0.30671167161905877	0.33223053064553665	0.8919365588424032	-0.4486830486669704	-0.775979321172416	0.4433278865035558	0.8394113844424292	-0.5361706515837861	-0.08893570738832945
56														8.795165580933698	4.360854948013445	-0.8640756683128531	0.3058125263411005	0.3322485316836652	0.8922385398126014	-0.44821570190897864	-0.7765534797691613	0.4427949611509251	0.839988918554951	-0.5353275691130209	-0.08856077265035839
57														8.746099278547868	4.340338303990536	-0.885031782573382	0.30487883855769105	0.33230241232462226	0.8925379546904156	-0.44775969518467135	-0.7771117917690067	0.442276518098909	0.8405713230701152	-0.5344832736922654	-0.08813331365241717
58														8.7890292881757	4.274058915149628	-0.8782528263188979	0.3039636723534724	0.3323424417212113	0.89283514005676	-0.4472664934874242	-0.7776930103790927	0.44175362523806017	0.8411651262937943	-0.5336122965583606	-0.08774478485276138
59														8.746709147283045	4.2299607084815305	-0.874930589149082	0.3029839951789044	0.3324651758629624	0.893122391111005	-0.446688559650264	-0.7783053493569463	0.44125968979721486	0.8418254150018293	-0.5326421782029388	-0.087305673677182
60														8.703166215362064	4.263408614410526	-0.8695138751558278	0.30203304099462525	0.33262163734185174	0.8933861922592967	-0.4460499451708973	-0.7789282943227145	0.44080625984274163	0.842505482807429	-0.5316329172234662	-0.08689621835205896
61														8.666628907381595	4.2604327740475	-0.9273367777935996	0.3011226045347252	0.33282684780374966	0.8936170692300158	-0.4453569775193494	-0.7795466749924598	0.44041360569699683	0.8431976871487807	-0.5305970890319883	-0.08651236615494395
62														8.623084120917452	4.264836123751827	-0.9524293951495074	0.30026525679424176	0.33307098760100956	0.8938145740480944	-0.44461743515354485	-0.7801565160654266	0.44008084120777086	0.8438934245032198	-0.529546530211599	-0.08616472840486733
63														8.643453849829525	4.31527883627052	-0.9025584716675374	0.29954928099101263	0.33331467267607406	0.8939639574594773	-0.44387894107565085	-0.7807202153946797	0.4398265919014503	0.844536389936708	-0.5285615141617176	-0.08591281522419186
64														8.691138151261079	4.274744298726592	-0.9003719710180402	0.29885832857923267	0.33349279108729796	0.8941287702180435	-0.44327854135382455	-0.7812203855422645	0.4395439045060471	0.8450963461133013	-0.5277094536826105	-0.08564402068999166
65														8.693503063679596	4.195285758182956	-0.8990990264412333	0.2982244195851719	0.33371681759593147	0.8942568317976276	-0.4427102705199902	-0.7816590871433978	0.4393366452531209	0.845618005921825	-0.5269175999525858	-0.08536996498185012
66														8.65768185530676	4.086482227035867	-0.9895311315139992	0.2976169533469934	0.3338521396470145	0.8944086861908066	-0.44223790987810047	-0.7820724080149196	0.4390767355353675	0.8460790625864131	-0.5262181082734195	-0.08511593492431968
67														8.627358548160657	4.077742474852594	-1.082743292120557	0.29708420608910296	0.3339435149008636	0.8945516772931927	-0.44162427549856564	-0.7825712372727244	0.4388054898059102	0.8465866605273054	-0.5254179169471617	-0.08501199190779596
68														8.628136666162629	4.168753815451741	-1.1381117951592366	0.29663946185837003	0.33400078452118787	0.8946778781257574	-0.44082254780341457	-0.7831752997501646	0.4385338427183767	0.8471602628880104	-0.5244806248094116	-0.0850856226576871
69														8.634668967881186	4.203220560821962	-1.0557060017617053	0.29630031826009195	0.3340241506205647	0.894781530990207	-0.4399729427182464	-0.7837919565682689	0.4382852706796473	0.8477204321442389	-0.5235437284707891	-0.08527621769338561
70														8.595199292392612	4.292437119481183	-1.0320997852849638	0.29614149870568424	0.33393279491211025	0.8948682032715976	-0.4391447966683427	-0.7843955611845408	0.43803590167143686	0.8482051994084159	-0.522697323578546	-0.08564722774470618
71														8.640779429002974	4.312886678009327	-0.9771341644344225	0.2960481170006435	0.33386334052605243	0.8949250148884867	-0.43827055391958664	-0.7849958270932058	0.43783612575171593	0.8486898337952399	-0.5218398425753239	-0.0860740652785098
72														8.634715310183507	4.2711632473421135	-0.9198365691566504	0.29599650857032794	0.33371363472732796	0.8949979200597356	-0.43752086466009565	-0.7855450865831224	0.4376007426092859	0.8490945529805616	-0.5211085558136536	-0.08651192493841625
73														8.602829800940526	4.276246221243342	-0.9324612217535022	0.29600336959124884	0.33347467455646385	0.8950847147729022	-0.4368644579925629	-0.7860623549510378	0.43732758828102014	0.8494300739516416	-0.5204811385230879	-0.08699387281998361
74														8.545558206862156	4.234591886804257	-0.9587746202829642	0.29608009634736737	0.3331515166878839	0.895179671057993	-0.43629899606572353	-0.7865434923258272	0.4370269107411275	0.849693922879866	-0.5199609616196722	-0.08752620072052886
75														8.500540357170946	4.2231396983601925	-0.9357934982701364	0.29623185915070294	0.3327813015519185	0.8952671617799514	-0.4356557881241417	-0.7870721965427596	0.43671660342067264	0.8499710112104127	-0.5193976923001942	-0.08817775986711052
76														8.521413616125095	4.182595983498682	-0.9841215964399833	0.2964968710351639	0.33243808093654786	0.8953069461417036	-0.43478161117321407	-0.7876943748396243	0.4364659464742217	0.8503261468707064	-0.5186737839810678	-0.08901095302702455
77														8.52062809413752	4.257939307553884	-0.991222820655538	0.2968796132523851	0.3321596662294153	0.8952834474988791	-0.4338738307432446	-0.7882696253724248	0.4363307194220914	0.8506562138909568	-0.5179777541995225	-0.08990579471381394
78														8.649851905824756	4.36705376459495	-1.0511918303205179	0.2974046872466046	0.3319021415361956	0.8952046807559917	-0.43310697345822885	-0.7887060736731998	0.4363038836554848	0.8508635622387428	-0.5174782099709058	-0.09081575116522911
79														8.842544669940805	4.586478070041428	-1.1216585670348131	0.2980356041931958	0.3317614702176177	0.8950469850863934	-0.4326686126128676	-0.7888541798680121	0.4364710237397474	0.8508658239069506	-0.517342642533758	-0.09156385707982906
80														9.015936264085862	4.674705771878416	-1.092602323520627	0.29860404574263344	0.33160770062224987	0.8949144968957402	-0.43265236954886166	-0.7887704208163633	0.4366384664329665	0.8506747621681784	-0.5175688902293123	-0.09205918138301966
81														9.053939801542194	4.629461561622586	-1.0045300017452001	0.2989337891384372	0.3314503589561362	0.8948626985516742	-0.4331056045662685	-0.7884732668197783	0.4367258210866789	0.8503282454467941	-0.5181221545720616	-0.09214829318539425
82														8.962737291265753	4.582270167967764	-0.9765811958332862	0.2992429626227861	0.33110893197242625	0.8948857605799845	-0.4339270094361684	-0.7880467738090553	0.4366802408753151	0.8498005647224067	-0.5189885908738447	-0.09214034263155163
83														8.878229754878816	4.541445557386873	-0.8938550135126819	0.2995392808144042	0.33071275862933686	0.8949331207017447	-0.4349778618434587	-0.7875089751907061	0.43660494007761397	0.8491586889123154	-0.5200564250866033	-0.09203714343057179
84														8.84812118043832	4.363319462946928	-0.9315938914122832	0.2998375954768086	0.3302881679158092	0.8949900236726128	-0.43611639998839996	-0.7869284991010078	0.436515776305729	0.848469152061431	-0.521203667904835	-0.09190666223241328
85														8.765472063201269	4.216673847289965	-1.0234469971339486	0.3001704207245274	0.329950596883942	0.8950029732565086	-0.43705293445309434	-0.7864172473374174	0.4365004531225351	0.8478693596350793	-0.5221882004662396	-0.09185331940562047
86														8.765246311009236	4.200789327855908	-0.9656008611340069	0.3005635903866796	0.3296561571639607	0.8949795227700791	-0.43784213919745374	-0.7859559911636258	0.4365403086737813	0.8473227184944742	-0.5230678713110687	-0.09189239753778028
87														8.77848564048139	4.124424627445579	-0.9462515869791499	0.30093363375582166	0.3294967507881947	0.8949138725567619	-0.43844659123786006	-0.7855487193491361	0.4366666877159671	0.8468787012945943	-0.5237796299484693	-0.09193130339893296
88														8.757731969522478	4.1634847511741775	-0.904865232107066	0.3012540208788991	0.3293815916777557	0.8948484687186568	-0.4388105079763144	-0.7852829377700692	0.43677917273695555	0.8465762535022262	-0.5242503931434277	-0.09203353896866467
89														8.731107231397699	4.165102874081023	-0.9469017971017215	0.3015625870057358	0.3292737722001066	0.8947842136847972	-0.43914482364100876	-0.78503508610234	0.43688870145335584	0.8462929929922118	-0.5246891427592193	-0.0921383388328666
90														8.763046071532116	4.188492842364329	-0.9102412129949707	0.3018330516557876	0.32902623904879047	0.8947840761577972	-0.4395006713180809	-0.784853278244773	0.4368575185794436	0.8460118018320493	-0.5251162401276891	-0.09228740713146205
91														8.743896993002698	4.148607830674214	-0.8701773400962013	0.3020166880276802	0.32876217104106376	0.8948191744956947	-0.440033356237563	-0.7845956304176727	0.43678409097379006	0.8456693003480121	-0.5256663691181512	-0.09229465221258831
92														8.712528067902252	4.077894814560521	-0.8792634326127866	0.30213440072611686	0.3284026395046665	0.8949114538680564	-0.44071767672037887	-0.7843096088272332	0.4366077953122965	0.845270804727137	-0.5263175314082181	-0.0922340653354145
93														8.72062140238235	4.02194451167022	-0.8835276464500403	0.3022294676143142	0.32792251228188135	0.8950554032261403	-0.4415536017635591	-0.7839938381900697	0.4363302401273969	0.8448004294951544	-0.5270867932501657	-0.09215067393166793
94														8.774801357539602	3.9572135213898423	-0.8589769421683912	0.3022598795699318	0.32740678857801075	0.8952339135641616	-0.4423385643928538	-0.7837456734163701	0.4359808640892282	0.8443788010444364	-0.5277760075961722	-0.09207022402821519
95														8.770185319551542	3.9303039811841476	-0.854444920055522	0.3021991999563131	0.3269038787781581	0.8954381595540588	-0.4429876295691404	-0.783602949715033	0.4355782102523198	0.8440601895566919	-0.5282994143832599	-0.09198981013039614
96														8.823728670578	3.9885763152631335	-0.8566522773439247	0.3021239370562471	0.3263949786388777	0.8956491749434929	-0.4434970137256926	-0.7835542737390353	0.4351472152291519	0.8438196048173008	-0.528686124297413	-0.09197530375788227
97														8.864109806344334	4.077169277097695	-0.8503085313216542	0.30195581899615664	0.32595043932845064	0.8958677326904626	-0.4437639693287651	-0.7836539776928729	0.43469527576420347	0.8437394283189207	-0.528812589059421	-0.09198381788299925
98														8.853121152744764	4.073085713706512	-0.8709031049002133	0.3017685975832529	0.32551442250135953	0.8960893226996091	-0.4439337912113055	-0.7838158647132039	0.4342297539835917	0.8437170749329391	-0.5288412341785576	-0.09202416258302093
99														8.881271963028235	4.1009123294477625	-0.9447072212690008	0.30153504751801935	0.3250477469312499	0.8963373122509315	-0.44402151145908525	-0.7840577397998565	0.43370307587280243	0.8437544147913509	-0.5287697257548493	-0.09209269593863678
100														8.877140393056209	4.102475163543033	-0.9118269807979479	0.30127088823902876	0.3245209280992868	0.8966169857443279	-0.4441725922997175	-0.7842977884901485	0.43311394253615465	0.8437692576465533	-0.5287373130345919	-0.0921427894929625
101														8.879661556578782	4.126947006027242	-0.8819268032966824	0.3008925340559837	0.3240483202809785	0.8969149174099209	-0.44433014928263037	-0.7845415824769699	0.4325103742143159	0.8438213089202264	-0.5286654816494155	-0.09207826629855426
102														8.902018920816847	4.143872891792389	-0.8635393877618972	0.3004522978797008	0.32357293118331204	0.8972340691838712	-0.44457237288488965	-0.7847517434997409	0.43187973597011486	0.8438505922059347	-0.5286447382501382	-0.09192887878211459
103														8.86600862398843	4.075579134839165	-0.8380478414368974	0.2999946956985031	0.32316366141855296	0.8975346402737432	-0.4448374030939883	-0.7849204191451491	0.431299919334099	0.843873727142491	-0.5286446666216907	-0.09171667836921654
104														8.862590047719886	4.016194882200616	-0.8618445103027382	0.2995240042630652	0.32271240891076247	0.8978541485147976	-0.44501541826240054	-0.7851671087358005	0.43066679564160076	0.8439470649151878	-0.5285539825736596	-0.09156439879431072
105														8.865552862955335	4.026862886211342	-0.9174277635861274	0.2990157663112994	0.3223286312024368	0.8981613580000141	-0.4450689789343584	-0.7854699958243115	0.430058704888162	0.8440990318011232	-0.5283380917243418	-0.09140943794536172
106														8.868211192125406	4.034563523605866	-0.828587856654232	0.2984898707273697	0.32193618161026544	0.8984769847043161	-0.4451112676685715	-0.785788698328687	0.42943227751693835	0.8442628479730914	-0.5281034146349649	-0.09125254507823322
107														8.851567994073324	4.005933361216973	-0.8432042895973256	0.2978523172501645	0.3216740344065659	0.8987824056451659	-0.4450572786652814	-0.7861379957881305	0.4288485400293163	0.8445164390441207	-0.5277431829657543	-0.09098965335362635
108														8.821824940109869	4.008075409174827	-0.8485286905885933	0.2971904880499231	0.3214141467990907	0.8990944110882134	-0.44491340708122323	-0.7865487852333104	0.42824416942601995	0.8448253511892422	-0.5272892514411958	-0.0907533542220737
109														8.825010285597727	3.9112884261970278	-0.9349702587116084	0.29658820048816015	0.3211171465206528	0.8993993648772657	-0.4446072731792222	-0.7870597952078291	0.4276227910244575	0.8451980903713233	-0.5267073731948737	-0.09066162945162964
110														8.82123691216144	3.9893744061519603	-0.899447744998458	0.2960027838375039	0.3207840464677232	0.8997110355509943	-0.4441627626988516	-0.7876678995660673	0.42696454211667745	0.8456369151072891	-0.5260008322474158	-0.09067156270217464
111														8.759238721085952	4.092845295549157	-0.9713288190309654	0.29537268838396713	0.32055597576249506	0.8999993563107606	-0.4436543632275335	-0.7882775918581456	0.42636749895306936	0.8461239749268429	-0.5252259557345567	-0.09061961419428965
112														8.716667975589955	4.142153291334471	-1.028239907971675	0.2948414466214038	0.32026154592496214	0.9002783256060048	-0.4430461376162329	-0.7889500126157523	0.4257557956586646	0.8466278056487019	-0.5243952896387971	-0.09072452208254489
113														8.77158747420198	4.198269214152031	-1.0318313341990257	0.29439350818680776	0.3199856618045355	0.9005229805934866	-0.44250346537088053	-0.7895471711997679	0.42521282622377016	0.8470673795349609	-0.5236644351967753	-0.09084279739096829
114														8.806737758454156	4.292719004109962	-0.9932376409485966	0.2939229244036647	0.31971413781093205	0.9007731038357054	-0.4421404091213109	-0.7900367164009869	0.42468087472876254	0.8474203048853846	-0.5230916332939759	-0.090851362377254
115														8.809309582971606	4.2875912404883545	-0.9925792947553649	0.293476518912219	0.319390402342058	0.9010334642725227	-0.4420655191936919	-0.7903651985635012	0.42414729710289084	0.847614068776101	-0.522793098454307	-0.09076214310695713
116														8.844184910186435	4.2276916219527605	-0.9545654297281976	0.29305010697912437	0.3190126890288539	0.9013060185298356	-0.44223073208453506	-0.7905646640475923	0.4236029881378252	0.8476754180696175	-0.5227221213971129	-0.09059784435957624
117														8.853241801576646	4.138127537303736	-0.9865513465289034	0.29260152480573537	0.31865387733885253	0.9015786455646977	-0.44249981561543816	-0.790697146089129	0.4230743863043595	0.8476899556215483	-0.5227405949641014	-0.09035490863763579
118														8.861742774094786	4.032272586366209	-0.9609549520344078	0.29219520915331254	0.31826061946663897	0.9018492877662893	-0.44274391910093247	-0.7908484962960525	0.42253577127317865	0.8477026494278516	-0.5227512161659542	-0.0901741878256575
119														8.804784489985396	3.9429663005498923	-0.952592350107931	0.29180882939851666	0.31801255053247285	0.9020618741466125	-0.4427467568151398	-0.7910744353942292	0.4221096385956822	0.8478342505553448	-0.5225602887414365	-0.09004347958471942
120														8.85878477758151	3.923329638788576	-0.955678005420958	0.2915098847140056	0.31775126464513687	0.9022505865503458	-0.4426122824134457	-0.7913656188684355	0.4217046652928302	0.8480072845033744	-0.5222782697847901	-0.09005028783862251
121														8.886717549482446	3.904787617534106	-1.0010366809026057	0.29117800889483353	0.317605694546903	0.9024089926011487	-0.4421991040849683	-0.791783330526942	0.42135390095039466	0.848336796020597	-0.5217334379652534	-0.09010494007803016
122														8.848988149133477	3.947050451363764	-0.9474812835272908	0.29084081694941566	0.31744724940314795	0.9025734668394436	-0.4416093934344649	-0.7923162947347842	0.4209703466138522	0.8487595435850137	-0.5210202807416603	-0.09025023118663517
123														8.825313154732386	4.051737438512669	-0.9594067984512086	0.29052465678392025	0.31724288471173334	0.9027471273287792	-0.44114889443944694	-0.7927844225693429	0.42057164938479513	0.8491072233442835	-0.5204323312700424	-0.09037207441123474
124														8.827507855395973	4.125142405774617	-0.9594044282749176	0.2902941897614007	0.31695697197166744	0.9029216806065318	-0.4408685091118269	-0.7931550497547302	0.42016666303038225	0.8493316437436481	-0.5200416761829031	-0.0905119548379647
125														8.816195467494557	4.121933430468615	-0.9809869123528858	0.29007606376664213	0.31670758933016047	0.9030792767472462	-0.4406813871673247	-0.793447662467037	0.4198103404275282	0.8495032620502014	-0.5197471594787921	-0.0905930349408468
126														8.817712502534517	4.118604054174198	-0.9813357016509574	0.28984700222449306	0.3164701751043506	0.9032360397874394	-0.4405180669720852	-0.7937229524833935	0.4194612108076533	0.849666139123275	-0.5194713687687386	-0.09064738858279947
127														8.805665383678317	4.06910292866997	-0.9740750124361626	0.2896419180882561	0.31624420389278507	0.9033809621584767	-0.4403292721913792	-0.7940014052432942	0.4191323186334896	0.8498339198558544	-0.5191833702805718	-0.0907245098445863
128														8.852322976986352	4.057720387126816	-0.9454941820964895	0.28950273922453357	0.31600275202874295	0.9035100578807922	-0.44021380665565224	-0.79422332692295	0.4188330352314405	0.8499411558521164	-0.5189909129085999	-0.09082105431598114
129														8.865632705984623	4.0082136823183125	-0.8970685523992153	0.2893571229882321	0.31584243795550476	0.9036127543158607	-0.4399959023895526	-0.794471813167956	0.4185906639690182	0.850103559136401	-0.5187080994817252	-0.09091669965237537
130														8.859721258415199	3.952336608729666	-0.9232851957412429	0.289220392325567	0.3157140776717823	0.9037013808902261	-0.43966291086260945	-0.7947729530437169	0.41836883000767094	0.850322344452304	-0.5183247768243634	-0.09105677489957348
131														8.880111399578027	3.973276494603146	-0.9072326615109649	0.2889999512967317	0.3157156030056043	0.903771368305776	-0.4391048271043049	-0.7951743011092853	0.4181922783470042	0.8506855934857398	-0.5177079184966823	-0.09117308902108884
132														8.880695959039896	3.941016679830068	-0.9375798035616326	0.2888252717946004	0.31568729075743296	0.9038370963990178	-0.43847205729917327	-0.7956212854144217	0.4180060109177069	0.8510712175491578	-0.5170380108364718	-0.09137547816377567
133														8.85638365770796	4.01694254565914	-0.9797888046904568	0.28860297030265214	0.3156520921371787	0.9039203959762764	-0.43783507110505515	-0.7960865681211224	0.4177877769484939	0.8514744717505732	-0.5163428442290598	-0.09154939197245943
134														8.870830421733478	4.091697341407027	-0.9596174243741042	0.28840711282923626	0.31555920122306613	0.9040153360385902	-0.43734866885959744	-0.7964790721789021	0.4175490742748374	0.851790748433113	-0.5157940268212651	-0.09170083303472021
135														8.911845476193973	4.150802530021286	-0.9844513694465469	0.28818883594754874	0.315410132702322	0.9041369603239885	-0.43699805039287454	-0.7968210780400508	0.4172635540565688	0.8520445403780396	-0.515356786876622	-0.09180132587376044
136														8.860341283459237	4.148077613837474	-0.9234144255548452	0.2879340465941629	0.31523411176288535	0.9042795140845419	-0.43676757975867014	-0.7971126689657262	0.4169478075803857	0.8522488287370444	-0.5150134442472364	-0.0918318363147253
137														8.90077331613591	4.099064528717739	-0.9768512486763028	0.28769888578118774	0.3150968054488127	0.9044022082658886	-0.4366055189921936	-0.7973393277297851	0.4166840736588947	0.8524112692273723	-0.5147465392320447	-0.09182063190161943
138														8.882270202635606	4.04302043859679	-1.0223510486216265	0.28744372613491587	0.31495967370430333	0.9045310985509312	-0.4364279878512929	-0.7975805822746895	0.4164082446331233	0.8525882451252464	-0.514456624720147	-0.09180231781282377
139														8.779342977447138	4.134195004043795	-0.9557690394528985	0.2871560485012581	0.31493239623022645	0.9046319636259993	-0.436275715614966	-0.7977648443350416	0.41621479203379674	0.8527630994442671	-0.5141875523073025	-0.09168564379679367
140														8.799777369758125	4.094040673757815	-0.9959735069327896	0.28701653436899394	0.31483626767205686	0.9047096957351243	-0.4363007434665298	-0.7978326648822855	0.41605852965344187	0.8527972621024095	-0.5141411901464028	-0.09162786882534674
141														8.864600625887487	4.091480526530046	-0.891464496366731	0.2869347919493378	0.3147592691473997	0.9047624150321368	-0.436325482045124	-0.7978758145518545	0.41594982662732827	0.8528121123008748	-0.5141213738398833	-0.09160084101093469
142														8.929178490785803	4.02783348649835	-0.8448302003391575	0.28681253088106823	0.31472566106246797	0.904812870376184	-0.43640010308565697	-0.7978801580242512	0.41586320281797506	0.8528150574165683	-0.5141352076059262	-0.09149571653135957
143														8.889467340675006	3.9042110848479945	-0.8774624122498478	0.28662211934112725	0.3147422368908494	0.9048674405797491	-0.43640357819406644	-0.7979231931817978	0.41577697714276995	0.8528772934272647	-0.5140582672222173	-0.09134779831323542
144														8.80532124683621	3.8662371955574453	-0.9391758611761342	0.2864604858283339	0.3147656291491059	0.9049104866037099	-0.4362437877785742	-0.7980534750709201	0.41569460972188627	0.8530133338252093	-0.5138416581337062	-0.09129623586329394
145														8.818392002865195	3.8038532804323144	-0.9762993669286929	0.28636765460482405	0.31477143926121454	0.9049378472699413	-0.4359427294978363	-0.7982577575410328	0.41561820114564024	0.8531983960334831	-0.5135206846379073	-0.09137288139763561
146														8.83318137580147	3.895744162106819	-1.0134432811949845	0.2862789247609297	0.3147541840756835	0.9049719226830063	-0.43553636607789087	-0.7985346386582641	0.4155123399931478	0.85343567482347	-0.5131006085260147	-0.09151674419931066
147														8.82064874966289	3.9259461539960965	-1.0060245740647011	0.286148108689203	0.3148147769856843	0.9049922187980661	-0.4350467947424741	-0.7988370467174523	0.4154439302433477	0.8537291996165368	-0.5125924589605213	-0.09162655040387868
148														8.789301009414206	4.041453692034631	-0.9860245568251342	0.28603223916832426	0.3148615988084428	0.9050125588919451	-0.43456954909637113	-0.7991338289356847	0.41537264046729033	0.8540110451010172	-0.5121008660863438	-0.09174877546368299
149														8.76377093751483	4.103058796282699	-0.9708110386366423	0.2859724373897486	0.31492803893337673	0.9050083399322596	-0.43401755473884795	-0.799450550165206	0.4153403183162707	0.8543117272002522	-0.5115653898908012	-0.09193652502675453
150														8.790201153130186	4.148774959433047	-0.9596043427713925	0.28595706516355596	0.31496497428212766	0.9050003435681696	-0.43352335778104056	-0.7997335698098034	0.4153115885422908	0.8545677592451627	-0.5111000707246358	-0.09214479130137804
151														8.822316333428937	4.202843620310204	-0.8938189013775188	0.2858879429778527	0.3152120652077448	0.9049361513429337	-0.43311527817481843	-0.7998830599179128	0.41544945091780655	0.8547977771797504	-0.5107136618535143	-0.09215376131625108
152														8.842535251422792	4.290365715523936	-0.9621154140838634	0.28587819210825094	0.31564854303450696	0.9047870780228413	-0.43307124040635625	-0.7997115557139016	0.4158253580417523	0.8548233501781628	-0.5107126637727368	-0.09192178769115394
153														8.776449395026129	4.419651987419463	-0.9456287560778869	0.2859028169263105	0.3162918060326166	0.9045546267142889	-0.43359146505387697	-0.7990978578297445	0.41646254938991356	0.8545513563888559	-0.5112749818332002	-0.09132290099108537
154														8.765919367528308	4.418739039988943	-0.8477333192755168	0.28609536669741464	0.31695044013554513	0.9042631584069741	-0.4346195838088773	-0.7981251070120694	0.41725547441198596	0.8539644363344826	-0.5123853355189407	-0.09058702678128017
155														8.70149456143661	4.249329078587902	-0.7756440886948277	0.2864088581341297	0.3175785376781382	0.9039434929178484	-0.4357730065092233	-0.7970546930078787	0.4180977196207001	0.8532712656478111	-0.5136610640883076	-0.08989137032803085
156														8.83359963762295	4.063060780619713	-0.7691890263811615	0.28683088268164486	0.31810764352886056	0.9036235786369146	-0.4367247878113334	-0.7961180803616416	0.41888836440326316	0.8526426592959179	-0.5147849349483826	-0.08942575858764135
157														9.019024246829918	3.876581891729605	-0.8264183661433038	0.2872078387364823	0.318636898331472	0.9033173220912006	-0.43727600221568863	-0.7954336581747504	0.419612908916062	0.8522331578004835	-0.5155151040119323	-0.08912251276183103
158														9.147004486108115	3.8674145198188734	-0.8465768879119275	0.2873112573530744	0.31931938015770156	0.9030433958863199	-0.4372249643523495	-0.7951181211105391	0.42026361254423694	0.8522244844788737	-0.5155795835148508	-0.08883198251401775
159														9.02888103842106	4.107270934090281	-0.8827527840516545	0.28711147129507764	0.3203233807694243	0.9027513139194103	-0.4368451763102252	-0.7949363212172809	0.42100182558276855	0.852486536541935	-0.5152370104543946	-0.08830361302208345
160														8.981961711588033	4.186202328722496	-0.9925690782585102	0.2868723721961571	0.32153910807764796	0.9023950598530446	-0.436166886663399	-0.7948456854230833	0.42187531729489247	0.8529142331142721	-0.5146192168399263	-0.08777455559644654
161														8.901223593976509	4.257934894004953	-1.0537821585851748	0.2866809469186146	0.32280794665227597	0.902002807230658	-0.435388854253287	-0.7947747246456889	0.42281163968885627	0.8533759899750263	-0.5139340100076182	-0.08729978861161669
162														8.824773488292633	4.351608168473871	-0.9752042388779478	0.2865465181082761	0.3240069471780286	0.9016155450858188	-0.4346841958060669	-0.7946739582332631	0.4237250877896086	0.8537802661554417	-0.5133349766831137	-0.08687035649340302
163														8.773270134890295	4.3677630974304735	-0.8554843512270461	0.2863874074488718	0.3252646832911799	0.9012131482941216	-0.4340612778265959	-0.794501309949587	0.424686326104259	0.8541504902218676	-0.5128065466546607	-0.08635036630996218
164														8.697386581270901	4.369972373053136	-0.8634015562395186	0.28624745800796103	0.3265653738534809	0.900787127674412	-0.43358708964698683	-0.7942116555213627	0.4257112659132627	0.8544381946492309	-0.5124284367928394	-0.08574653748467354
165														8.673746944179765	4.279641846128925	-0.8749888475523265	0.2861648606785208	0.32779841767341944	0.9003654090888017	-0.433221172734539	-0.7938708960244661	0.4267181926515695	0.8546514424064079	-0.5121691105641902	-0.08516873943256886
166														8.730191978995764	4.204888521620758	-0.9640996740088842	0.28619466935210863	0.32884288068208645	0.8999749835740691	-0.43304023385092894	-0.7934751883461	0.42763685686041564	0.8547331554940241	-0.512112766198842	-0.08468617121703031
167														8.733325217419823	4.159469533744067	-0.9636556314834892	0.2861989293164601	0.32978584809954314	0.8996285162506669	-0.4329064789825847	-0.7931055261495891	0.42845723805986047	0.8547994813481185	-0.5120790161530231	-0.08421952209992145
168														8.763345486834362	4.128837658962763	-0.9789109397034685	0.2862118500635716	0.3305946999554578	0.8993274827583937	-0.4330220439212235	-0.7926469719968874	0.4291884053215466	0.8547366181236615	-0.5122674322514823	-0.08371016361828115
169														8.767135917064556	4.035243322610837	-0.9493863463620299	0.28619614948751876	0.331313471424871	0.899067932734184	-0.4332812561891791	-0.7921527275904094	0.4298388177051968	0.8546105060515257	-0.5125674978219704	-0.08315914335104468
170														8.785011506042993	4.033319952128829	-0.955843451568986	0.28614953085033096	0.33180433851125646	0.8989017337502707	-0.43377499412198217	-0.7916349771611637	0.4302944543095084	0.8543756202447548	-0.5130496505019284	-0.08259755233201099
171														8.724289176217827	3.9359425168102944	-0.8865176434275537	0.286065521826032	0.3321301809959433	0.8988081330818064	-0.4343176618595134	-0.7911770368526516	0.43058920673182666	0.8541280265974683	-0.5135449729368017	-0.08207846826089243
172														8.728797227767316	3.898843116379145	-0.7994241453450894	0.2859961509791248	0.33225756464669	0.8987831286579518	-0.43498912301693193	-0.790731972648689	0.4307289290122891	0.8538095012835628	-0.5141477007302121	-0.08161787397225034
173														8.742627442278634	3.7917183479758716	-0.8041802018909259	0.2858855750681257	0.33223758155072886	0.8988256935431302	-0.43573141498024964	-0.7903261247341882	0.4307235198615803	0.8534679677452903	-0.5147842324391477	-0.08117648714228148
174														8.737214634176949	3.6905072457078294	-0.7975748522128587	0.28575712923191315	0.33202604238851735	0.8989446981149363	-0.43649138040732843	-0.7900058549527402	0.4305415473220843	0.8531225808307035	-0.5154119287678625	-0.0808232996143522
175														8.771285887210013	3.727205992204295	-0.8143870182375087	0.28560303323520947	0.33169232793247727	0.8991168483559752	-0.437072327964551	-0.7898590238872225	0.43022145752109064	0.8528767129746805	-0.5158516472539926	-0.08061259511296343
176														8.814517233271024	3.6943142044883976	-0.9237916101886783	0.28535579864786353	0.33129153421408575	0.8993430866672167	-0.437367329921981	-0.7899437350913902	0.42976588290228485	0.8528082357100901	-0.5159794712466191	-0.08051893166890867
177														8.894384097175111	3.8450826725186307	-0.9407456669922585	0.285151287836641	0.33094546883923337	0.8995353465539224	-0.4372061942381551	-0.7902655397418117	0.42933800252990867	0.8529592526990337	-0.5157087097881549	-0.08065382745873267
178														8.903231889128294	3.910368043030934	-0.9738546266559633	0.2848640889405947	0.3305611920810571	0.8997676083978552	-0.436883581792388	-0.7907265215630905	0.4288173318057346	0.8532204795902987	-0.5152483540844028	-0.08083283256830148
179														8.82502784405501	4.119876813791061	-0.8955536312952157	0.28441815324930114	0.33019361002348113	0.9000436067224289	-0.4364418610392319	-0.7912962066692831	0.4282158512285772	0.85359522962284	-0.5146090683329088	-0.0809486921121444
180														8.755487375869961	4.213772728569586	-0.8802147863740465	0.2840371252454464	0.32969599056603277	0.9003463029784626	-0.4362468654089508	-0.7917593672965104	0.4275579220633091	0.8538217518329969	-0.5142155755156707	-0.08106021215072351
181														8.805324911696674	4.262081984843823	-0.9368695859762239	0.28362369185989816	0.32919076605717257	0.9006614463595372	-0.4361646626301203	-0.7921666263476366	0.42688689740229474	0.8540011642196484	-0.5139119337432201	-0.08109584371463957
182														8.80123579963618	4.262993780530373	-0.9037570395728916	0.28323214552640125	0.3286303272168838	0.9009892672911459	-0.4363127202589504	-0.7924544640693756	0.42620081243089397	0.8540554793927306	-0.5138268486658157	-0.08106298606275603
183														8.798334355155275	4.202951713827927	-0.9286342003309845	0.2828943445624707	0.32808537824413014	0.9012939445025555	-0.4365428043483454	-0.7926696302397275	0.42556460997984247	0.8540498637586987	-0.5138432074845587	-0.08101844441686346
184														8.795858196838292	4.112533479106261	-0.9827455401977498	0.2826408123075375	0.3274843983287069	0.9015920031086238	-0.4368761014539735	-0.7928245428082037	0.4249335433916	0.8539633734514105	-0.5139875613010962	-0.08101446556781716
185														8.804686366939201	4.083029693413464	-0.9578632645242464	0.28239238221697394	0.3268695061154433	0.9018929362389246	-0.4371904469789586	-0.7929952720281526	0.424291187289266	0.8538846851514327	-0.5141155750537448	-0.08103159847242519
186														8.81351592755536	4.053313380323636	-0.9334886798823734	0.282227057895605	0.3261500797404869	0.902205083823443	-0.437577622015566	-0.7931470037009198	0.4236079027018457	0.8537410102032081	-0.5143383672306859	-0.08113156902019558
187														8.80787823665452	4.03836440914714	-0.8434627343678722	0.28209583728991494	0.32545074824666353	0.9024986144307313	-0.43806277967148555	-0.7932197434249868	0.4229697858089756	0.8535355526574125	-0.5146690675633091	-0.08119612825326478
188														8.810676419750282	4.0321342983101855	-0.8440437145412241	0.2819995382521581	0.3246911237166217	0.9028022677226767	-0.4385730672703345	-0.7932947662688379	0.42229974955659316	0.8533052941888154	-0.5150330940727091	-0.08130797574181559
189														8.839728728423973	3.96391670137378	-0.8618077525099839	0.28193145358442034	0.32388063142084544	0.9031146062766398	-0.439076142637589	-0.7933889263532079	0.42159951672956125	0.8530690455328169	-0.5153982422656663	-0.08147303494525099
190														8.855762069528987	3.9260921488218745	-0.8716740380842588	0.2817988306638392	0.32305989582733347	0.9034499005171932	-0.43942599260836285	-0.7935976031341849	0.4208415869657282	0.8529327148472199	-0.5155920364083507	-0.08167396118495857
191														8.844614038700358	3.9333317671906642	-0.807642516793001	0.2816689196832508	0.32219199736012977	0.9038002746854864	-0.4397373131738163	-0.7938497353614851	0.4200401088814891	0.8528151705306043	-0.515746948128237	-0.08192295410485528
192														8.847508696729534	3.95605844849253	-0.7807233647314633	0.2815447104397005	0.32128905180557543	0.9041603404337643	-0.44003536931888654	-0.7941234673080791	0.4192097236694135	0.8527024391731369	-0.5158888095902732	-0.08220271508724275
193														8.889518332335628	3.9940764546745067	-0.7490847737194363	0.2814966284596917	0.3204253916562555	0.9044817392008319	-0.4403130254904375	-0.7943689206671884	0.41845245543729737	0.852574974855164	-0.5160480464646497	-0.08252469927685369
194														8.925628718124145	4.055900465599474	-0.7417801257597841	0.2813934535614342	0.319594395957911	0.9048077952609979	-0.44066821250829785	-0.7945667798213385	0.417702237112864	0.8524255103981295	-0.5162587088627635	-0.08275079906467225
195														8.933317446199363	4.009134379553877	-0.6612377763261543	0.2812497264227877	0.3188261676508385	0.9051234535731506	-0.44103536841447444	-0.794738793431969	0.41698687511935906	0.8522830487547061	-0.5164689003564287	-0.08290645192025509
196														9.001903634381765	3.8940387251633846	-0.732776323830512	0.28105296407841646	0.31802746428743794	0.9054654953898794	-0.44136848411436863	-0.7949593183847536	0.4162133387384806	0.8521755057576589	-0.5166219256595206	-0.08305837293450952
197														8.98561339394402	3.833586247558344	-0.7801933745187748	0.2807192053432606	0.3174262261619588	0.9057799504824705	-0.4413559696837869	-0.7953358780297102	0.4155066174481407	0.8522919897405664	-0.5164120758302311	-0.08316809581070822
198														8.916328994912895	3.881514013869901	-0.7359871460318943	0.2803226669921783	0.31700276055333715	0.9060510207333556	-0.44110236621762605	-0.7957935890586609	0.4148991035545221	0.8525537548375488	-0.5159668724004463	-0.08324831348260486
199														8.932755610960987	3.861142172887009	-0.80288683109126	0.2799806001404572	0.3166514248046709	0.9062796139791305	-0.44058204776270327	-0.7963636145810529	0.4143578798099821	0.8529351222304149	-0.5153026960346437	-0.08345542957300739
200														8.994518407409634	3.9709795055775556	-0.7818566280924366	0.27964840647907907	0.3163719781403491	0.9064797516774846	-0.4397940514639158	-0.7970583835898299	0.4138588230859917	0.8534506201595183	-0.5143993629435499	-0.08375759280568895
201														8.977555350947616	4.051719896954102	-0.7710004517731174	0.2793011008361728	0.31619927353280497	0.9066470727295316	-0.43907454646381816	-0.7976657891428476	0.4134523327769608	0.8539346800073729	-0.5135633439493562	-0.08395388038834672
202														8.98604406003543	4.0710691136997115	-0.776193773852458	0.2789400539020137	0.3160499557399129	0.9068102733239961	-0.4383887278507427	-0.7982447210135855	0.413062572339047	0.8544049213473369	-0.5127550983176492	-0.08410968747242348
203														8.936780186964482	4.0997315423614875	-0.8315897511386547	0.2785888489374954	0.31596687837662263	0.9069471787356825	-0.4377403897882849	-0.7987671095269581	0.41274017963598975	0.8548518025925206	-0.5119922230921884	-0.08421614511147524
204														8.925309473600244	4.127769224566515	-0.8239327601570053	0.2782160022937738	0.31589252859891703	0.9070875186237835	-0.43714649651192306	-0.7992577686896473	0.4124196403865815	0.8552770291870475	-0.5112718744118714	-0.08427498905576647
205														8.933673327268123	4.117424761555275	-0.8567360228722016	0.27781511728280006	0.3158752249944039	0.9072164035354957	-0.43663610230582917	-0.7996792943258808	0.4121431066870287	0.8556679699347862	-0.5106230199092053	-0.08424046988523792
206														8.894514668115107	4.022910784298968	-0.8612678078358481	0.27731854134262884	0.3159433134892919	0.9073446144045845	-0.43601558250499833	-0.8001527134592923	0.4118811077927209	0.8561453372181758	-0.5098386586020514	-0.08414097547828442
207														8.893179676283264	3.92753824039493	-0.8025078707767905	0.2767786582031055	0.3160216165868616	0.9074821828626253	-0.43538309345031295	-0.8006391489123759	0.4116048045959895	0.8566417782836212	-0.5090258255518018	-0.08400936031408723
208														8.802935104316823	3.957172224803754	-0.7738758851992616	0.27620758199002565	0.31614656467147284	0.9076126493706713	-0.43460858243517253	-0.8011957923019197	0.41134010559558704	0.8572191970114253	-0.5080715028852978	-0.0838963421786777
209														8.831057928148324	3.938964277436029	-0.8174005005685179	0.27561549807566543	0.31626724410107593	0.9077505866311592	-0.43374435011228823	-0.8018113892761446	0.41105271532095244	0.8578472684377866	-0.5070241871309195	-0.08381251516366028
210														8.814017317467693	3.960114799910228	-0.8625194832757509	0.27511140354081154	0.3164202164765835	0.9078501871160888	-0.4327475789659732	-0.8024650598657386	0.41082765315125297	0.8585122296979201	-0.5058933428101119	-0.083837206295994
211														8.848249223299252	4.05783763842734	-0.8243839504324931	0.2745947699496879	0.3165860531043718	0.9079487779032879	-0.4317333380149231	-0.8031242929281185	0.41060649648441044	0.859188010369541	-0.5047421530727405	-0.08385297698188232
212														8.856184178927302	4.078850213841067	-0.8281575780974288	0.27410117008395546	0.3167154976578567	0.9080527749541559	-0.43085769421351044	-0.8037104012430668	0.4103793833402528	0.8597849707314172	-0.5037269939928226	-0.08383865234682131
213														8.858974267491343	4.091928616928166	-0.8851404185788918	0.2735388744083867	0.3168291410064042	0.9081826796391447	-0.4300906809152845	-0.8042565045719168	0.4101139854279416	0.8603478891571829	-0.502783025034564	-0.08373015800697653
214														8.822796797086102	4.08967988246694	-0.9466632500039541	0.27296535345204115	0.3168890123767164	0.9083343380329252	-0.4294080668189302	-0.8047790330839624	0.40980412401447686	0.8608708544059511	-0.5019084196776866	-0.08360209501570975
215														8.817143965979069	4.094417442889461	-0.9127633010044603	0.27247161265083064	0.31683350790901144	0.9085019254605492	-0.42883059319559524	-0.8052700751173734	0.40944404802118334	0.8613150077869124	-0.5011552996692039	-0.08354533484582355
216														8.806130474308459	4.121968505935102	-0.9041846577679848	0.2720318472829483	0.31670999659488375	0.9086767588756165	-0.4283869575172434	-0.8056987857642436	0.4090648863531835	0.8616747000422759	-0.5005439487946011	-0.08350129718849686
217														8.81490163774813	4.141511922119975	-0.9070640918823756	0.2715898873112078	0.31660487548115207	0.9088455787051233	-0.42810997626220154	-0.8060223272232809	0.40871733048935444	0.8619517279610636	-0.5000893528551984	-0.08336580729415494
218														8.83501289033019	4.052971240763391	-0.9171068018378749	0.27122035194441996	0.3164483165897325	0.9090104419744967	-0.42795263231793834	-0.806280272641422	0.4083731950574399	0.8621461971053939	-0.4997725331356245	-0.08325472923449301
219														8.810143778478185	4.003647737476266	-0.9287032492657014	0.2708295618309	0.31626836753115173	0.9091895666678446	-0.4277577342483886	-0.8065756569373657	0.40799390979123934	0.8623657398280428	-0.4994096808585486	-0.08315829144225506
220														8.790247897351982	3.9931072859354457	-0.8579478859080858	0.2704689928485663	0.31607820044586205	0.9093630161329348	-0.4275825322400955	-0.8068559725590819	0.4076231319109435	0.8625657667857162	-0.4990771591133421	-0.08308000493937118
221														8.825537900185292	4.058630931865212	-0.8481287491359997	0.2701419203005186	0.31588070667374035	0.9095288461877653	-0.4274654682704796	-0.807096914740371	0.4072687609587489	0.8627262696433027	-0.4988125393049712	-0.08300261622068733
222														8.874023627730212	4.030909935092208	-0.9034098665691408	0.2698557854450967	0.31565286264120757	0.9096928741988811	-0.42743403462787805	-0.8072910795652404	0.4069167714608519	0.8628313862531568	-0.4986425404644095	-0.0829313917383272
223														8.841505818777842	4.02076802574899	-0.8537100243524303	0.26956918163239957	0.31543304860178323	0.9098540806985609	-0.4274066818266449	-0.807479193493389	0.4065721097237279	0.8629345193257572	-0.4984770244705877	-0.08285331273385188
224														8.830855142861	3.986539952084503	-0.9024504182631595	0.26933295396867435	0.3151506545590532	0.9100218815157737	-0.4275032183925863	-0.8076104935487491	0.4062096613498095	0.862960461533719	-0.49844293117762895	-0.08278820078105814
225														8.884169876958664	3.9978700244911485	-0.8755191605109464	0.26915048566968214	0.314858695259151	0.9101769158155351	-0.42764734425539397	-0.8077045239781402	0.4058708549484119	0.8629459803574515	-0.49847507857961293	-0.08274558006302152
226														8.878697609899817	3.940826195963892	-0.8993101613932973	0.26902962070965475	0.3145644849236963	0.910314367680478	-0.42793487757245413	-0.807700655623095	0.4055753832064648	0.8628411231147178	-0.49866705899899955	-0.08268228668475658
227														8.894759347148625	3.891058025309658	-0.9925654631362155	0.2689072160006785	0.3143055533979171	0.9104399641305264	-0.42820721368322234	-0.8076900551168127	0.4053089648836454	0.8627441633140246	-0.49884746563316323	-0.08260577884721126
228														8.875843205096217	3.928105308050207	-0.9514706998370526	0.2689009140691485	0.3140388321068551	0.9105338600742637	-0.42846021407466695	-0.8076640496101077	0.40509335704562216	0.8626205094755556	-0.4990575066025596	-0.08262845596868651
229														8.973142450574036	3.932196497855898	-0.8950996635555826	0.2689389506646752	0.3137516657278307	0.9106216190429449	-0.4287538221225679	-0.8076120558402202	0.40488631401520825	0.8624627533004959	-0.49932220010184203	-0.0826761129636801
230														8.946878555552646	3.9465999455504432	-0.8507956164028403	0.26896260555509277	0.3134794700945941	0.9107083718964201	-0.42899111451297334	-0.8075895367644005	0.4046798287258439	0.8623373704542397	-0.49952954060583227	-0.08273147877436726
231														8.922613909907222	3.9453804798566154	-0.8930426615007361	0.26900976212596256	0.31325333595353694	0.9107722522095815	-0.42922419481583857	-0.8075428023754254	0.4045259113040098	0.8622066680707289	-0.4997469057889454	-0.08278098627551417
232														8.903240916204357	3.9526735970034794	-0.8815371483535247	0.2691203831579776	0.31308430198310555	0.9107976939038954	-0.42944492494699393	-0.8074614084955867	0.40445411387151564	0.862062222699831	-0.4999842933953763	-0.08285185907239584
233														8.89785640924115	4.006574809219304	-0.8781652634382507	0.26927946809587067	0.3129274514458296	0.9108045773894764	-0.42973926134258683	-0.8073192821120152	0.40442520197295817	0.8618658453162722	-0.5003118895866439	-0.0829172950325146
234														8.908352096128802	3.9605906452002007	-0.8282540315731297	0.26946061215695283	0.3128745612567548	0.9107691735090693	-0.43002814564792086	-0.8071282778596075	0.4044993659203862	0.8616651161829696	-0.5006530255554011	-0.08294441244358797
235														8.906080688727048	3.915531030551752	-0.7990626696552273	0.26967608616745264	0.3128535882929428	0.9107126005725595	-0.4303842687610487	-0.8068749143470455	0.40462606663494294	0.8614198684453603	-0.5010743506603363	-0.08294760610108137
236														8.945045564373965	3.900385665366981	-0.8224530600793318	0.26990608492066653	0.3127598949679792	0.9106766459190753	-0.43086952028904946	-0.8065745885436759	0.4047084007053532	0.8611051978757779	-0.5016160695344787	-0.08294068347981437
237														8.957253864953245	3.8702486763859394	-0.829746731035897	0.27011714387809155	0.3126779377016151	0.9106422106721208	-0.4314245825136569	-0.8062327301493947	0.4047982391744933	0.8607610343097898	-0.502216379771228	-0.08288033363484015
238														8.969659097103627	3.839728741864065	-0.8367843016787945	0.2702735316259554	0.3125221427465924	0.910649289460829	-0.4319881959627965	-0.805932295556206	0.4047954218223239	0.8604292049037171	-0.5027952319509237	-0.0828162911278611
239														8.935737427834383	3.77128992605721	-0.8449089765226162	0.27043415996463055	0.3123949952845865	0.9106452284206884	-0.4325830621674368	-0.8055991624146503	0.4048232748282357	0.8600797983036622	-0.503407743720691	-0.08272474908982758
240														9.007393360771164	3.777426459344164	-0.8300278591337459	0.2706116575395333	0.31216080990598716	0.910672805986071	-0.4331168375007861	-0.8053443941055713	0.404759449495682	0.8597552767369466	-0.5039603512594696	-0.08273347860091468
241														8.981006040474472	3.761568651325772	-0.813685249507483	0.27066010437939	0.31189827868151493	0.9107483580291786	-0.4336571130150933	-0.8051315221373433	0.4046044245830962	0.8594676353585116	-0.5044627794161942	-0.08266007473342774
242														9.001631147300929	3.7515338271753076	-0.8243224093704175	0.2705484939085002	0.3116081176275987	0.9108808338484384	-0.4341217091172504	-0.8050166568513413	0.4043346681463349	0.8592682084872914	-0.5048252798944145	-0.08252019548308398
243														8.995806396531236	3.7564749763351633	-0.7894701115215351	0.2703297014562088	0.3112785535244577	0.9110584584022686	-0.4346519949360587	-0.8049082281458974	0.403980677212582	0.8590689703444662	-0.5052013523128707	-0.08229275674411018
244														8.992360535622284	3.7757892563437268	-0.8117745645379454	0.2700290978989544	0.310862788922243	0.9112895328880727	-0.4351838863825415	-0.8048578896702925	0.4035080698926237	0.8588942142783732	-0.5055374406500159	-0.08205257326962795
245														8.99475192340633	3.8014731109587405	-0.7796887147103528	0.2695886726109404	0.3104042242720533	0.9115761982159996	-0.43575682157660567	-0.8048381294595575	0.40292875029897546	0.8587420684054816	-0.5058505737093758	-0.08171448481493249
246														9.035357565326116	3.7323397000083127	-0.7706638068606293	0.2689827289614147	0.30982873283274265	0.9119509020949141	-0.43645931455380355	-0.8048358781551335	0.402172196917539	0.8585753072734474	-0.506206840674356	-0.08125931451097201
247														9.031937637724834	3.731956183968753	-0.7327922041675204	0.26818860390810917	0.30918175732931497	0.912404249041277	-0.43712014893115814	-0.8049373178587603	0.40125040774651916	0.8584875352223945	-0.5064410678974429	-0.08072543969949142
248														9.014926316950918	3.6836498921947105	-0.6857602392761712	0.26708648432519816	0.3084490547716443	0.9129753504346572	-0.43784432412497476	-0.8051171703976807	0.4000983501120396	0.8584620886925352	-0.5066019369695614	-0.07998324659789013
249														9.08482912947319	3.65419552444285	-0.6591371694908312	0.2657363131785378	0.3076378740614458	0.9136427914131608	-0.4386614396552051	-0.8053381734119638	0.39875627619525306	0.858463949865049	-0.5067438849048266	-0.07905872433617273
250														9.066473224482484	3.6097198935212345	-0.7204948566589056	0.2641257511571685	0.30665637181819455	0.9144394223779738	-0.4393994837049379	-0.8057437226036649	0.39712107373523	0.8585835319265652	-0.5066941119729823	-0.07807301452112203
251														9.09174348957421	3.5682927537765585	-0.663685847964988	0.2621671789401639	0.30555486814616417	0.9153712868769357	-0.44015392475539294	-0.8062759242819201	0.3952007799154251	0.8587973525861505	-0.5065129381126573	-0.07688791007371343
252														9.147407110675791	3.554278051423467	-0.6784198568129807	0.2598868824472014	0.3043237264022124	0.9164310546247036	-0.440846350345654	-0.8069758704358028	0.39299419833032656	0.8591352068905056	-0.5061393227986248	-0.0755624390696728
253														9.167231815648453	3.601067652910037	-0.6971257067444488	0.2573407837504366	0.30312609203983804	0.9175457990440401	-0.4411139033298022	-0.8079703137081562	0.39064369501566104	0.8597640637453139	-0.5052707635426757	-0.07421058011594117
254														9.209820072504632	3.59896583235366	-0.6444034758754928	0.254600332018514	0.3019353235304757	0.9187021994861064	-0.4412079294937151	-0.8091022384369966	0.3881869790553397	0.8605313671725927	-0.5041712290093404	-0.07278143960708605
255														9.191495150808032	3.660871760391646	-0.6386973663715776	0.2517256255172693	0.3008867837137028	0.9198376774433424	-0.44083729762722834	-0.8104677601699811	0.3857518460691741	0.8615664144328407	-0.5026023807260336	-0.07137338726627163
256														9.176553988756993	3.7695558634729687	-0.6618666798976952	0.2486905089755343	0.29999796647198435	0.9209529037134113	-0.4400199517203694	-0.8120523021078431	0.38334514569687217	0.8628646897593467	-0.5005719516253647	-0.06994460960274229
257														9.171087976500443	3.894577735447379	-0.5770349119827294	0.24561771435394403	0.29943370153180543	0.9219606264816881	-0.4389912074746705	-0.8136186841935646	0.3811972671610647	0.8642677005161513	-0.49836141014137025	-0.06839039937322927
258														9.112892551788095	3.9786040195469057	-0.5469438205616044	0.24242958319348124	0.2992288483112808	0.9228705182911304	-0.4378480346180217	-0.8151156385353602	0.3793093650257376	0.8657464962526681	-0.49603285390526003	-0.06659138137050719
259														9.073248990883517	3.9948979910335196	-0.5851640759845581	0.23930973231360114	0.2992895901677573	0.9236647623663083	-0.4365860463936135	-0.8165418434982993	0.3776930525053288	0.8672505267305328	-0.4936447700863601	-0.06474075109232635
260														9.088500263510978	4.072198577940315	-0.6250905579072474	0.23627085622965494	0.2994585147010077	0.9243920599342964	-0.43537072031201474	-0.8178659424799235	0.376228170165956	0.8686935123456966	-0.4913449888871285	-0.06286241726186148
261														9.10364838343651	4.081695054467052	-0.6100085268180271	0.2332903904373081	0.2997855920377084	0.9250428057858775	-0.4344115390808303	-0.8189569108477319	0.3749615885502996	0.8699782804432719	-0.4893242043689854	-0.0608244570516403
262														9.15793437732871	4.105971594116774	-0.5867630007244341	0.23028908329516828	0.3001982586343096	0.9256608145687053	-0.43376363475353164	-0.8198348178597632	0.37379135970518806	0.871100480587903	-0.4875980690463987	-0.058583920846487225
263														9.235007990358936	3.9990073283974485	-0.5206409708922504	0.2272948286791986	0.30074665431880193	0.9262227112156882	-0.43369681418574674	-0.8203256368639579	0.3727907226164234	0.8719197980438493	-0.48643324251102366	-0.056022909237061325
264														9.2360648456733	3.74919318396203	-0.5244547527247806	0.2241858497687389	0.30124821730809875	0.9268172507739383	-0.4341027664709855	-0.8205939839120614	0.37172611114847554	0.8725224884813605	-0.48566966668304934	-0.053192875070542045
265														9.214254133666739	3.6933628413041815	-0.5090445512243157	0.22093956517332403	0.301717019058104	0.9274440947850794	-0.43459911738511303	-0.8208529124731904	0.370572669327303	0.873103267494232	-0.4849405494439227	-0.050232935370363996
266														9.172871011689994	3.676467234078908	-0.452339438748218	0.21755783186531785	0.3020619674363108	0.9281310024035222	-0.43556183590033676	-0.8209294393663064	0.36927055486302984	0.8734726537798364	-0.48459614465060175	-0.04703296385071731
267														9.142188242097358	3.557267256754465	-0.345918840675873	0.21396362309093797	0.3023365299559678	0.9288768436385862	-0.4370470972272148	-0.8207879364128206	0.36782740279164705	0.8736185682545122	-0.4846646119672524	-0.043483457861216934
268														9.126758503422606	3.5120624020893008	-0.3820229711007602	0.21028333626317952	0.302345218766379	0.9297140889430132	-0.43900057226018097	-0.8205068904780632	0.3661242142132274	0.873532721794244	-0.48513483833582804	-0.039809202298084434
269														9.12432009289529	3.4327349807974263	-0.42345612647138436	0.20639206932935067	0.3021026902742874	0.930664428377375	-0.4416530108259621	-0.8199764637430176	0.3641170374149747	0.8731236634900642	-0.48618161569163987	-0.03581207641502254
270														8.966817567393297	3.3686943018401245	-0.3799032265087277	0.20228357314803252	0.30163350819216267	0.9317180811651956	-0.44478121594406245	-0.8193076443361325	0.36180748178513333	0.8724970062858594	-0.48759841126491266	-0.03157155926062688
271														8.934863259016891	3.262651288433351	-0.2926303298620846	0.19809591463617626	0.3008367802477535	0.9328747184132619	-0.4483946453860961	-0.8184985737059174	0.35916893912260417	0.8716078536782094	-0.48944592805696596	-0.02724762218839305
272														8.85031562538156	3.073633133990635	-0.3476868008261033	0.19381219712139858	0.2997838661141249	0.9341126622975648	-0.4520695042152124	-0.8177574017546284	0.3562386773416542	0.8706721516194187	-0.4913272488812193	-0.02296821502041868
273														8.938349389031007	2.90758182450921	-0.32736972468672804	0.18942585919275817	0.29843127688010995	0.9354446091826031	-0.45564253820256073	-0.8171907069488697	0.35297199018723124	0.8697745232239295	-0.4930903785880577	-0.01881906731144256
274														8.97274485168593	3.0593248568821094	-0.2356600968466134	0.18493507489180971	0.2969941688764016	0.9367995952860867	-0.4589856138675191	-0.8167881359509777	0.34955592861855966	0.8689828676892412	-0.4946226891511776	-0.01473672417602695
275														8.958394394232949	2.988654079976272	-0.1582152970765044	0.18024052801134838	0.2954650226675643	0.9381970861403517	-0.4623717797896009	-0.8164172546017823	0.34594104070301634	0.8681737667750551	-0.4961484523492389	-0.01053678865062424
276														8.922012236345575	3.159163748264504	-0.10842877706853998	0.17550916055026428	0.29382233907636635	0.939608943988207	-0.4657332092375327	-0.8160872205196867	0.34219033638862445	0.8673460165218086	-0.497664627599897	-0.0063879620854940256
277														8.924454755919433	3.1242296913122187	-0.09094710778469081	0.17077828597022193	0.29194748575196366	0.9410639949568677	-0.4693990028704657	-0.8156415261856105	0.3382210473430355	0.8663136574851426	-0.4994953116143477	-0.0022540031056031973
278														8.92402916768816	3.1955987119781706	-0.06425711216309979	0.16604535003472654	0.28968346502049036	0.9426093739325784	-0.4732351525899723	-0.8152078903131953	0.33389307558596487	0.8651459021951099	-0.5015172835155649	0.0017269192736382166
279														8.850338035355	3.4568866586380267	-0.012110258547860867	0.16132344117997133	0.2870618068342027	0.9442299859583655	-0.4776444533348031	-0.8145297141119681	0.32923718050544143	0.8636148004315057	-0.5041198903889414	0.005710743374742588
280														8.84234257608067	3.6393625437219925	0.0606276220852069	0.15670342749765004	0.2842210137465119	0.9458659794893742	-0.4830399463407896	-0.8132845736192059	0.3244080956944706	0.8614618076557865	-0.5077269124814351	0.00984562301194547
281														8.990629327153627	3.5941499680078453	0.12293080535662662	0.1523640171117111	0.2811284894156452	0.9474977460281684	-0.4897595654606249	-0.8112249394211706	0.31945213366158276	0.8584408974002822	-0.5127190947292634	0.01408387626339419
282														9.299683538229047	3.450375046539969	0.181000116494392	0.14840186061574218	0.2778022589685202	0.9491063126319268	-0.4976090683329112	-0.8084069034673553	0.314425656617226	0.8546122529420215	-0.5189452604449807	0.01826783465693721
283														9.592998592011769	3.401341447281535	0.06694941373000038	0.14464876226751555	0.27443257041111774	0.9506647673454733	-0.5061340775794987	-0.8050440021286605	0.30940660973776796	0.8502382201990368	-0.5259191182436862	0.022451057404003993
284														9.750246400867066	3.0733976620004713	0.06356953811168485	0.1410397664216304	0.27117626924555177	0.9521403338194403	-0.51535928478076	-0.8010572873458655	0.304486502131616	0.8452884666656673	-0.5336390665872834	0.026772275470296647
285														9.83305256868923	2.3673613290725144	-0.07630535266044254	0.1376563504960185	0.2678414386051867	0.9535783622408914	-0.5243736745159027	-0.7970497336308655	0.2995729820822565	0.8402874381084172	-0.5412695131677654	0.030730041853578638
286														9.600775301845484	2.970370726721661	-0.45539755869858695	0.13413634608076497	0.2646249933551602	0.9549769911112426	-0.5314288781358654	-0.7941833828291569	0.2947135930378711	0.8364154399240585	-0.5470341555422455	0.03410050625467914
287														9.255218634466186	3.5168748806497523	0.6117244360788074	0.13092519433214678	0.26145502415528377	0.9562948623897598	-0.5404453058636112	-0.7898446094974976	0.28993855248609746	0.8311302333925035	-0.5547853307286573	0.03789158150852173
288														9.424340282678262	2.808707281064654	0.023945923830173944	0.1284431123975303	0.2575261567996659	0.9576965309750419	-0.5498868496070839	-0.785155192977854	0.28487852774315137	0.825304076996371	-0.5632154130560554	0.040762470352829094
289														9.523603170349261	2.943701218361632	0.26598946617470043	0.126003731300871	0.25356311517407415	0.9590770596367514	-0.5596019913966258	-0.7801122662965239	0.27976858865611043	0.8191267734137301	-0.571953318546995	0.04359736780920326
290														9.444485137585898	2.8003040134181947	0.15513964920080248	0.12339412622278717	0.24928221491938932	0.9605374885649176	-0.569137777845155	-0.7751460728311137	0.2742822553574724	0.8129305501967525	-0.5805229910170535	0.046227453503519256
291														9.262075751601277	2.5714830422177952	-0.014562592140688873	0.12092256640661941	0.24459885603208778	0.9620546411516501	-0.5783928343921014	-0.7702899025621055	0.26854272497078113	0.8067462191157188	-0.5889183862290729	0.04832879373455018
292														9.125763273968587	2.540528427479691	-0.059723093285305236	0.11868550956479762	0.23974063477142216	0.9635549687790212	-0.5871355584706781	-0.7656363736811501	0.2628170072040696	0.8007406482742525	-0.5969299551335774	0.04989030833294272
293														9.09339468168131	2.3530001982949114	-0.059393161469003995	0.11679678697913481	0.2351159033148592	0.9649243610562381	-0.5954769924594226	-0.7609861873935009	0.2575017942612927	0.7948368776062371	-0.6046656386836796	0.05112536936225004
294														9.048391478433327	2.362986272425333	0.019483183339077625	0.11495314326820844	0.23074532259600253	0.9661999642686935	-0.6032505066934638	-0.7565442352835574	0.2524473137771434	0.7892240499546609	-0.6118802302405946	0.05223009490589742
295														8.931643122764585	2.167656874138496	-0.007638604143598876	0.11314549866413826	0.22658466200402153	0.9673972746894457	-0.61039040319401	-0.7524018477764013	0.24761868901864215	0.7839780939673617	-0.6185069525940515	0.05317422093573321
296														8.845117604497009	2.1745574292495586	0.056643373577650334	0.1116655031451973	0.22232830894128214	0.9685561101199249	-0.6167468101051361	-0.748724259330696	0.24297192371720694	0.7792009930900174	-0.624485473436341	0.05351360420042761
297														8.865339936759263	1.9348617554371104	0.13162188183829257	0.11080347366940446	0.2178819606610928	0.969664911936733	-0.6226156550584424	-0.7452631514869938	0.23860549262710076	0.7746433607144264	-0.630166871752358	0.05307897367985753
298														9.118127516264902	1.9303461082527489	0.23974813902911402	0.11032767045956454	0.2133883922148062	0.9707178782730572	-0.6275333035278936	-0.7424277366649634	0.23452720267360944	0.7707332600156389	-0.6350326368766568	0.051998000030250735
299														9.206959869823608	2.041728975759637	0.2899815511553785	0.11007883074488056	0.2089043481660321	0.9717209601213532	-0.632170592554687	-0.7397067562610284	0.23063880126909028	0.766970007843133	-0.6396818647258278	0.050637130744068726
300														9.286380901858484	2.328182747769385	0.28758727560331393	0.10989213681213456	0.20453927999960592	0.9726702427874038	-0.6364595077565234	-0.7371733340264918	0.2269245922913411	0.7634415585054223	-0.6440024522760066	0.049171416588326244
301														9.244699434440752	2.5388247703449727	0.3509381507679588	0.10986514578236845	0.20028469257680778	0.9735582631058259	-0.6408790110786808	-0.7344129573495406	0.22340926846465878	0.7597392598128854	-0.6484779487357419	0.047671869089154606
302														9.297984728490789	2.534905361587162	0.3831675963587693	0.11004409816876948	0.1958183401339842	0.9744462397307478	-0.6456294769124797	-0.7313134734362658	0.21987083051715298	0.7556804053301507	-0.6533267032945738	0.04594936084761003
303														9.34575323033903	2.4495945665308043	0.41761476852331175	0.11042975984820103	0.1912266738125353	0.9753141172783583	-0.6508330337057886	-0.7277349693604969	0.21637508314775236	0.7511468767006814	-0.6586608942334979	0.044093038343262114
304														9.546368177134221	2.3123124432874684	0.3835012837624403	0.1108990338954759	0.18647437588371354	0.9761806756025392	-0.6561564891258472	-0.7239868779891572	0.21284187153273088	0.746431554838816	-0.6641312427813444	0.042066926469791766
305														9.65656009325106	2.2439330924159533	0.44576234196150705	0.11136148739156382	0.18189529244252045	0.9769916692138109	-0.6615777516751445	-0.7200277670463313	0.20946334564962665	0.7415615265198158	-0.6696821016493752	0.040154515512909716
306														9.681930824018094	2.330348577661182	0.5529832402806096	0.11160066038796806	0.1775188043103336	0.9777690763760118	-0.6673209027409004	-0.7156846058937456	0.20610278419221806	0.7363613958960908	-0.6754869495430269	0.03859113409861237
307														9.584691952049504	2.264457287805786	0.32120641128569544	0.11181010239075573	0.17324239280862475	0.9785119183419848	-0.6731307441083441	-0.7111658948300714	0.2028252236944188	0.7310222310843331	-0.6813443647411243	0.03709924926461583
308														9.62002158696918	2.252329016526194	0.2437282073287666	0.11207788222616483	0.16900028060254113	0.9792228824286942	-0.6790943154921177	-0.7063820029617418	0.19963811399141643	0.7254443183194628	-0.6873597100849163	0.03559733093912992
309														9.644897801509876	2.020824034389188	0.16972214038679434	0.11236341706564673	0.1647549106520695	0.979913405317715	-0.6854482503413539	-0.7011114857667959	0.1964774303319667	0.719399165004595	-0.693756804609443	0.03415168295687737
310														9.677142495907816	1.8340866202448822	0.1651535008313755	0.11262703356395487	0.1606316884545575	0.980567494859391	-0.6918045722205062	-0.6956960690201912	0.1934254724814078	0.713247211817464	-0.7001460134958217	0.03277155200051429
311														9.561456512838213	1.5451478146795592	0.07271429886471109	0.11297686591415063	0.15652565843036959	0.9811910853759096	-0.6979555812494126	-0.690341112424836	0.19049187672663326	0.7071734118100106	-0.7063489695249647	0.03125538161676933
312														9.530175462362179	1.487424234676461	0.029705739229490123	0.11349312815255314	0.15268296557414818	0.9817368394257353	-0.7034116589626259	-0.6854892115718546	0.18792705726968606	0.70166327244455	-0.7118935684792221	0.029600663173728003
313														9.555470780264882	1.379774923887562	0.13882683435467877	0.11428535312668753	0.14918606844047494	0.9821824550682945	-0.7082467678684512	-0.6810603057131346	0.18585848322264975	0.6966529795131868	-0.7168684516459108	0.02782533324497255
314														9.6024575391686	1.426136356763203	0.09399841931446408	0.115260605079892	0.14617584358596325	0.9825210510052949	-0.7122315326082023	-0.6773124308342113	0.1843206852092929	0.6924169530529916	-0.7210273876832862	0.026043604501443718
315														9.679320263389362	1.43944484828186	-0.014592488617365295	0.11634871619305176	0.14360749055809763	0.9827715222246903	-0.7154328914420757	-0.6742298760834378	0.18322077403870907	0.6889257972256956	-0.7244245736114412	0.02429574170141202
316														9.732627405195947	1.5243551085396485	0.10366932863189392	0.117482151105394	0.14153774604481978	0.9829369311487902	-0.7178114755712546	-0.6718819246123497	0.18254140603551616	0.686254056242925	-0.7270087659882493	0.02266328454517058
317														9.685640339635432	1.6645473310781946	0.2748564333841915	0.11864520013416402	0.13983185121834563	0.983041387668889	-0.7196583368631794	-0.6700067657012043	0.18216150004305115	0.6841163604741867	-0.7290665177468119	0.02113807068043083
318														9.63177817183518	1.7064764868944575	0.3728573774056106	0.1199402636235713	0.13818929413243464	0.9831164997847853	-0.7214139337763533	-0.668178268729092	0.18193333216186852	0.682038319535813	-0.7310550732915906	0.019550204586948394
319														9.665935776806437	1.675472447695955	0.4159475393624028	0.12128198067533352	0.13655381897607993	0.98318041868546	-0.7231454180511319	-0.6663527485117029	0.181754556758705	0.6799642531156489	-0.7330259675304468	0.017931687341984193
320														9.726685657253524	1.716067113033145	0.4486842787524057	0.12252183319589222	0.13494817580484353	0.9832483868470177	-0.7247591956243314	-0.6646574093464452	0.18153411954462806	0.6780210238246964	-0.7348602030643763	0.01636988710693027
321														9.840664700856188	1.7982329762243858	0.5649768531007746	0.12358989363770206	0.133556964586301	0.9833046706901754	-0.7261922023653364	-0.6631431734537291	0.1813450212316266	0.6762916703718915	-0.736480596290364	0.015030231980440567
322														9.94047661239927	1.931068708266495	0.595978376688172	0.12430152865085459	0.13257014192212835	0.9833485076237254	-0.7276030045785051	-0.6616420711304795	0.18117294897004343	0.6746428667846367	-0.7380074032019711	0.014215312718703355
323														9.979598468598237	1.9718663941537928	0.5288868499241722	0.12465209397109078	0.13180967832386276	0.9834063576003472	-0.7290037374402838	-0.6601757227600132	0.1808910331564047	0.6730641917876182	-0.7394553561767294	0.013797461897983587
324														9.935172148372663	2.025201146179933	0.5207579942887397	0.12470408732518862	0.1312952065260401	0.9834685858468875	-0.7305287267582288	-0.658580539172861	0.1805531855265518	0.671399039309257	-0.7409677740401863	0.013787234985244534
325														9.86559677704653	2.036601475052289	0.5107160205086122	0.12448147123016895	0.13103132518405547	0.9835319797245453	-0.7323331610155294	-0.6566775050657956	0.18017434783443814	0.6694718101588563	-0.7427014515679047	0.014214402609746157
326														9.784571337973416	1.9911787562013654	0.3586098902319187	0.12411912270243686	0.13079525611270665	0.9836091929003048	-0.7344798169701154	-0.6544056344433564	0.179701597300453	0.6671835143670168	-0.7447455045766976	0.014842222531579241
327														9.760800910209737	1.9270384757386365	0.28873690120050083	0.12368947683221287	0.13063538199875285	0.9836845583270142	-0.7368833501475187	-0.651830346584823	0.17922089037408162	0.664608036060611	-0.7470285109961662	0.01563848338260515
328														9.758580656046266	1.7946941359947692	0.2027153851217931	0.12314359277682213	0.1304047275744512	0.9837836462272836	-0.7394235186860044	-0.6491186539040426	0.1785996449263323	0.6618825542133772	-0.7494261672640188	0.016489519336192193
329														9.69059406810187	1.6669465385008784	0.1568621211201223	0.12256592748889167	0.1303325925393266	0.9838653407559214	-0.7418326997944482	-0.6465133901474183	0.17805808567928538	0.6592888888298266	-0.7516873363853283	0.017444465697252498
330														9.653558914780222	1.6000656385005445	0.1559641057259396	0.12187964880771807	0.1304233392514697	0.9839385670787602	-0.7439917251667587	-0.6441696265156314	0.17754381193976532	0.6569791960860694	-0.7536811294262372	0.018522717319386373
331														9.576417866154308	1.5624791821172777	0.13148167914551123	0.12121010732038806	0.13060913089201687	0.9839966284551043	-0.7458269787634929	-0.6421640481700359	0.17710859094463127	0.6550192574511844	-0.755358583829895	0.01957504029613355
332														9.545824544349362	1.5631433914924495	0.2237689205329337	0.12060267751628811	0.13094788576855776	0.984026242225606	-0.7472605241937323	-0.640572873697939	0.1768278893842043	0.6534957560364186	-0.756649882505184	0.020597382049198976
333														9.554134279529185	1.6576265054353907	0.31187084188188097	0.12012775586899205	0.13139046311590846	0.9840253393445046	-0.7485701220161876	-0.6390731832853922	0.17671513469464473	0.6520828894355002	-0.7578403608990902	0.02158454766231177
334														9.574734141730486	1.7105292743340623	0.27635060780778775	0.11972546823375019	0.13186539173959244	0.9840108387195605	-0.7499055595986343	-0.6375169931800202	0.17667409286526747	0.6506208296229596	-0.7590675871541807	0.022559569868721763
335														9.59220536745775	1.7024417344758165	0.27144404069590006	0.1193880086487834	0.1323971983085655	0.9839804293129619	-0.7512379441320312	-0.6359348330934409	0.176715702060392	0.6491440939322777	-0.7603011705491846	0.023538805712745192
336														9.61867277924187	1.712652116740328	0.14661043507840715	0.11901507930502198	0.13303537756259948	0.9839395302633169	-0.7525599646203311	-0.6343474226571573	0.1767960605298342	0.6476796357371954	-0.7615148952482804	0.0246201902172844
337														9.561234551726873	1.7976451450493642	0.20541635540771522	0.11865229794241655	0.13376108399942088	0.9838849549618516	-0.7538689006709847	-0.6327518527109386	0.1769372021141868	0.646222340061148	-0.7627142750061622	0.025760859995728247
338														9.53924556766884	1.8664994149681753	0.23564682327478428	0.11828650092079451	0.13443926887448554	0.9838365650271439	-0.7554618644264987	-0.6308231435533451	0.17702975160891804	0.6444266250684825	-0.7641912355830642	0.026945878365273013
339														9.549797039914989	1.8567262297350888	0.26664674755290707	0.11799155657043459	0.13498909493466021	0.9837966948647511	-0.7573772882468259	-0.6285093503440928	0.17707523761930033	0.6422286476216793	-0.7659986558596357	0.028078878098334092
340														9.613903325030606	1.822449284240823	0.25344040074416085	0.11764878132478335	0.13545290525591241	0.9837739957482743	-0.7595569849462229	-0.6258913295837351	0.17701194923311542	0.6397123969974288	-0.7680576501862582	0.02924884815111245
341														9.64658375263709	1.7900742275510386	0.3229292283796831	0.11730375054166203	0.13599157626734004	0.9837408811740943	-0.7618555065600466	-0.6230998407736952	0.17698241593991765	0.6370369041374243	-0.7702291085203932	0.030513982940386708
342														9.694504100559133	1.7942036975984434	0.3108964170387871	0.11689109193865738	0.1364751346525928	0.9837230353341053	-0.7642921073983	-0.6201458923489769	0.1768520476877688	0.6341877065932877	-0.7725241807375665	0.03181733775315193
343														9.690896383461972	1.6841517410598827	0.29573045653417945	0.116388818016805	0.1368579695563551	0.9837294034487143	-0.766788782006758	-0.6171345180872649	0.17657845387756665	0.6312595399906791	-0.7748644286287191	0.03311359866648805
344														9.66716279343821	1.6264860588396044	0.22749309250225858	0.11584894957201292	0.13718489528618377	0.9837475923164338	-0.7693109174848407	-0.614087253634763	0.17623154417398545	0.62828316316904	-0.7772240020924686	0.034396474378526165
345														9.701992479404854	1.4544069796689592	0.2471136059140196	0.11535291781419116	0.13739255738405215	0.9837769002813708	-0.7717990472335936	-0.6110704309744353	0.17583844596115694	0.625315868214672	-0.7795615521331126	0.03555068768312192
346														9.723495205739633	1.3390926575481827	0.1795876441025295	0.11480322722765995	0.13763890929041844	0.9838067643940338	-0.7741162294689069	-0.6082500559111435	0.17543070642545255	0.6225466105368791	-0.781720794231185	0.036719444108107735
347														9.710869901662395	1.2712404758273639	0.12665145501006525	0.11434428572012034	0.13791369893096694	0.9838217297713719	-0.7761599894227513	-0.605729559753414	0.1751210188989602	0.6200814907271707	-0.7836271511938022	0.0377813812539447
348														9.689819589959127	1.2136471164787672	0.17803584347506013	0.11394856514094537	0.1381906293072701	0.9838287831091244	-0.7778716145124874	-0.6036006032823371	0.17487727997923314	0.6180060483830689	-0.7852194990503354	0.038715145267511575
349														9.648538210862315	1.210457620840817	0.17689039055666006	0.11360107285769244	0.13847698439564926	0.9838287051302522	-0.7792387394368636	-0.6018875741912546	0.17469497701712894	0.6163455063569697	-0.7864829768194952	0.039531556593643435
350														9.58736446762441	1.3060315581705835	0.18140784721989547	0.11334733670091646	0.13864059138640422	0.9838349290825354	-0.7802629818882953	-0.6006070012431854	0.17453053931176177	0.6150951636597342	-0.7874325472557613	0.04009891725107334
351														9.526373005581718	1.4461418546163844	0.24305583555009772	0.11318962488323714	0.13879743743878192	0.9838309713457999	-0.7810778002179506	-0.5995705656110583	0.17444943926399853	0.6140892270879533	-0.7881943974764498	0.040546429698026354
352														9.564175773807834	1.550789547600545	0.3203467481827985	0.11313482350400034	0.1388574628632015	0.9838288045782733	-0.7819100645113861	-0.5985027280644386	0.17438788809784217	0.6130392831838101	-0.788994986997142	0.04086254723902033
353														9.57322405789524	1.6738574689870922	0.39355228941905573	0.11306570070442645	0.13888348829255093	0.9838330773072792	-0.7828372840638755	-0.5973187359776033	0.17428744742411634	0.6118675788140053	-0.7898871465784285	0.04118691134906749
354														9.564355720866333	1.7592559898489712	0.4233663920905465	0.11293155215826123	0.13878257837438446	0.9838627244015721	-0.7839516701394753	-0.5959260755148684	0.1740456589719338	0.610463957504989	-0.7909560723966946	0.04149997742338607
355														9.532541663687901	1.8779101376340916	0.48887286268996866	0.11266717406978116	0.1385985042282944	0.9839189816813215	-0.7853486721138327	-0.594205097512815	0.17363111846332596	0.6087146877611621	-0.7922819931788587	0.0419007420980268
356														9.518874078919653	1.94331897052878	0.48182877466655244	0.11223652005530071	0.1382340089341586	0.9840194725409999	-0.7870468113651307	-0.5921519558292893	0.17295484360817592	0.6065972966357971	-0.7938812379578819	0.042335561087628926
357														9.450062820791151	2.0756111928316723	0.4543861551015953	0.1117415743885456	0.13755830400747948	0.9841704799229427	-0.7891022995700816	-0.5896851387473435	0.17201452832169628	0.6040127327849791	-0.7958323630885542	0.04265522822010637
358														9.482366230505832	2.1577693149213517	0.3701077339195994	0.11118832660922007	0.13646675802245178	0.9843850770814655	-0.7915097760088801	-0.5868179536096314	0.17075410332925162	0.6009570953971788	-0.7981362748780723	0.04276746678890708
359														9.411760271436767	2.4240604905921264	0.2707439125760509	0.11048946927940179	0.13497220453126269	0.984669782811643	-0.7941554870155724	-0.5837075798434669	0.16912280649381084	0.5975860938989598	-0.8006672000508419	0.042695376111821615
360														9.288450994649121	2.4635267570076036	0.2549392376143503	0.10978415391159319	0.13310673719373123	0.9850025563741219	-0.7975467764963063	-0.5796185204622346	0.16721695499416755	0.5931834276598319	-0.8039433856005096	0.042525920318365495
361														9.166344971015478	2.368530930428507	0.18562248064171413	0.10922349464416564	0.13099061276531965	0.9853485107235316	-0.8018788361514879	-0.5741892635732571	0.16521810351633848	0.5874185563548795	-0.8081758156271236	0.04232364215639367
362														9.195678959527502	2.267347925386516	0.21715324736120897	0.10889266457759283	0.12831996384692673	0.9857364629958232	-0.807288339999207	-0.5671961459518599	0.1630155456350153	0.5800240716578211	-0.8135247500203546	0.041827710931904405
363														9.514776334080434	1.6399819670788318	0.0771569886795202	0.10877772228865468	0.12536870818883683	0.9861288425660992	-0.8135836559645195	-0.558775851213767	0.16078303034753488	0.5711821442246761	-0.8197879208108596	0.041215567586885105
364														9.743271656170274	1.0403952069997937	-0.07193758758607402	0.10861228423399749	0.12263314492508137	0.9864909951333857	-0.8196552360169299	-0.5504442429875509	0.15867082098449342	0.5624665908154053	-0.8258161097530408	0.040731892772734424
365														9.849150185074523	0.7022677163370352	0.05966092038881702	0.10841637572469848	0.12033883299417558	0.9867950419151492	-0.8250082508799592	-0.542917641969767	0.15684967331167254	0.5546235439058746	-0.8311191246214877	0.04041936706209864
366														9.786546565849411	0.4923200312023325	-0.05511641031983383	0.10833028442991405	0.11842258617036594	0.9870362914098227	-0.8293360433509027	-0.5367010935102692	0.15541448910558853	0.5481480426622025	-0.835420868370909	0.04007113694409925
367														9.767870682008866	0.36607369851048	-0.03934598513266614	0.10848032304417332	0.11688611119670383	0.9872029459647815	-0.832561389962303	-0.5319586148710463	0.15447188743753865	0.5432067299438306	-0.8386642171177863	0.03960782081787395
368														9.865443237597104	0.10665495308686226	-0.028630431528632518	0.10878098514761902	0.1156280360001497	0.9873180108562095	-0.8346503267788679	-0.528843262335551	0.15389488584817052	0.5399310412249357	-0.8408061376875411	0.03898088696678165
369														9.896875424536857	0.33904680867708925	0.016110922400218095	0.10923083109515458	0.11483863778307635	0.9873604776424816	-0.8354418113684163	-0.5276222369476284	0.15379127054498315	0.5386145238997193	-0.8416809742120277	0.03830838411850074
370														9.86942505471829	0.5744328533591185	-0.002092631750801913	0.10973165692883902	0.1143011525860228	0.987367312597069	-0.8352227242426717	-0.5279263337746873	0.15393760754236513	0.5388524513967636	-0.8415634453947747	0.03753668870551147
371														9.754224929471185	0.8433881618063985	0.059691062064095746	0.11032886372656203	0.11406951445673641	0.9873275483345991	-0.8342360181808455	-0.5293553474841572	0.15437999242031036	0.5402571682065622	-0.8406967717087603	0.036757723540703724
372														9.726168787817116	1.0953617406129026	0.1880712929484159	0.11109495843858214	0.11398931465335005	0.9872509034457192	-0.832889514881187	-0.531271653607627	0.15506607002822442	0.5421742950477367	-0.8394979846419388	0.03591890270613157
373														9.593365875238696	1.2836471091373842	0.26334899462359423	0.11194483531376115	0.1139060320481608	0.9871645099524284	-0.8314496379824556	-0.5333017363914254	0.15582283998417512	0.5442057086666936	-0.838221136589226	0.0350067540575803
374														9.62693368088346	1.3695392341254715	0.22320920788646878	0.11289573225897648	0.1136905100905794	0.9870810612878019	-0.8300914144060592	-0.5351916002659751	0.1565828685843147	0.5460794789836528	-0.8370450519058628	0.03395266871475472
375														9.661073434776094	1.3641033926576112	0.18230325036575448	0.11382756367182867	0.11354486629103328	0.9869908049660275	-0.8287036734787356	-0.537110083795605	0.15736257321208041	0.5479904262953733	-0.8358351040869423	0.03295711553800562
376														9.716486349387557	1.4243901519618416	0.1764523187133668	0.11476223757292903	0.11345828359605031	0.9868925203438786	-0.8271393619023995	-0.5392759880557036	0.15818307336196297	0.5501546190108252	-0.8344510929886682	0.03195729323755386
377														9.712870703083786	1.4984149127423436	0.25148259940761303	0.11571451223677748	0.1135331456041413	0.9867727076216861	-0.8255413076975613	-0.5414493896490638	0.15910407830617318	0.5523510667526634	-0.833032282266351	0.03107274946491817
378														9.716389806241487	1.4885216557274052	0.2949644603002418	0.11662504699620752	0.11375174344964722	0.9866403292361907	-0.8240135989719377	-0.5434903432134451	0.16006197406956768	0.5544368197752092	-0.8316722838329398	0.030348396690023316
379														9.713314557970092	1.4655813992534996	0.30090472823472825	0.11743874306710267	0.11415153245579995	0.9864976276022213	-0.8225685613073517	-0.5453892303629917	0.16103275863257377	0.556407318046386	-0.8303734190363126	0.029847636127032562
380														9.699119802824466	1.4552040668995243	0.2909890078011222	0.1181484143466498	0.11462209005952356	0.9863583165654146	-0.8211175195810303	-0.5472991728411716	0.16195565579647264	0.5583967865456145	-0.829050898243139	0.02945567683445205
381														9.674020527830598	1.4646108531050004	0.3372089421727392	0.11876069772894865	0.11514222466441287	0.9862241959991973	-0.8195889110008898	-0.5493275736611278	0.16282884811959325	0.5605086204861693	-0.8276360824147941	0.029130764593179925
382														9.655362141712482	1.4793423800589078	0.3504828384455263	0.11924446165776426	0.11561632242345737	0.9861103510019683	-0.8180709736798608	-0.5513664492978355	0.16356931439356875	0.5626194454393082	-0.8262129898385602	0.028834962035569123
383														9.6610690076776	1.5080576554438476	0.46013759426450607	0.11961482443980354	0.11595030681234497	0.9860262776033702	-0.8166083411916798	-0.5533630223960295	0.16413464759429947	0.5646619438836024	-0.824830219981576	0.02849556693131522
384														9.687879656456623	1.593397556269739	0.5303124935375298	0.11978424339890703	0.11616047884115888	0.9859809725287524	-0.815293504205506	-0.5552028805977349	0.1644574819711293	0.5665229360172971	-0.8235632972221202	0.028200326859304514
385														9.753088697502395	1.6042407948472772	0.5598020267598984	0.11971295192079878	0.11625543833005492	0.9859784390143097	-0.8141147231183313	-0.5569141088190046	0.16451107257657832	0.5682306105309453	-0.8223936700005783	0.027975432054008875
386														9.72939828294913	1.711658741901004	0.44720282911197135	0.11939045433295381	0.1162289740888317	0.9860206615464143	-0.8129527807001489	-0.5586740659072005	0.16428957494196866	0.5699593808036382	-0.8212028456264473	0.027788317130742035
387														9.759032060128161	1.8130747860464653	0.43323368674998375	0.11880038811088633	0.11609759966444705	0.9861074054771404	-0.8117981342198959	-0.5604968435867473	0.16378973596165897	0.5717256834022759	-0.8199784361075892	0.027660572241974157
388														9.686870207182249	1.8759646715215235	0.3587513373615594	0.11799780642873053	0.11591691543312166	0.9862250181345426	-0.8108546462808632	-0.5620677034850516	0.1630786292062109	0.5732288027330313	-0.8189280587545595	0.027669013385822283
389														9.52393753896656	1.888644225822804	0.24196971926352448	0.11710042935900145	0.1156615994777272	0.9863619436343802	-0.8102008002985159	-0.5632536848105205	0.16223424343527515	0.5743362713947142	-0.8181489356795776	0.027751872131309474
390														9.309778793752972	1.8112723834407962	0.02933056269481369	0.11623332119659607	0.11516371218112204	0.9865227490738732	-0.8097969957781435	-0.5641123364766187	0.16126406128949805	0.5750814209069023	-0.8176274159001478	0.02769057775028233
391														9.05699701946322	1.682721665399583	-0.12988913787300785	0.11558707694993359	0.11438041809205268	0.986689792994362	-0.8093986188907643	-0.5649554864440931	0.16030961940707428	0.5757720932625104	-0.8171550760374708	0.027277799146955106
392														8.939166522408001	1.5359209608714155	-0.32355294315814576	0.11537445526124879	0.11331377825056682	0.9868377388060063	-0.808673203482744	-0.5662053454189517	0.1595592579199413	0.5768330651428772	-0.8164382980223227	0.026308182762900367
393														9.003425998913409	1.5065783069760834	-0.2909708127425017	0.11578464400201	0.11219995972905061	0.9869169596526989	-0.8071829856936334	-0.5683955438815586	0.15931771182859272	0.5788346428990226	-0.8150691226714373	0.02475442278814549
394														9.213807510350252	1.6850120411004637	-0.14976597657358337	0.11689384419305665	0.11150790657380072	0.986864639128031	-0.8049654216758794	-0.5713669053550468	0.159907877764579	0.5816927875570953	-0.8130841569213647	0.022970735023732314
395														9.354626623749574	1.9339103259303754	0.039159624765615075	0.11868842290952081	0.11177380997163322	0.9866203290383165	-0.8021188527761625	-0.574877406618888	0.16162089400877222	0.5852507191694033	-0.8105692954729824	0.021424587466956024
396														9.515453771477192	2.295433490226761	0.24755705521058347	0.12120785199746176	0.1131571999642344	0.9861562273343997	-0.799000497446636	-0.5783725271778781	0.16457042530753557	0.5889879979203226	-0.8078865439541181	0.020309367387517596
397														9.868261000822816	2.4436200737722507	0.28396816454681706	0.12447712757261442	0.11568673579663602	0.9854552368687228	-0.7958781534475788	-0.5814532469938941	0.16879006613284464	0.592522919030263	-0.8053127968193335	0.01969491566063486
398														10.174936444619494	2.4718657177590617	0.49493739334698944	0.12806993796157468	0.1195118578570395	0.9845379661658954	-0.792758666917452	-0.5841625831116122	0.17403382579152188	0.5959293473372355	-0.8027895068596302	0.01993039533699731
399														10.341371192515075	2.3217834724413624	0.6484009943661577	0.1313158667688626	0.12465882327802502	0.9834715658897718	-0.7896573433046421	-0.5866138593331007	0.17979282578395334	0.5993308129070257	-0.8002151946928167	0.02140604781225436
400														10.570679042286491	2.3235645631550166	0.9018235267828442	0.13388162902160655	0.13094338989911797	0.9823082703776083	-0.7865026931144645	-0.5890036804097531	0.1857099302338453	0.6029006743520986	-0.7974512481057967	0.024130556568214168
401														10.688353021589604	2.264560951215433	1.2301301969212528	0.13549843681327106	0.1381715451272582	0.9810957128324975	-0.7833995148237116	-0.5912909492416822	0.19146857057711536	0.6065685235776197	-0.7945335974406726	0.028124522091053483
402														10.481691363677013	2.1570712343183853	1.6082417127919042	0.13656643075865904	0.14588409971267652	0.9798303115544358	-0.7804973291494535	-0.5932705204657545	0.19711420227082316	0.6100602668428838	-0.7916741242438805	0.032841312736776485
403														10.206924613594984	2.0593643003751283	1.747709136081301	0.13748978499511816	0.15373340658817458	0.978500178191497	-0.777597520134997	-0.5951696925693799	0.2027686704764151	0.6135459686950111	-0.7887579329209089	0.037712962657895144
404														10.31697680711987	1.3502439480680275	1.7123984144480753	0.13851204833761233	0.16162828270250806	0.9770827552955573	-0.774645377674847	-0.5970112764376045	0.2085715096875329	0.6170404778556374	-0.7857823070271951	0.042511347316996184
405														10.5496102227722	1.1457921022622182	1.8427346063675716	0.13929838785911292	0.170399161089616	0.9754794129246434	-0.7706212088984927	-0.5999848253788063	0.2148514875698761	0.6218833584649757	-0.7816535902911967	0.047736288598969834
406														10.820917790889414	0.9274472826118938	1.7607739128975222	0.13962781905509625	0.18015883170528385	0.9736769831440529	-0.7652272220097853	-0.6044277796304204	0.22157246648946755	0.6284356536998069	-0.7760218132047751	0.05346750966025293
407														10.89261808921385	0.9834661559937449	1.6460053643578783	0.13933928156353853	0.19148394036260968	0.9715546640290321	-0.7579358391436162	-0.6107822196868582	0.22908152229295375	0.6372737467956918	-0.7682961542905203	0.06002658533831057
408														10.965014111197165	1.0368542810331882	1.7247025782834702	0.1383324645789084	0.20447143091794107	0.969048792983044	-0.748757805486896	-0.6188477964912773	0.23746400464141543	0.6482483150506237	-0.7584318286545337	0.06749283901101782
409														10.846696317928322	1.3254949884784069	1.759697966571115	0.13642607939338158	0.21935273354567553	0.9660601964408793	-0.7374707982944526	-0.628637952807864	0.24688285876601457	0.6614565341156537	-0.7461224447606284	0.07600362425654117
410														10.62011274191218	1.7559299010151703	1.9451845569870694	0.13374818011346729	0.23581264463879173	0.9625506848705653	-0.7245120567353257	-0.6394269179919636	0.2573237186744491	0.6761610044667495	-0.731796155480307	0.08532691757445904
411														10.459541400662246	2.150178310412159	2.1774897513930354	0.130565158884956	0.25349815351467886	0.9584839202876568	-0.7097596965733848	-0.6511072629615258	0.26888753269500654	0.6922383349724311	-0.7154005998623426	0.09491084928077131
412														10.47296879345677	2.511964839646563	2.4892252725862565	0.1268287450289246	0.2723353818109464	0.953807060808565	-0.693418468740701	-0.6632390073844711	0.281575649325297	0.7092850602146427	-0.6970993178145759	0.10472461247845855
413														10.493924733579608	3.3765421417839057	2.7636496805542183	0.12220154627248236	0.292383937666448	0.9484610772632039	-0.6758513574345044	-0.6753129913750191	0.2952580334792965	0.726836793745716	-0.6770996947826711	0.11508378939999148
414														10.48880632360078	4.112604139018338	2.9091383313688133	0.11665396447029336	0.3134491151460125	0.9424125979567252	-0.6581529233900377	-0.6862319075303653	0.3097103461629628	0.7437920287328371	-0.6563805461021959	0.12624577890793992
415														10.383058105382794	4.816036453277518	2.980718118359069	0.11004040088016465	0.3352857969905906	0.9356679670216976	-0.6411193614031084	-0.6954168218486982	0.3245942210266931	0.7595110760273365	-0.6355933277074577	0.13843427019909899
416														10.174849514025738	5.279020729984797	3.093280219381734	0.10244890218624225	0.35741176778626055	0.9283108588661094	-0.6255943583892487	-0.7024139736997503	0.3394794666881495	0.7733924755209206	-0.6155253348150882	0.1516332450631973
417														10.109665800478115	5.680610319119233	3.15920679208962	0.09400052464247183	0.3795923022340669	0.9203660062451134	-0.6119314767050662	-0.7071817899089965	0.3541663222818684	0.7853048893165612	-0.596492749415907	0.16580901878292048
418														10.08761044631513	5.844724773419195	3.2709698867186305	0.08492970577987141	0.4018707102410902	0.9117493500554119	-0.6005978747842128	-0.7094847324282079	0.36866462707447456	0.7950277591888422	-0.5789053002880489	0.18110636492838256
419														10.142132988134835	5.807519428494095	3.282493414396663	0.07532293059886797	0.4242735610393318	0.9023959228237916	-0.5913565649027579	-0.7096478194501705	0.38301094696630833	0.8028847172990704	-0.5624872600802816	0.19744420218119668
420														10.18482245249961	5.646238126704475	3.30125024055388	0.06538003974668821	0.44680096186234836	0.8922411954632006	-0.5837515474795425	-0.7080611624288617	0.39734559400492653	0.8092957316197587	-0.5468256493058539	0.21452768595980876
421														10.159825312652195	5.480235949199976	3.36329064461387	0.055197580087326836	0.46933884415269445	0.8812912552169773	-0.5773973306532254	-0.7050857078209433	0.4116630505415427	0.8145953288026101	-0.5315780224915733	0.23207597095976004
422														10.147732347226182	5.392537588007291	3.40120690002095	0.044907986575372316	0.491860287396214	0.8695152272526692	-0.5723120930597231	-0.7007353901023936	0.42594457526261087	0.8188053131723962	-0.5167623929240216	0.2500289750810774
423														10.203956326349157	5.237636591624568	3.4510686763551104	0.03452088096468592	0.5140105516440273	0.8570889461287118	-0.5681628914017746	-0.6954386523199715	0.4399500081751995	0.8221917280120242	-0.5021535956836172	0.2680345662981122
424														9.999607580675763	4.961595954073042	3.381372000587464	0.023670722424933843	0.5361499449533789	0.8437908114138066	-0.5647406065177552	-0.6892865080145448	0.4538195205355015	0.8249289328480602	-0.4872651705135545	0.286469735494968
425														9.687966412429386	4.80916478415492	3.3329123232800515	0.012628748680713286	0.5582941428276548	0.8295469635837948	-0.5614658012087869	-0.6825203253639387	0.467891183437002	0.8274035706834569	-0.4716711307144391	0.30484369055440214
426														9.406581525803077	4.721502789848307	3.309754912485502	0.0014739696823048987	0.5805457945777734	0.814226263277866	-0.5583064691295347	-0.6750330895565494	0.4823113253199129	0.8296334816902503	-0.4552987023941542	0.323127494430158
427														9.288749990512212	4.909680190396658	3.4651824475448185	-0.009515552810575978	0.6026825908915826	0.7979242751608188	-0.5550875605679638	-0.6669072687980176	0.4971041087408908	0.8317374912539507	-0.43818761901790154	0.34088760051079336
428														9.150753346392715	4.900953197475449	3.421382284619313	-0.020418856590848078	0.6247861859361404	0.780528854148835	-0.551864470334284	-0.6580289787383639	0.5122923672310633	0.8336837989778757	-0.4202857182963952	0.3582334969233064
429														9.080069313988178	5.069935733964458	3.265576679532996	-0.031224496357311726	0.6464533770323782	0.7623142804320712	-0.5486842175030653	-0.6485803450937051	0.5275311985287499	0.8354463838513405	-0.40179791846345386	0.37495035995202675
430														9.111124488522284	4.8127931845254315	3.056224850486496	-0.04230906417160729	0.6676227593997726	0.7432965721839141	-0.5455210651443629	-0.638712805064924	0.5426349787194485	0.8370285004542456	-0.3825255596395226	0.39122561987910176
431														8.838618501531926	4.634917930502158	2.9324812995076415	-0.05395010316405935	0.6879350484484293	0.7237642955305577	-0.5413181686027232	-0.6292219266293095	0.5577225182736426	0.8390852320886009	-0.3616975755588596	0.40633832839846884
432														8.556879967074154	4.589402379443931	2.9060891390809687	-0.06526500342292263	0.7071033111027808	0.7040918880058834	-0.5359836778511974	-0.6200115494096308	0.5729809557705843	0.8417018334334964	-0.3399861556389501	0.41946088920009905
433														8.441787657569071	4.6493356533895955	2.8920138076640165	-0.07657874601399722	0.7256759570836915	0.6837617282135583	-0.5294155934119222	-0.6107115448582705	0.5888552780005685	0.844899298799109	-0.31690032232153514	0.4309516917257445
434														8.248176819034587	4.485101683421317	2.6797090538870285	-0.08808236578323958	0.7435540498956958	0.6628490565141785	-0.5214801797162949	-0.6013828613677665	0.605307422898628	0.8487048479896226	-0.2923457352807233	0.44071992473915333
435														7.78554089597048	4.739289372416157	2.868427293051184	-0.0997340721997555	0.7606917944660669	0.6414055726873976	-0.5122033973358335	-0.5919003078401184	0.6223356854113404	0.8530538052198605	-0.26646204121932215	0.44866154948819514
436														7.195592610765346	5.01585277363001	2.945662248384836	-0.1111685921490616	0.7767032149965398	0.619978757647094	-0.5019566796601687	-0.5823050967017193	0.639500012587756	0.8577185061919407	-0.24011016256968368	0.4546054046825946
437														6.760433492025534	5.3436763882323355	3.167632653995622	-0.12198782632883043	0.7914557618882713	0.5989296679923475	-0.49132850788944726	-0.5724661795468872	0.656413566747459	0.8623892784367724	-0.21419675592512488	0.45869868343876463
438														6.383025053108336	5.615785784949817	3.4127334859107568	-0.13223538231027554	0.8053337707547504	0.5778852146812471	-0.4809657468498144	-0.5619040858972764	0.6730050138068416	0.8667097288149338	-0.18894791857515136	0.4616415601347679
439														6.211798078858102	5.770286057557175	3.4892087984036895	-0.14195515955557614	0.8183851591097862	0.5568612610196557	-0.4715193425208777	-0.550539470176799	0.6888946228605132	0.8703552391433225	-0.16477870956619234	0.46403635048288006
440														5.8828083632248465	5.932672195763865	3.440313247461788	-0.15110172012908263	0.8304348601135589	0.5362333571144244	-0.4632591427973809	-0.5386929489193812	0.7037051040025049	0.8732463780564268	-0.14208395367779664	0.46610397264839687
441														5.652902876132505	6.182832365839056	3.369937947396659	-0.15966749896186921	0.841409267951475	0.5162719569961403	-0.4562175692872886	-0.5266760306460545	0.7172711399579061	0.8754266498392995	-0.12100744831736293	0.46795873557703915
442														5.345494725188905	6.122490739211016	3.5069987637603997	-0.16770058872893273	0.8513034704955779	0.49715079569699216	-0.45069335590324167	-0.5147127269249507	0.7293464935722619	0.8767850429179559	-0.1017507241431933	0.4699944453413173
443														5.129853812231308	5.930049062187805	3.5354680785060326	-0.17517438818915254	0.8602306005393483	0.47887080472531207	-0.44604581908213037	-0.5029533105962161	0.7403249925807296	0.8776998695464795	-0.08391234269175263	0.4718068012884876
444														4.8982327910162295	6.02369385825359	3.6477663419727233	-0.18200672017516978	0.8683055021290076	0.46143158624390834	-0.4419281182445389	-0.4914387750234471	0.7504581725241553	0.8783923338212364	-0.06733116199758987	0.4731737762261726
445														4.722577705942721	6.0461838251047855	3.4430126302147275	-0.18848048842448462	0.8755851907188963	0.44477598774778837	-0.43865843250472136	-0.48026293318546065	0.759556643444449	0.8786659689983263	-0.05194313045871218	0.47460301950407
446														4.413520966438415	6.089515501969918	3.3011094989841334	-0.19474396548709316	0.8821416502082398	0.4288366785551883	-0.4358491112608331	-0.4694991127041611	0.767858147956475	0.878698093840828	-0.03737234455970723	0.47591277325010595
447														3.896997008459714	6.137973017885283	3.199064287532112	-0.2006485864399491	0.8880161490636443	0.4137238979824912	-0.43385597472393955	-0.45918777614862133	0.7751874479324501	0.8783559289695674	-0.023956319372143653	0.477406490117331
448														3.3751646230927297	6.0144504291739	3.064463345821779	-0.2057108535875502	0.8932309300688445	0.3997768756251777	-0.43276866202969944	-0.4494312324132461	0.7814875894705782	0.8777211002826043	-0.012250424476652033	0.47901523693807124
449														3.0817053275993618	5.979615019971942	3.101071294346249	-0.2097787394230753	0.8979466843737203	0.3868909827177517	-0.43150755200157037	-0.4401007662622799	0.7874722522736695	0.8773791159194965	-0.0017514444313985744	0.47979455956766137
450														3.1717333537492935	6.197415624767034	3.2494498548695807	-0.21322125232030043	0.9023081470825122	0.374668794093513	-0.42923401809524775	-0.4310094673389844	0.7937184619082351	0.8776644320403855	0.008417052494156974	0.47920172992022814
451														3.3331664835501345	6.3725971672252255	3.2622508353552466	-0.21629918304873652	0.9064484868436864	0.36272000787279624	-0.4264705682390371	-0.42191691077445376	0.8000681063687111	0.878258229587587	0.018364669921722365	0.477833884378603
452														3.5284671795464795	6.3866286556485985	3.2906598736844477	-0.2193172412782956	0.9102713178475224	0.3511496484153341	-0.42320617145841194	-0.4130473094466575	0.8064046481750897	0.8790884393038001	0.028249744476934235	0.4758208358399166
453														3.4618314431523594	6.283004529774992	3.5989249542614576	-0.22275407660812446	0.913698497136192	0.33990539519920115	-0.4188375514818695	-0.4045432750036101	0.8129697682681841	0.8803156972490797	0.0387271865801897	0.47280490500464256
454														3.095624981968204	6.356482752853403	3.7917332224097184	-0.226433072562029	0.9166150325239959	0.32946159988859564	-0.41295742734112156	-0.3966845021141471	0.8198216690148252	0.8821531765254385	0.049581124770273266	0.4683454763447527
455														2.819345021592113	6.9956024374411925	3.703614700987371	-0.23001168046567272	0.9191464879527196	0.3197879931040856	-0.4057325648613755	-0.38924799556633216	0.8269625649076278	0.8845765725251642	0.060462646582613855	0.46245924761848894
456														2.7633710211759386	7.863658720477054	3.6008906751213976	-0.2332101790854223	0.9214819163231948	0.31061888265248483	-0.39810232537940193	-0.38190411337656305	0.8340646178286034	0.8872020913514903	0.07085425940191714	0.45590802035733896
457														2.535554379639646	8.430121890219619	3.7586099200438055	-0.23627328796256475	0.9237678902131414	0.30137653924371877	-0.3910715899136001	-0.3743321833656612	0.8407963059262014	0.889515567574738	0.08079790534326248	0.44970407329079554
458														2.194819204891911	8.610229220089145	3.7783573383922247	-0.2389161720888308	0.9259304603784385	0.2925266573456063	-0.3857026203626145	-0.36695712286295246	0.846508097200232	0.8911523726949471	0.08941617596116236	0.4448057959566729
459														2.12630973228884	8.349991776096898	3.7354550636651505	-0.24072180313839525	0.928027512268297	0.2842849801993	-0.38169739135047226	-0.35981303118646774	0.8513763468787767	0.8923901136442767	0.09643401402784546	0.4408405221941753
460														2.0426307464025313	8.01965783746828	3.679035010792827	-0.24217492395492457	0.9300681796720135	0.2762688678968622	-0.37920980067961685	-0.35282982981757216	0.8554010978829923	0.8930572396414197	0.1023928335016201	0.4381375062369778
461														1.9383444447371347	7.819841043356453	3.5843602653136064	-0.2431307459293492	0.9320135783370629	0.2687715204019616	-0.37745628506151374	-0.3461521437333467	0.8588978089716903	0.8935402583271779	0.1073749653511114	0.43595461181692774
462														2.12981285402128	7.7095333242483495	3.4391540711674877	-0.24353940268482666	0.9338243111031894	0.26203189754793543	-0.3761213265400119	-0.3399563075717758	0.8619526997834313	0.8939917824352188	0.11136366074630466	0.4340239947324137
463														2.2504067062951787	7.59206233026052	3.372950316032919	-0.2438198576157517	0.9354666189723344	0.2558399535270124	-0.374814933508597	-0.3341967597301637	0.864769501893311	0.8944638856047686	0.11495534165200189	0.4321106649626817
464														1.9748089906259583	7.358437010630867	3.5561338714947652	-0.24396602979403514	0.9369486391507504	0.25021555487237906	-0.3734093044213999	-0.32887561126123815	0.8674135828363959	0.8950117695751616	0.11818663169370525	0.4300998167993498
465														1.8851378223674182	7.334676625480835	3.6299033549011837	-0.2439963495738075	0.9382947710531744	0.24508917562578525	-0.37164454385233353	-0.3239034526659137	0.8700384395967172	0.8957377486850974	0.1212001483719013	0.42774339225192226
466														1.9664951886541437	7.617403088640505	3.682634156386873	-0.24365433654617213	0.9394918206162848	0.24080631901456234	-0.3694477883261111	-0.31947775865495975	0.8726066086305722	0.8967390344928616	0.12364902231680536	0.42493531660349027
467														1.9717252791841837	7.683109481508288	3.8028473357438766	-0.24349518124230662	0.9405071849462262	0.23697327228255427	-0.3673363783834894	-0.31555119208536	0.8749236711220074	0.8976491975309054	0.12599079425907944	0.42231769786984796
468														1.7649433284100033	7.586078772754652	3.8550688513721627	-0.24350659929721585	0.9413274098901592	0.2336819280307943	-0.3654710249044839	-0.3122283073031423	0.8768947565551299	0.8984071827706919	0.1281256863712294	0.42005754657895394
469														1.5810109853411072	7.5650801155751655	3.775253808765246	-0.24348010486659907	0.9419996087852163	0.23098522806155625	-0.3635394776803877	-0.3094256773331243	0.8786892501759698	0.8991976905564318	0.12997110161661501	0.4177930421183947
470														1.6724280123398025	7.690072813207577	3.629553657723242	-0.24284124402561905	0.9426696815931841	0.22891483482966762	-0.3615451393285331	-0.30692787475803507	0.8803865014437846	0.9001740067498065	0.1310311073811108	0.41535238830477245
471														1.7258355787512725	8.065159041937267	3.700132962054527	-0.24187089762852226	0.9433181327223681	0.2272649760908111	-0.35900249476512863	-0.30459837600244954	0.8822341175045791	0.9014519829878828	0.13179806453000126	0.4123270456244156
472														1.593200452440007	8.518188856669871	3.8910343029748287	-0.24072771197367837	0.9439237003183205	0.22596065291392564	-0.35615119089515557	-0.30247313251222085	0.8841189588127875	0.9028878656355287	0.13235577843681157	0.40899321510570974
473														1.5739083061021868	8.928940698783125	3.969457610363993	-0.2393546826167415	0.9445522171992917	0.2247897793346959	-0.353353173109612	-0.3003852962886675	0.8859515837939105	0.9043510772718789	0.13262647834226665	0.405659150370999
474														1.8167974170606012	9.285668524581766	3.923539913174105	-0.2376747953715254	0.945199311499225	0.2238502919062056	-0.35143099674520445	-0.2985179857724407	0.8873461932622668	0.9055423491873666	0.13223189370100857	0.4031225373462386
475														1.9476851470917766	9.314663828833588	3.800724482667873	-0.23586790035673824	0.9458278655703001	0.22310531659293398	-0.35094585020670727	-0.296994178182941	0.8880492488303393	0.9062027056922719	0.131164426717647	0.40198575765794964
476														1.913701540665224	9.030809372068196	3.7398413548915324	-0.23390311296095795	0.9464118626384526	0.2226969241017649	-0.35163420318932603	-0.2958917714767083	0.8881449469088829	0.906445100871851	0.1294320123832946	0.40200078765573277
477														1.887104312293696	8.583878438816441	3.787317388513856	-0.2317792693731584	0.9469543665950253	0.2226113156950003	-0.35287041529069435	-0.29510236875697227	0.887917260766225	0.9065102538313714	0.12724786654650921	0.40255079202250243
478														1.8581171262774314	8.177789220998205	3.8023126630525135	-0.22963143726693702	0.9474513373898577	0.22272262187952735	-0.3539680799934011	-0.2944650145921026	0.8876919248968405	0.9066289215354351	0.12500527372652276	0.4029859553086821
