// Start Time: 1748433505.005953
// Update Rate: 100Hz 
// Filter Profile: 46.1 human
// Option Flags: AHS Disabled ICC Disabled 
// Firmware Version: 4.0.2 
PacketCounter	SampleTimeFine	Year	Month	Day	Second	UTC_Nano	UTC_Year	UTC_Month	UTC_Day	UTC_Hour	UTC_Minute	UTC_Second	UTC_Valid	Acc_X	Acc_Y	Acc_Z	Mat[1][1]	Mat[2][1]	Mat[3][1]	Mat[1][2]	Mat[2][2]	Mat[3][2]	Mat[1][3]	Mat[2][3]	Mat[3][3]
0														9.266757860815167	2.3902808493943892	0.3181180375260134	0.046042092322585715	0.2856506860323388	0.9572271471828472	-0.2295659531134697	-0.9295708921591035	0.288439646410878	0.9722034760818653	-0.23302712721866156	0.022776283159352484
1														9.318518831282882	2.48390783498267	0.36717959004437595	0.04576164689117507	0.28597497340660577	0.9571437646763935	-0.22971801360553076	-0.9294569445383776	0.2886856811040571	0.9721807989766807	-0.23308389655760287	0.023160122335344147
2														9.416733678305993	2.7472683232204775	0.41408804843702085	0.04544879066659224	0.28617378300972707	0.9570992494746022	-0.22975123459194424	-0.92941162917589	0.288805113798382	0.9721876247054488	-0.233020577354277	0.023508145376820444
3														9.405733323103032	2.8494773997543446	0.39768373904987514	0.0450450349871665	0.28635359127706883	0.9570645566448119	-0.22981341772652397	-0.929371663545702	0.2888842398455628	0.9721917186727416	-0.23295907743854893	0.02394431838915001
4														9.409655021096167	2.7501613659216764	0.37551519236077474	0.04459622543960018	0.28642876217001206	0.9570630809295149	-0.22995565962640122	-0.9293473504658005	0.288849263090601	0.9721787753712416	-0.23296365893407323	0.024420530987710687
5														9.448871730938453	2.6122991985663147	0.32397583505803107	0.04406773985565138	0.28653106364287634	0.9570569386779959	-0.23009875782740358	-0.9293204052570863	0.28882199711776	0.9721690161439527	-0.23294534539347952	0.024977391961772677
6														9.453159684959392	2.589951552268277	0.3041104579227431	0.04352240462683804	0.2866797026059539	0.9570373808839752	-0.22999000111183454	-0.9293410029654852	0.28884234384121016	0.9722193166585795	-0.23268014165559417	0.02548630995370843
7														9.451746138056611	2.766881002992243	0.36284283228398584	0.04296353574579259	0.28683089484432606	0.9570173312741117	-0.22956070405158321	-0.9294382963306753	0.2888707954592727	0.9723456266943156	-0.23210448310348236	0.02591314669629763
8														9.417799033670999	2.7834240857659367	0.3474394883872697	0.042456929862828285	0.28697677512204295	0.9569962067046948	-0.22906320119317086	-0.9295493009491735	0.2889085442904715	0.9724851972990435	-0.23147878443921122	0.026270009303107744
9														9.469189459889021	2.7213441476073985	0.39324697044240486	0.04197842135395763	0.28715410436741734	0.9569641228831813	-0.22868539943159663	-0.9296199341183632	0.2889805636657625	0.9725948798073334	-0.23097467054791332	0.02664397376222627
10														9.501995744770852	2.6296397185461338	0.4154336092097523	0.04161695562624956	0.2873821353080656	0.956911457403547	-0.22810523494457163	-0.9297145144105592	0.28913478428791756	0.9727466426543375	-0.23030942229990398	0.026861481802014586
11														9.465904242520601	2.6703288255035216	0.4477051544911444	0.041297126580923826	0.28773568187824206	0.9568190658166372	-0.22721516800351235	-0.9298407461886679	0.2894295322810669	0.9729685579530795	-0.22935641281935976	0.02697816030311595
12														9.513873689329143	2.766376488725442	0.469439418478418	0.04103769227920029	0.28817042138924	0.9566993864578075	-0.22591598265803015	-0.9300329174263707	0.2898288137557235	0.9732820128781041	-0.22802758767250314	0.0269358992462585
13														9.40360315402197	2.885922639330475	0.5342533005894757	0.040727539804646606	0.2886466319781325	0.9565690719175177	-0.22431484893568426	-0.930284189238735	0.2902656986269483	0.9736652998070856	-0.22639445465847827	0.026859539301114954
14														9.33665348218392	2.9778824864468203	0.44494082967095094	0.040382698416193685	0.28922416908532034	0.9564092312841471	-0.22252319345126692	-0.9305478337367178	0.29079917039797804	0.974090686766318	-0.22456649158948055	0.026781053196522464
15														9.24258123544555	3.0307457194317893	0.4564498837480813	0.03995743165862453	0.28998992396906026	0.9561951932799417	-0.22051695155438295	-0.9308046834233481	0.2915045718240502	0.9745643527917529	-0.22250502311988282	0.026755129489728413
16														9.257031373930237	3.124486385385331	0.40707968407707473	0.039387521082522026	0.2909301960597731	0.955933179779631	-0.21850811323911135	-0.9310134663690536	0.2923493285235377	0.9750399107891216	-0.22039407083699336	0.02690029569058272
17														9.270779407023914	3.373545751198283	0.36084636933633063	0.038655920941662314	0.2919983419630546	0.9556373203611185	-0.21661391391237422	-0.9311627071948563	0.2932821594115626	0.9754917385994176	-0.21834143221196872	0.027255951715392468
18														9.260244062956376	3.5154219060028775	0.2444227606049086	0.03780210087108771	0.2931345391414021	0.9553235803287233	-0.21526746554060894	-0.9311721573747643	0.29424196099426536	0.9758232009177973	-0.2167730501985564	0.02790206548195484
19														9.357656619895495	3.410668681618939	0.11640162635735196	0.03683446493570092	0.29434815325247654	0.9549881605914062	-0.21443999809947942	-0.9310471402859166	0.2952400883696393	0.9760423707032376	-0.21566267002491118	0.02882539418170016
20														9.376825727622396	3.4285684907397407	0.12410943435353683	0.03584820815959988	0.2956085662441078	0.9546363085148445	-0.21407054416573332	-0.9308056153410901	0.29626796750590834	0.9761601856725838	-0.214980189814313	0.02991337318105647
21														9.442169015161001	3.385373348351138	0.12818298726504246	0.03485306862793164	0.29690886370340147	0.9542695584904568	-0.2142402820133979	-0.9304320357877205	0.2973168820345351	0.9761589856012372	-0.21480538502158852	0.031181427095158643
22														9.454367838726117	3.272409662628505	0.13944377257959523	0.03390227110152477	0.2981586146323726	0.9539140823652117	-0.21493681098502437	-0.9299538958867437	0.29830842899364485	0.9760393451586609	-0.21514458404889691	0.03255771270652347
23														9.377544766141845	3.104728828874841	0.11147825060094506	0.03302955230667787	0.29937215575330967	0.9535645552525728	-0.2157865542752645	-0.9294465132890462	0.2992746930979024	0.9758817611106528	-0.21565131878671978	0.03390128370902462
24														9.36305075810062	2.906001090551242	0.07561789189931725	0.03219525960421149	0.30046697055369304	0.9532486899363166	-0.21657986044639493	-0.9289848704448642	0.3001337610692258	0.9757338926715817	-0.2161173525907283	0.035166185478912704
25														9.3131173179408	2.7447885150116225	0.06703689265441388	0.0314086019836925	0.3015519262958416	0.9529322827298364	-0.2169877330020602	-0.9286073124867625	0.3010062838592217	0.9756689107725306	-0.2162288022983502	0.03626681139229593
26														9.26005585854389	2.6611199557222296	0.03278384773422084	0.03074245739740522	0.3026430366147682	0.9526080483083063	-0.21700705002906218	-0.9283044833722558	0.30192503438544616	0.9756858313775251	-0.21600457990413258	0.037137311555716424
27														9.293678204934526	2.6321763729862586	0.011920263556722512	0.030213033244378684	0.3036520070733398	0.9523038544616451	-0.2166438668201453	-0.9281016345103856	0.302808175233704	0.9757830740443232	-0.21545954288330524	0.037743579442442
28														9.317024619834564	2.625975511835108	-0.034332790907245635	0.02980930816039762	0.304575235368058	0.9520217072879641	-0.21604158534336834	-0.927968713632936	0.30364469354948015	0.9759290130687385	-0.21472771716507794	0.03813881135735281
29														9.357171726525257	2.7270142995359548	-0.05853605031229289	0.029451315671246925	0.3053658991927922	0.9517795372960121	-0.2152690715129879	-0.9279109122104514	0.30436912762418095	0.9761105710190672	-0.21385276853701546	0.03840763640065631
30														9.312963238271001	2.8481634404487015	-0.07452956648011398	0.029110925636466112	0.3058823867188261	0.9516241482348919	-0.2147041482896263	-0.9278930050642835	0.3048224070832076	0.9762451960014018	-0.21319131466354133	0.03866239304824021
31														9.294527047902724	2.8204875376274647	-0.09477508893704832	0.028915844044601735	0.3061219802570294	0.9515530501063536	-0.21443920819497797	-0.92788768283242	0.30502503837651535	0.9763092235311006	-0.21287033905971647	0.03881389952970693
32														9.359594648945517	2.7147597157575127	-0.07540237321213568	0.02885287252254537	0.3062041993484916	0.9515285072180166	-0.21482721392830512	-0.9277810584218458	0.30507634419836943	0.9762257832607169	-0.21321654704780538	0.039011846431705965
33														9.367059925764714	2.7147589718897485	-0.0003619545302042198	0.028879503549635477	0.3061577435740759	0.9515426476644953	-0.21544929505715724	-0.9276580145269988	0.30501181836643837	0.9760878933447035	-0.21381778254733066	0.03917116710594437
34														9.269456120985355	2.5725950066074774	0.08408656773501964	0.029024685870409128	0.3058906992593958	0.9516241105167113	-0.21630243769384871	-0.9275460794925374	0.3047482992007046	0.9758948832009638	-0.21468383852684708	0.03924317033008279
35														9.157659819007247	2.551984706707288	0.19425542456225858	0.02926039834356653	0.3054958532203951	0.9517437222035762	-0.21708708793240009	-0.9274828490502401	0.30438258979560445	0.9757135980100952	-0.21551762893738333	0.039180687531003455
36														9.167347589389326	2.470641376319335	0.2651061538014534	0.029626686855867335	0.3049786137659454	0.9518982637715792	-0.21766470314764158	-0.9274944426110199	0.3039344270222164	0.9755738498082007	-0.21619922310470083	0.03890449201994989
37														9.154766306716262	2.5348786165631223	0.36228312853215766	0.030051608496654336	0.30442558344926174	0.9520619543749977	-0.21783685384323545	-0.9276026299644079	0.3034805858548359	0.9755224271816842	-0.2165142605573363	0.03843916025182126
38														9.221727563602876	2.599947907083487	0.4741504062519614	0.03056515466594628	0.30384614082798983	0.9522306936998953	-0.2177722272438813	-0.9277652158009193	0.3030296378097574	0.9755209010377409	-0.2166315467650333	0.0378119635129292
39														9.238128082903755	2.6269869539427	0.467156289045357	0.031073753342086397	0.3032598902992091	0.9524011028915012	-0.21745012804873662	-0.927987228122578	0.30258080945916477	0.9755766826164021	-0.21650206321669774	0.03710785574632147
40														9.3357276072367	2.709518724914445	0.42696241416261566	0.03154972147289936	0.302700300330871	0.9525634589120998	-0.2169696792268369	-0.9282379094764817	0.3021564854623103	0.9756683726406153	-0.21621034108093057	0.03639113956008683
41														9.37854799652262	2.8985217335247135	0.4671444476526299	0.03195503412663986	0.30209922381327037	0.9527407489791678	-0.21644982466284826	-0.928515065082772	0.3016773894705377	0.9757706437464638	-0.21586067934145814	0.03571859343334566
42														9.389053810768782	3.0251814670087818	0.48616355860501087	0.03236264441398995	0.30149560163485933	0.9529181819240138	-0.21615274267333648	-0.9287432056233487	0.30118773189368253	0.9758230634092064	-0.21572311003529643	0.035112515081824947
43														9.388184522509356	3.043041049589103	0.5310257922695044	0.032722682833793204	0.300851707707242	0.9531093725264668	-0.21612562231027355	-0.9289273738292665	0.3006387359134869	0.9758170634955898	-0.2158290622698865	0.03462476672189263
44														9.405864030155435	3.0142009088750736	0.599376434456926	0.03301064722847846	0.3002102989335444	0.9533016697686987	-0.21637008709476363	-0.9290552798813577	0.3000671130516917	0.9757531873276979	-0.21617137492925428	0.034287812427077125
45														9.377564469657857	2.9694159913923386	0.6739904927437745	0.03316623303333821	0.29962898532540194	0.9534791409041143	-0.21660962450247723	-0.9291741233551915	0.2995258236947306	0.9756947635194491	-0.21646690195034682	0.034085316497647455
46														9.338535842546898	2.9256564713111857	0.6525616108401091	0.03323244983192847	0.2990950350919789	0.9536444642850379	-0.21674036872134783	-0.9293080702536218	0.29901525567774007	0.975663475202748	-0.216630262301503	0.033942784365450285
47														9.388490573546566	2.959585152168952	0.7456945832360912	0.03320956884222337	0.29869508748623813	0.95377060619884	-0.21688532916969266	-0.9294027766211257	0.29861552672273506	0.9756320405400123	-0.21677574476986813	0.033917516878470166
48														9.407231626920249	2.96425319193102	0.6959254544491272	0.033001525451451796	0.2983476313844247	0.9538865709114369	-0.21699183257104243	-0.929502281477953	0.29822819002357936	0.9756154180389612	-0.21682758029038396	0.03406400607795895
49														9.418043516151771	3.0147370995564367	0.7220352381312932	0.032748300561744714	0.2980396104699977	0.9539915824582571	-0.2170185047444373	-0.9296101748789468	0.2978722735670816	0.9756180181858093	-0.2167886375076556	0.034236957206621565
50														9.459507316716522	3.0278201155092255	0.6716361734501639	0.03237341085391365	0.2977810089046314	0.9540851288042511	-0.21702072252533527	-0.9297163666038986	0.297539045611543	0.9756300365734267	-0.2166885977724399	0.03452655979313063
51														9.44968077237284	3.048212859419673	0.6526700276123576	0.03186105431892533	0.29757975383929874	0.954165165640954	-0.2170236875081978	-0.9298138924277696	0.2972319708723552	0.9756462434089679	-0.21654656670855543	0.03495700457285389
52														9.40680033404419	3.00716909122074	0.61337637915868	0.031216786947981745	0.2974404889365688	0.9542298820272919	-0.21698620694467963	-0.9299100672095258	0.2969583352898785	0.9756754061717479	-0.21632480773954266	0.03551167903725394
53														9.41488904399847	2.981920805514643	0.6188304044781998	0.030423647090572437	0.2973651086819955	0.9542789916142204	-0.2167145092048146	-0.9300483234534106	0.29672367202772393	0.9757608432386619	-0.21583351959333136	0.03614787161272992
54														9.465723639736566	3.050183797772913	0.5967200046206864	0.029560299854512417	0.2973345232222245	0.9543156553115555	-0.21641014017765983	-0.930184347289303	0.29651936072752305	0.9758549276920196	-0.21528878595548295	0.0368496776243335
55														9.45027397386904	3.0723159396559856	0.5328561476723239	0.028620861295347078	0.2973490003060689	0.9543397813754253	-0.2161032459988479	-0.9303117513970725	0.29634343637285737	0.975950937992005	-0.21471752892927426	0.03763176056248679
56														9.393990741353562	3.0781980488146523	0.5231050377171532	0.0276021075852676	0.2973351146351081	0.9543741159848055	-0.21594549344283376	-0.9304202262872776	0.29611779138927635	0.9760151984055284	-0.2142662645412457	0.03852661886226949
57														9.417364547078977	3.0617275003267825	0.45679364106855885	0.026535125168774543	0.29736800297936916	0.9543941313400557	-0.2158592320358559	-0.9305015279772755	0.29592515671508246	0.9760638703881872	-0.21386719532461615	0.03949865424054977
58														9.36155486288907	2.99041107070568	0.4478746321131817	0.02546099250175038	0.2973996175457267	0.9544135400047932	-0.21587825544783176	-0.9305604616486222	0.2957258968049697	0.9760882729987211	-0.2135666048331489	0.040509117670162964
59														9.315499839815207	2.973227885075246	0.4629599521309415	0.02439542835930736	0.29747748071279123	0.9544171056429874	-0.21589030855642788	-0.9306058750268047	0.2955741531951097	0.9761128201937402	-0.21326006150793153	0.041519976144706316
60														9.30616703766589	2.895513320119712	0.37533295773384184	0.023398533368697128	0.2975444223868769	0.9544211991268078	-0.21582054172705994	-0.9306677535209695	0.29543023935418394	0.9761526532283936	-0.21289633454498885	0.04243993794147011
61														9.347288905942241	2.9107538649876195	0.3320350122090614	0.022379123779756427	0.29768464203348993	0.9544019219994496	-0.21563528534719595	-0.9307334434127189	0.29535856348908657	0.9762174955060393	-0.21241259663799686	0.043362313792277285
62														9.263600095787286	2.8331370666269997	0.27515141823856176	0.021432067834089408	0.2977974096951998	0.9543884792091659	-0.2153975838204995	-0.9308138906761523	0.29527848179069094	0.9762912205651786	-0.2119014008994604	0.04419557607046537
63														9.243546078671855	2.8022972464071367	0.23578200209412548	0.020552725082827406	0.2979570199295199	0.9543580039829861	-0.2148778367276057	-0.9309360476218482	0.29527206187087246	0.9764246518676872	-0.2111390288718114	0.044891087223793535
64														9.299419138544263	2.7950757217184434	0.2616709770619068	0.019791185303722925	0.2981280823159621	0.9543206775077658	-0.21426873671321842	-0.9310654146819524	0.2953067930990515	0.9765742252648263	-0.2103255574525631	0.045452639424717445
65														9.250240721092297	2.8576512955683953	0.24767533181132595	0.01914729795869069	0.29836335282362697	0.9542602845517179	-0.2136417692572218	-0.9311701954397535	0.29543063746560827	0.976724411187478	-0.2095265539652088	0.045913481396419153
66														9.245250377027837	2.858912695183873	0.20377975520772926	0.01861241682482423	0.2985197978984641	0.9542219386508572	-0.2131799388934155	-0.9312561525228251	0.2954933028712928	0.976835652294356	-0.20892081909433066	0.04630550459303234
67														9.25373652930429	2.8138940033744873	0.13316648212193824	0.018177258339128866	0.29869512406276827	0.9541754608772961	-0.21270448244720513	-0.9313321715692726	0.29559632837186917	0.9769474860124978	-0.20833052839464208	0.04660472629111834
68														9.25892659012027	2.7919769774111023	0.11103343401271852	0.01784780316798551	0.298847115072615	0.954134087922055	-0.2121007657807013	-0.9314353293170661	0.29570507681683206	0.9770848075153542	-0.20765025671253973	0.04676162753689628
69														9.266383313110218	2.769994961166828	0.11201133236695757	0.017614720139278395	0.29898127725117035	0.9540963879439407	-0.21143227665674208	-0.931550881321614	0.2958197895622806	0.9772339095744492	-0.20693755425776128	0.04680528405697715
70														9.247436022290653	2.7632987081998373	0.16329250666855827	0.017468343828449917	0.29912359478728495	0.9540544701459258	-0.21058875618516731	-0.9316945727823841	0.2959689152871209	0.9774186578597092	-0.20608323097569814	0.04671690463142686
71														9.215712330992918	2.857196641449151	0.16556108522806257	0.017433702506976678	0.29924521579406	0.9540169636024641	-0.20969497001238618	-0.9318471284558097	0.29612319858492464	0.9776114184932597	-0.20521508232347033	0.04650467093280641
72														9.238849782634887	2.9669231456296874	0.26004026523910506	0.017433779034424224	0.29937114153800903	0.9539774541166093	-0.2089017299614705	-0.9319742143415488	0.2962838689864114	0.9777812283776381	-0.20445288801257247	0.04629131684921867
73														9.178892130282037	2.9991076643478514	0.2878231892536132	0.017581608142399563	0.29946700761258743	0.9539446516474055	-0.2081628496296504	-0.9320890809022522	0.29644252950084377	0.9779361508243731	-0.20378777346631366	0.04595028070046764
74														9.158902368608036	2.969458125097496	0.23781310890426993	0.017759206086300272	0.2995054074163711	0.953929306357415	-0.20749338722025168	-0.9322049557525004	0.296547491525972	0.978075204091716	-0.20320047096115026	0.04559017155172518
75														9.145654835522857	2.9396994223298356	0.2603743767607956	0.017995653577524695	0.2995391876816107	0.9539142684200499	-0.20678428915296002	-0.9323262902500655	0.29666133261356464	0.9782210456802813	-0.20259309847966642	0.04516217705763803
76														9.125246289503158	2.9869741294316823	0.20897656257231673	0.018303177433377893	0.29955081144711226	0.953904767289282	-0.20592349211644523	-0.9324808383128722	0.2967743276866977	0.9783969077477763	-0.20186331400405494	0.044617186922638774
77														9.21691930155625	3.019918836131708	0.19561394236655003	0.018674662009036058	0.29962067546102256	0.9538756249297539	-0.20513385667242745	-0.932597927014984	0.2969532073813149	0.9785557510155177	-0.20121768650800764	0.04404639361878476
78														9.31560215011038	3.1078425877582982	0.18105157813382705	0.019151658297453633	0.2997931410137876	0.9538119765370658	-0.20455912006418375	-0.9326317441787646	0.29724332818188154	0.9786668382973973	-0.2008036412796394	0.04346397664518825
79														9.498195591644512	3.12016381386286	0.23265891636937855	0.019726418321972472	0.2999688157909561	0.9537450277580265	-0.2043901202959765	-0.9325748730623433	0.29753787130069875	0.9786907311023149	-0.20080541747105918	0.042914300281966966
80														9.639820406328584	3.1708299268916256	0.26377385817746496	0.020355414818183426	0.3001273504675118	0.953681933659714	-0.20462193837298318	-0.9324374558374646	0.2978090886588913	0.9786294086241547	-0.20120627339302233	0.0424324890058268
81														9.646811709002037	3.1506820868502774	0.25974280640107494	0.020987172831909928	0.3002765667414914	0.9536212676122876	-0.2053007119073489	-0.9322103192878403	0.2980529119193414	0.9784738914589696	-0.20203441310629638	0.04208253383453897
82														9.586289807927553	3.1296395920654096	0.36114117480195745	0.021655914618921968	0.30032074293462613	0.9535924038734852	-0.2063877659914425	-0.9319280376801671	0.29818487995647	0.9782306023689299	-0.20326727220284885	0.04180077320018666
83														9.548505487513447	3.0147385253701358	0.36315600792629127	0.022291522342447634	0.3002890606235448	0.9535877348736641	-0.20753284695955657	-0.9316577887799751	0.29823460905547	0.9779740310788001	-0.20454888089509743	0.04155177324791087
84														9.533341958378797	2.9841212098717214	0.36282020748721067	0.022883625259480178	0.3001713362149716	0.95361077416832	-0.20858642281521958	-0.9314347320922651	0.2981963180010127	0.977736183186515	-0.20573407293671395	0.04129706188988186
85														9.461244653391322	2.983368551313709	0.4171577555621483	0.023377904318423903	0.30005172381999734	0.9536364279023359	-0.2095152159357231	-0.9312435771320854	0.29814220489834303	0.9775258809264777	-0.20677128205552692	0.04109487846469195
86														9.385278190471633	2.904978383710237	0.423128442087053	0.02380114030116587	0.29988277416880377	0.9536791008914827	-0.2102536915504582	-0.9311118083541554	0.2980338664193377	0.9773570948787189	-0.20760809738610167	0.040889937514673846
87														9.34030941348582	2.8109742458139313	0.42609908151502046	0.024144965277209163	0.29968683525935524	0.9537320490703844	-0.21080345458288352	-0.9310332049939042	0.2978910450730279	0.9772302309014413	-0.20824257963012904	0.040695255759176985
88														9.346177712519319	2.7869703352933017	0.3997291095072748	0.02440519939193042	0.2995416996440915	0.9537710188598563	-0.21100689554324692	-0.9310178169607062	0.2977950881645324	0.9771798587137583	-0.2085200102533309	0.04048368866728169
89														9.322699535064041	2.801185496699532	0.47413851729379036	0.024675378743857224	0.29935649448216756	0.9538222134628628	-0.2111674400975066	-0.9310233426160521	0.297663984631495	0.9771383924125144	-0.20876116668427802	0.040240991017939653
90														9.314658350936428	2.900224031641203	0.4735681238072459	0.02493719562934693	0.2991255053423988	0.9538878698923675	-0.2114543792709297	-0.9310165795732682	0.2974813843702462	0.9770696913533289	-0.20912211890028967	0.040034455477296116
91														9.250890669801825	2.875030459910166	0.5279247622779666	0.02518941611980091	0.2989394634029936	0.9539395633560198	-0.21197897455094195	-0.9309452854370002	0.29733111150862307	0.9769495420255206	-0.20970472751693597	0.03991891272533604
92														9.224203268763736	2.7886295126069354	0.48138364823165647	0.02542358839539005	0.29873485432700764	0.9539974465182405	-0.21286508676621185	-0.9308026957306901	0.2971444033740051	0.9767507849953921	-0.21062722623322433	0.039925876072833544
93														9.23399679272644	2.787137182363441	0.5795220470056395	0.025624498315330035	0.29863162273368243	0.9540243911921407	-0.21379737790035933	-0.930619803988928	0.29704791133172376	0.9765418917225304	-0.21157961699335842	0.03999999229906365
94														9.288043959066735	2.7788586667732784	0.5758076540018688	0.02578948817034893	0.298512118221706	0.9540573450137586	-0.21484392882136039	-0.9304185095622352	0.29692336269244896	0.9763078349314391	-0.2126309298732891	0.040138499133708705
95														9.288813552209756	2.700657245578619	0.5773210801680663	0.025905412297367092	0.2984282282514105	0.9540804484929076	-0.2157928195370004	-0.9302295988876897	0.29682714227226525	0.9760954710733859	-0.21357313954702273	0.04030068751340332
96														9.362670295201394	2.7231327523161926	0.6217400585379849	0.025922988339610875	0.29834157249608756	0.9541070719767815	-0.21674665177029956	-0.9300461808820948	0.29670690988414045	0.9758836445098924	-0.21449104304654004	0.04055496062010683
97														9.422092068596767	2.691899638415617	0.5943102042998875	0.025805831740277674	0.2982785161721938	0.9541299627610001	-0.21740318848678433	-0.9299292922463569	0.29659292819952787	0.9757406995119006	-0.21508472333549145	0.040849101626876716
98														9.391316221491463	2.706016151663295	0.6010700427793383	0.025603499927550843	0.29821432938165465	0.9541554771330037	-0.21792736971560647	-0.9298474443468145	0.2964648238333433	0.9756290905463497	-0.2155271305268734	0.041181715439680466
99														9.483365777515463	2.7365277980735603	0.5963473633724684	0.02532583177396075	0.2981544937027403	0.9541815865598219	-0.21829202744090426	-0.9298044882720362	0.2963312409195422	0.9755548129145261	-0.21579506823381966	0.041536676868336286
100														9.472736983804285	2.835542205966752	0.5782853880363039	0.024962720621941048	0.298048467960437	0.9542242783148979	-0.21873117226299127	-0.929765143382417	0.2961308029090045	0.9754658050693571	-0.21611082549819297	0.04198302326990072
101														9.437467869432545	2.8491619615245916	0.5382781708217942	0.024504810486439432	0.29792470602404675	0.9542747947019822	-0.21918805502722505	-0.9297337310543992	0.2958915103091834	0.9753748565533188	-0.21641640159690473	0.04251858797563035
102														9.409041276314786	2.806744924254059	0.6452124732452733	0.023972473416691675	0.2977438509412924	0.9543447593741666	-0.21980069651163414	-0.9296903401626364	0.2955732146546479	0.9752502111413702	-0.2168512638536643	0.04315732885364837
103														9.418202108875906	2.758209534289034	0.577339797883073	0.023415156475699084	0.2975589717390759	0.95441625551161	-0.22040464942759003	-0.929651532830105	0.29524535223664017	0.9751274383166131	-0.2172709963253734	0.04381544474109478
104														9.480459119922775	2.72433572650897	0.5781724806249964	0.022831991676271035	0.2972933053865699	0.9545131694892546	-0.2209350856670283	-0.9296555657524619	0.29483591536102427	0.9750212244240624	-0.2176171400368038	0.044456633754756614
105														9.419488451633908	2.7507416124170723	0.5918038430286867	0.022065198449952028	0.2970187698256902	0.9546166651533999	-0.22125158465415395	-0.9297224730314921	0.29438726098157264	0.9749671088325956	-0.21770616323714975	0.045201362625141295
106														9.366366667416107	2.7539805832391657	0.604433450011999	0.021358900714773976	0.2967344048533274	0.954721158420928	-0.22147300305350953	-0.9298092509358804	0.293946365503161	0.9749325649903778	-0.21772333327045898	0.045858956277744445
107														9.337347173200643	2.7428925436158127	0.5403261836141557	0.020648828328332425	0.29643385806702754	0.9548301386530301	-0.22149451644769963	-0.9299456704772244	0.2934982608879745	0.9749429752925384	-0.21755003505438278	0.04645618554692216
108														9.305117112110436	2.7543752165380773	0.5253085641546619	0.01992631140739587	0.2961382923771651	0.9549371989307106	-0.22127227754855933	-0.9301354619307948	0.29306415960888105	0.9750084724258391	-0.2171408166299534	0.046993025558141555
109														9.332069949100791	2.812774182104289	0.4801254090801941	0.019266595415961207	0.2958018097322232	0.9550550181325782	-0.22095655331226874	-0.9303538736251749	0.292608734283505	0.9750933287893216	-0.21666323912877763	0.04743459666515504
110														9.3572507473668	2.794274604030118	0.40868455032908246	0.01870557246892124	0.29548061591763575	0.9551655914947652	-0.22054649552214114	-0.9305813146585804	0.2921945586783065	0.9751970800158869	-0.21612409033988503	0.04776015811578832
111														9.332933489527566	2.7830539962192438	0.39041586484868923	0.01809362588092528	0.29520613061264767	0.9552622473180807	-0.2200341229282361	-0.9308199912255561	0.2918203705741903	0.9753243590978764	-0.21547037936469202	0.04811351334867081
112														9.36222957854147	2.8416602241407163	0.36766920037659145	0.01759664384376841	0.29489271765124603	0.9553683285527618	-0.21957911047535328	-0.9310495213475203	0.2914306144546343	0.975435990912929	-0.2149071284876693	0.04836893379945678
113														9.41903049707922	2.9073729942115447	0.3915375061494095	0.017011590561335166	0.2945792218912021	0.9554756343395406	-0.21916730017523256	-0.9312749261677274	0.29102011343753115	0.9755389793957355	-0.21435973017632742	0.048719665005612534
114														9.406614451365257	3.0265451005406763	0.4228188986446041	0.01640900005942364	0.2942244959416338	0.955595463941171	-0.21890162192248674	-0.9314814524897977	0.2905587437803273	0.9756089506747849	-0.21394917540245095	0.04912154016169257
115														9.409997805110251	3.0217254765301242	0.4521777235738435	0.015863985022298133	0.293818624122669	0.9557295381528573	-0.21909970790469965	-0.9315976079550573	0.2900365750185492	0.9755734990123951	-0.21400119852719743	0.04959672422282979
116														9.447715290984794	2.978374921521943	0.4299367834167848	0.015331515628718151	0.29339031410663075	0.9558697966862113	-0.219645262312563	-0.9316431082660024	0.2894772487849554	0.9754593294300751	-0.21439039719370398	0.05015829162714841
117														9.399529234827222	2.902961095400353	0.48883657999077373	0.014820641643562726	0.29294071809942834	0.9560157343164727	-0.2203006103494423	-0.9316689126444171	0.28889561833235344	0.97531942955164	-0.21489246820528848	0.05072708790875724
118														9.392485403012348	2.744189377990149	0.3961135423621858	0.014283126401888946	0.2924911816202376	0.9561615454381049	-0.2208440494634959	-0.9317205422075575	0.2883136088446408	0.975204541681771	-0.21528060735433824	0.05128705470578909
119														9.36500047252175	2.5997860561509123	0.4269776966687402	0.013800640420963572	0.2920668085158893	0.9562983434510982	-0.22108701775486983	-0.9318268196231413	0.28778344082187923	0.9751564350934826	-0.21539674462341593	0.051712372807731555
120														9.392655965204222	2.5804200061014946	0.3796760943507983	0.013338466941592242	0.29171058628634156	0.9564136234643082	-0.22088692399863957	-0.9320087706148775	0.2873475566337122	0.9752082096178579	-0.21509203924233017	0.05200348592650905
121														9.349650900425212	2.7154698351479105	0.41229695190138094	0.012935124993641633	0.2914097015218586	0.9565108825310563	-0.2203111100835244	-0.9322525786612155	0.2869985093223996	0.9753438866959511	-0.21444233592846265	0.05214199120076163
122														9.362409689649551	2.843449207244318	0.4632702674223099	0.012627756649290778	0.2911809781789343	0.956584642208292	-0.21960722602266666	-0.932495879334039	0.28674745213108266	0.9755066406953037	-0.21369387677656349	0.05217011584774578
123														9.391826396255654	2.9033535922938998	0.43804192377464485	0.012400978196934587	0.290986175492304	0.9566468843894919	-0.2191914520989272	-0.9326600972073709	0.2865314125953761	0.9756030560973675	-0.2132420895355793	0.05221578481625189
124														9.363659370919297	2.916695138988086	0.4664091402356966	0.012206699728585624	0.2907896437392884	0.9567091405310778	-0.21907328024808903	-0.9327574643445917	0.2863047512543054	0.975632048655167	-0.2130842457889019	0.05231835082928776
125														9.377382496357491	2.86876123491729	0.4419864680254489	0.012035629269157078	0.29061637203758955	0.9567639562252567	-0.21903111263932223	-0.932829680417512	0.28610165855538666	0.9756436415639042	-0.2130044873608813	0.05242683511382501
126														9.36796004228421	2.8132691247741914	0.4193793712318642	0.01192919726444247	0.2904372649107928	0.9568196744443357	-0.21910579825762555	-0.9328738575773374	0.28590035854938434	0.9756281788788775	-0.21305530033283795	0.05250805250215912
127														9.385912805492627	2.8421839100596547	0.4440829515211289	0.011802358461325713	0.29025282896739546	0.9568772124004075	-0.21906972502413302	-0.9329450945994633	0.2856954778092394	0.9756378221002922	-0.2129947082423005	0.05257465499816577
128														9.40758806194851	2.7938308764765436	0.5165440843297361	0.011737811983601243	0.29014630885146714	0.9569103109642545	-0.21909730153338386	-0.9329750771378273	0.28557639590914047	0.9756324083540002	-0.21300850898387538	0.052619187278398594
129														9.33855490745245	2.769752808146434	0.5227932202625896	0.01165181785679209	0.28998878390616945	0.9569591111166939	-0.21882609864172722	-0.9330868429738177	0.2854191339458426	0.9756943034034139	-0.2127332806069016	0.05258495629314586
130														9.363989570146593	2.7761621542773853	0.5452740221491985	0.011593997653823018	0.2898687128577684	0.9569961904441332	-0.21837317923450084	-0.9332250460538378	0.2853141566919329	0.9757964612609639	-0.21229023228587995	0.05247974339292644
131														9.384990868003445	2.7063913480574855	0.517891509639466	0.011553515316199137	0.28980682131307933	0.9570154244338219	-0.21777007502327672	-0.9333771374658636	0.2852776080949711	0.9759317141625207	-0.21170527999188024	0.05232746616610462
132														9.4005183712161	2.7372389451925865	0.5161010642064447	0.011472062986969733	0.28976782477092256	0.9570282124881959	-0.21704073992372674	-0.9335519492610693	0.2852614156247202	0.9760951331628411	-0.21098664829411856	0.05218165633083843
133														9.412342068771311	2.7913026709729247	0.5637640067811323	0.011403483473017784	0.28978334604153055	0.9570243324605988	-0.21631688204679045	-0.9337079209271677	0.2853007622482284	0.9762566092509873	-0.21027394216792478	0.05203750703987137
134														9.402768595665753	2.8925385958281686	0.5404587435868715	0.01127351571346158	0.28982305005306214	0.9570138491690694	-0.2157275695725575	-0.9338311573806023	0.28534362658297063	0.9763885105682959	-0.20967109758654073	0.05199526196760251
135														9.439186498352004	2.931654323416976	0.5136327722511974	0.01117818035862761	0.28982602971779703	0.9570140650909413	-0.21542889924783235	-0.9339004550909121	0.285342477296764	0.9764555482215957	-0.20935809628243568	0.051997594831464045
136														9.48540598839442	2.9467199276477873	0.5112725196823734	0.01097914025935931	0.2897511234119901	0.957039050906835	-0.21534278269768886	-0.9339539594562526	0.28523233960405847	0.9764768017823987	-0.20922305823565107	0.052141801688665224
137														9.431411073647622	2.876712971691378	0.5174258032631591	0.010834816496139987	0.2896963935734233	0.9570572638573135	-0.2154337266347029	-0.9339599957524687	0.285143886068653	0.9764583535306456	-0.2092718946361433	0.05229108849144248
138														9.44309649063797	2.9068235469842225	0.4702329061168238	0.010616249323113391	0.28957942179541274	0.9570951121612439	-0.21561417893076973	-0.9339701054551284	0.2849743285984661	0.9764209241379045	-0.20938863529038768	0.05252216976581886
139														9.43745825359053	2.8512209961544954	0.49838084768265023	0.010319879703364898	0.2894744479966281	0.957130108208887	-0.21589193497336803	-0.9339606852797268	0.2847948573364315	0.976362725884373	-0.20957571975033468	0.05285683678358066
140														9.38161597514203	2.780513756426095	0.48208489743512867	0.00998104408016981	0.28937086427292025	0.9571650232164844	-0.21612817854179445	-0.933962410186991	0.2846099555495438	0.9763139808480038	-0.2097110375436883	0.05321927783307301
141														9.381923673290594	2.7788126454129976	0.48588991005474097	0.009669114757727137	0.28922509740906577	0.9572122811834991	-0.21621805003206684	-0.9340063468830664	0.284397431110901	0.976297220655745	-0.20971644430245678	0.05350467202966486
142														9.384242447062286	2.7768265141263866	0.5136237613753964	0.009353758074186203	0.28908026499063094	0.9572591642825029	-0.21622634550642977	-0.9340676948419977	0.2841895651875532	0.9762984557597248	-0.20964289123531726	0.053769726014489594
143														9.342293462771504	2.7593317580536687	0.568926980408478	0.009084444135673886	0.28890191542001353	0.9573155990275057	-0.2162197657875391	-0.9341391907475189	0.28395947808155847	0.9763024560849607	-0.2095701686219122	0.053980169194397354
144														9.32299101131109	2.6496141774279818	0.5231420374807237	0.008887208563396753	0.2887084754661905	0.9573758058975269	-0.21614889031352225	-0.9342243034783799	0.28373333961057384	0.9763199653495692	-0.20945731542327276	0.05410137036611934
145														9.340255602892572	2.579127898834501	0.4494453824443514	0.008706036882263735	0.28862836970386707	0.9574016237315937	-0.21580065433588025	-0.9343341847704708	0.28363657866626657	0.9763986288960109	-0.20907724737853978	0.05415184316902133
146														9.334737686800873	2.6015738737214464	0.47509685848002936	0.008568374127029377	0.2885429470822437	0.9574286138683723	-0.2151136073867824	-0.9345150679957126	0.2835625567771843	0.9765514420049077	-0.20838559301943624	0.05406223950294137
147														9.312038990149027	2.671020671331846	0.47684112844081983	0.008463698971609979	0.28851753341483516	0.9574372035344865	-0.214264692528957	-0.934709962783405	0.2835629154330966	0.9767389658118435	-0.20754497918683898	0.053908016835579164
148														9.312360932755748	2.7486119008220635	0.47586019452851197	0.008413552436882521	0.2885031330653916	0.9574419848465207	-0.21325875868507077	-0.93493059799895	0.28359386236205664	0.9769595252514277	-0.20656892103310057	0.05365973242316907
149														9.325962158168894	2.803123704548316	0.5463853338179792	0.008334735212723876	0.28851439872503504	0.9574392794936213	-0.2119798811134451	-0.9352017340082872	0.2836586799500801	0.9772384878790146	-0.20532208462857515	0.05336458911781072
150														9.320138432241096	2.8272587604687764	0.5689370351043219	0.008231747179700433	0.2885359657879052	0.957433671219688	-0.2104725271104672	-0.9355172440193844	0.2837407293183488	0.9775651147980386	-0.20384916627059246	0.05302795244662206
151														9.379755760287873	2.8747422193612024	0.5367929617262317	0.008129133515010267	0.2886220838564016	0.9574085908841032	-0.2087235666177812	-0.9358611393989346	0.2838985743206213	0.9779408928594042	-0.20214158521520745	0.05263449059348091
152														9.427853652496077	2.969167589861994	0.5540234495753833	0.007907013799753448	0.28873641383323534	0.9573759775863887	-0.20663227399652687	-0.9362707328578725	0.2840778381655404	0.9783867243967465	-0.20007098270490242	0.05225915617095117
153														9.516537315780509	3.1566169113981735	0.49423267060932563	0.007610621600864564	0.289012346732772	0.9572951174402099	-0.20443604041163313	-0.936653231427363	0.2844057478981271	0.978850337804336	-0.1978701278432293	0.05195602648050118
154														9.445029854133745	3.3691788139786314	0.47176345937056224	0.0072007470741886626	0.2894266653825558	0.9571731058732833	-0.2024954610398712	-0.936944765784	0.28483344980569836	0.9792567270638601	-0.19587422299909538	0.051860883762977705
155														9.25693623432683	3.467589583647202	0.4602307314274524	0.006869353080025176	0.29001627329100343	0.9569970601912317	-0.20114971188966765	-0.9370569603856438	0.28541731972590856	0.9795364237204074	-0.1944603152810769	0.051899714698816324
156														9.209932310107515	3.38171265155913	0.48918569671701684	0.006758522797511046	0.2906951235730422	0.9567918621625339	-0.2004392019987249	-0.9370015630672208	0.2860982298297204	0.9796828306506703	-0.19371219873936396	0.05193395216860808
157														9.225720604473505	3.1892930802336563	0.5384683455434941	0.006934944975404145	0.2915427703463468	0.9565326547468024	-0.19992699705532843	-0.9368383828529103	0.2869896169933378	0.9797862534178702	-0.1932269584512506	0.05179034795260484
158														9.36672673351436	3.0672262731284583	0.502337028060088	0.007377187080653269	0.292523777099753	0.9562297929588222	-0.19935110978143702	-0.9366306906390558	0.2880661111306143	0.9799003582710271	-0.19275058802582165	0.05140523977196776
159														9.492106357077914	2.993576561900765	0.4653221829946863	0.007928979894332666	0.29366704376755076	0.9558748865215903	-0.19871269070774428	-0.9363781374040185	0.2893255093203324	0.980025712841007	-0.19223852682698336	0.05093084501426981
160														9.54189912991856	2.999534612747708	0.45694074273940244	0.008487905790447114	0.29499312800763294	0.9554616736863729	-0.1977519309360969	-0.9361304945694957	0.2907814831589462	0.9802153484139787	-0.19141251674157478	0.050389673230918086
161														9.510188522661142	3.083842481291786	0.4044524800228036	0.00902542885689861	0.29649101124464616	0.9549929957256632	-0.19666919489811943	-0.9358521711458502	0.29240715028829944	0.9804283601630844	-0.19045680353488487	0.049864181284762776
162														9.448207203748963	3.2863259088384775	0.47520566341538734	0.00948932708828687	0.2980188193712995	0.9545128265099158	-0.19564308976855183	-0.9355541670142709	0.2940445238531886	0.9806292541512446	-0.18953412326747604	0.04942754313136888
163														9.334909327157433	3.3172878609276104	0.4797651442854871	0.009957780736740085	0.2995010817145977	0.9540439951357512	-0.19499632512759976	-0.9351930943494102	0.295618520170687	0.980753422522466	-0.18897877746710437	0.04908916252604262
164														9.299854272833754	3.193527809077709	0.4821374763674824	0.010401855165348584	0.30096236802939025	0.953579285869435	-0.19472906900430453	-0.9347639148210694	0.29714813348413627	0.9808019122604914	-0.18878049840630023	0.04888284287593103
165														9.34348803486565	2.967844362854718	0.3837804469540192	0.010759186945129062	0.3023814912333567	0.9531262632284198	-0.19470219674993708	-0.9343041874406066	0.2986080037636233	0.9808033923661909	-0.18878855656643673	0.048821987183366
166														9.378657812266722	2.8668336654456237	0.38307098020881236	0.011065967448606773	0.30378694179417937	0.9526757257114125	-0.19479768032300634	-0.9338257710303783	0.3000388193222593	0.9807810194458304	-0.1888992412765583	0.048843305989034025
167														9.336304946410534	2.841826921017776	0.38795449802735726	0.011273726490863056	0.3051533219206342	0.9522365006718715	-0.19495891253109704	-0.9333506514054277	0.3014093295599124	0.9807466163671946	-0.1890449989866582	0.048970019832885014
168														9.317102337198206	2.8243281569588	0.3920025538524084	0.011449339030749461	0.3065153312448269	0.9517968608624597	-0.19535027410254446	-0.9328322104584783	0.30275788600664005	0.9806667033420781	-0.18940015534054594	0.04919754173896662
169														9.299267947452355	2.7291352704079266	0.3979994009974968	0.011644949087933842	0.30781162196415346	0.9513760563229118	-0.19608156797376172	-0.9322653428850394	0.3040285334576193	0.9805184413674687	-0.19008770564988356	0.049500003020936545
170														9.275191206211332	2.5788319654245484	0.4052622819853547	0.011909885051597124	0.3089839193888267	0.9509926877727168	-0.19696725282806943	-0.9317013337736308	0.3051827746741287	0.9803377254555801	-0.19094910893627043	0.04976325798240322
171														9.215558854420854	2.5191263871513656	0.36469208657156615	0.012097503321043368	0.3101349026156049	0.9506155861298544	-0.1977732951921973	-0.9311621168851165	0.3063051350970931	0.9801731347686578	-0.19171190431905308	0.05007166484295189
172														9.15094464057863	2.507248019623	0.4704504259600006	0.012333693828423087	0.3112595565590752	0.9502448991955678	-0.1984157382834797	-0.9306581950359416	0.30741912564748664	0.9800403434542725	-0.19233515659673692	0.05028034147597121
173														9.147769266005495	2.518436435083228	0.4724403374490727	0.012649947282328655	0.3124109910010978	0.9498628066912959	-0.19902221173524767	-0.9301455384321258	0.30857646794728355	0.9799133319175549	-0.192947272684852	0.0504104343733795
174														9.117154460590069	2.545195438705832	0.5243527135301818	0.013064529601203412	0.3135282842145664	0.9494889852250893	-0.19957242924490876	-0.9296466966823361	0.30972223819562406	0.9797959805753368	-0.19353819867171196	0.05042620453022184
175														9.118603823517953	2.5326117750929513	0.4753791924109488	0.013532976649926531	0.3145848422248948	0.9491328861573239	-0.19996848295390765	-0.9291927586973244	0.31082699852099366	0.9797088671478412	-0.19400307787969523	0.05033230975327485
176														9.219293638689493	2.553922108888217	0.5147091900156607	0.014190823506611439	0.3155434318035324	0.9488050185226962	-0.20017961929312478	-0.9287936181907626	0.311882245130709	0.9796564400583829	-0.19435729328677515	0.04998501773906511
177														9.350339222539224	2.535833103884416	0.42794607225921344	0.014880757440581038	0.31643407857832806	0.9484977791077208	-0.20009836077787338	-0.9284713725898264	0.31289224390382636	0.9796628037605605	-0.19444892438748035	0.04950158313174774
178														9.370710482589175	2.6309931195597294	0.4451946427633444	0.015522534814752575	0.3171496339163052	0.9482484698746831	-0.19973767602664474	-0.9282644672614695	0.31373546116952533	0.9797264473762048	-0.19427091528721752	0.04893771332078006
179														9.372759384741748	2.7705661007663838	0.438254914889287	0.016097538724601734	0.3177878448146929	0.9480251868674386	-0.19913159019627627	-0.9281353391350751	0.31450183152808625	0.9798405375533875	-0.19384446841901662	0.04834090431959903
180														9.329227860052121	2.892244031469737	0.4347442221978021	0.016659203170992176	0.3182615529827481	0.9478565581577819	-0.19852239010729114	-0.9280615474588343	0.31510414905932593	0.9799547599638444	-0.19342013344355546	0.04772127830309131
181														9.342037862083643	3.00630734195817	0.4515146668670162	0.017144616870514884	0.31857110144387735	0.9477439081509299	-0.1979874706993717	-0.928032198937876	0.3155268596817014	0.9800546023352111	-0.19305100636713976	0.0471623301184948
182														9.3956612458814	3.0565429385746143	0.36888803609630433	0.017527496877596194	0.31868134574129797	0.9476998399966741	-0.19773856108100266	-0.9280193886998653	0.3157205657836425	0.9800980809668085	-0.19293059392860443	0.04674973381245612
183														9.378971835919831	3.026112386566823	0.34313443148203315	0.017792165738420573	0.31862017763599904	0.9477154748349009	-0.1975407636133558	-0.9280613398575029	0.31572107337482175	0.9801331978610813	-0.19282980025167712	0.046428252018672955
184														9.416712741989116	3.0647793830441388	0.3376625144628636	0.017964987431936696	0.318334331598367	0.9478082678223434	-0.19759097041483187	-0.9281353180853811	0.31547209026009454	0.9801199251301318	-0.1929458075428671	0.04622605017233783
185														9.380451362946594	3.021840599122919	0.3403277953116648	0.01801511424212926	0.31785106723367557	0.9479694903936815	-0.19768966324386164	-0.928273318159661	0.3150038790862443	0.9800991035121762	-0.19307860018983472	0.04611292056856059
186														9.377717311265735	2.9632688385162966	0.36580571217021407	0.01805864316879352	0.317302254815648	0.94815250065367	-0.19799222526243207	-0.9283930039807387	0.31446066351016044	0.9800372258963086	-0.1934055564055117	0.046057861532444955
187														9.314907542252643	2.8558608010050968	0.3973530157035282	0.018034872410660374	0.3166588116276383	0.9483680405811359	-0.19838457773638796	-0.9285302046309074	0.31380761368144017	0.9799583168142847	-0.19380107354361287	0.04607430086129266
188														9.304094035035352	2.8959738909315322	0.44724558276862625	0.01799406066348147	0.31593713546242336	0.9486094771910295	-0.19866373381635766	-0.9287161141376544	0.3130800220505928	0.979902512828181	-0.19408788158165535	0.046053876885263634
189														9.33930226551658	2.9520309598470207	0.49334631485546127	0.017904588006909472	0.315169971911244	0.9488663312257258	-0.19896301815978173	-0.9289154789551555	0.3122975349922967	0.9798434278664391	-0.19438086779047997	0.04607531990086172
190														9.302310238566568	2.981764834965543	0.4969189237077581	0.017806107117144643	0.31431455279029324	0.9491518869251492	-0.19937239417255687	-0.9291217117624583	0.3114217288075804	0.9797620073217963	-0.1947798927914211	0.04612160418857014
191														9.342547293420369	3.0126128770282308	0.49458389096977196	0.017655815459955038	0.3134050476458682	0.9494553956297974	-0.19970049448630978	-0.9293641434170125	0.31048671699878916	0.979697904806562	-0.1950886081780634	0.046178461178115304
192														9.34104346055012	3.0270198775722084	0.5451227575819003	0.017507459608503806	0.31244959715397574	0.9497729929285071	-0.2002934681265684	-0.9295674402825783	0.30949458895484055	0.9795795095263514	-0.1956517907017788	0.04630724901459149
193														9.324813813499834	3.0102091911932782	0.5980550261711137	0.01726534142974112	0.31157740725151695	0.9500639069429685	-0.2008650824671591	-0.9297526132423781	0.3085665192700444	0.9794667562662739	-0.19616217132615477	0.046532525289655846
194														9.329430252007	3.0015681856385465	0.6251836003230318	0.017056228907991355	0.3106995103024967	0.9503551438032138	-0.20152312466725325	-0.9299188675977309	0.3076350596243881	0.9793352415183398	-0.19676563211989753	0.046752227077137554
195														9.348358772690537	2.9469473278497333	0.6270710298080333	0.01683429770007605	0.3098878321629932	0.9506240781182985	-0.20203612066265497	-0.9300924405595677	0.30677264865292525	0.9792333799296925	-0.19722470304519799	0.04695108241780099
196														9.365489176729026	2.9701697341578654	0.6278431578148268	0.01664269157000975	0.3091305979289994	0.9508739633838779	-0.2024256022266236	-0.930270385727229	0.30597530129424017	0.9791562165356935	-0.19757348724707882	0.04709374434608171
197														9.345195751303443	3.0322430320502294	0.6547659013209014	0.016474720700311807	0.308426164731133	0.9511056116368416	-0.2024437144764925	-0.9305040024026534	0.30525209906174766	0.9791553125254476	-0.19757429595442477	0.04710914487980311
198														9.376497446476648	3.0103043046770614	0.6288687928284364	0.01627270684475196	0.3077354182659664	0.9513328078840839	-0.20228287241204668	-0.9307709090603848	0.3045441747524263	0.9791919314111388	-0.19739409107563338	0.04710344220699941
199														9.363693000476287	2.972631260594607	0.6311074829676615	0.01598412213189182	0.30708511011363715	0.9515478143457472	-0.2019134078219668	-0.9310718145257564	0.3038688071149064	0.9792729362038928	-0.1969873380250909	0.04712223547748662
200														9.401388745712742	3.005872228288908	0.6039969366441645	0.015658211943493705	0.30654819699811886	0.9517263384586635	-0.20117182839821454	-0.9314128399830129	0.30331504574237167	0.9794308121851442	-0.19620989891435192	0.04708460162694228
201														9.44567337831493	3.094164371200558	0.5752457063246189	0.015342070583495904	0.3060753264046899	0.9518836669659132	-0.20031900694645205	-0.9317539762192352	0.3028313445725725	0.9796105942292572	-0.19532645075848637	0.0470176701665902
202														9.427186530915273	3.1352596606603753	0.5276095827440754	0.01495389254650914	0.30563605687609957	0.9520309773504942	-0.19952335051453804	-0.9320764411117202	0.30236392067170226	0.979778961652658	-0.1944739279742667	0.047043359160454046
203														9.40619447452349	3.2006862326476364	0.5539562043150278	0.014574365033400039	0.3052599281609501	0.9521575311591275	-0.19888601415090362	-0.9323459386636965	0.3019526519712607	0.97991425199302	-0.19377158438863604	0.047123580344429816
204														9.417309718030467	3.174111755567466	0.5798175380802264	0.01416201576565862	0.30487210881162224	0.9522879998079407	-0.19848708957429448	-0.9325734142632351	0.3015123584228996	0.980001179887953	-0.19328689629193038	0.04730605817496647
205														9.3594089510114	3.1233984819542466	0.6122220471945977	0.013703332263525547	0.30451573071062327	0.9524087297135885	-0.19816854507501983	-0.9327775092180148	0.3010902622800791	0.9800721638878057	-0.19286339218942553	0.047563279170622474
206														9.295701406693482	3.0721940752443753	0.5720412172081567	0.013246809380684288	0.30425345038180784	0.9524990078587989	-0.19782018236431057	-0.9329571942844186	0.3007624462633196	0.9801488139515255	-0.19240767023097102	0.047828766926476196
207														9.305356748846478	2.969549703946602	0.5762572181584568	0.012718872865535136	0.3041001225209151	0.952555166778174	-0.197298122032002	-0.933140548271884	0.30053646736044054	0.980261027132914	-0.19175983065702867	0.04812988708393251
208														9.256026840325939	2.951206742713812	0.5346102161442506	0.012164809713935631	0.304005593138378	0.952592576469714	-0.19648967650449065	-0.9333622166940294	0.3003777279945524	0.9804304281445907	-0.1908286450944713	0.04837978689105554
209														9.270132744455248	3.058415275655928	0.5349651063033086	0.011563744754753025	0.3039569707623097	0.9526155781490496	-0.1955918741705624	-0.9335885811721683	0.3002601869435663	0.980617202870567	-0.18979599845607625	0.04865573351997993
210														9.289641447676631	3.0646969397485653	0.4877610057146504	0.010935243229713676	0.3039103706022166	0.9526378677629452	-0.19467575512841181	-0.933818290619409	0.30014121754572143	0.9808066939110327	-0.18873761348779627	0.04895245074806337
211														9.256904374098173	3.0786573111881035	0.4689188822768434	0.010310629204303923	0.3039158452290812	0.9526430863361709	-0.19380629060701177	-0.9340211719032743	0.30007261147526487	0.980985633251865	-0.18772216026651706	0.049270456648078886
212														9.286057666046263	3.0628557848625806	0.4460252686313927	0.009768705823923196	0.30394615241320744	0.9526391283270561	-0.1930512788383924	-0.9341883386406029	0.3000389169537372	0.9811400389981988	-0.18683919391047915	0.04955138235705897
213														9.311686664754083	3.0462633526499823	0.37438332221309245	0.009227712708097136	0.3039914726158339	0.9526300614063333	-0.1923249834015326	-0.9343444164330797	0.3000193531089766	0.9812879037661567	-0.18598305314513275	0.04984329307978852
214														9.28054034151553	3.0613694641904434	0.3797133348527796	0.008728456406165097	0.3040404576030469	0.9526191338563886	-0.19174893692783973	-0.9344676972559792	0.3000041132587208	0.9814051962547424	-0.1852822790383309	0.05014297396996992
215														9.295378506525456	3.0924866604084102	0.38151210505061495	0.008293709901782187	0.30408924534816634	0.9526074455092439	-0.19139423443937367	-0.9345450246706681	0.2999897396356512	0.9814782022028969	-0.18481160062853844	0.050450082989886846
216														9.295153958030541	3.0927055446868055	0.38519121702488196	0.00790517945554603	0.30417314152687885	0.9525839638118235	-0.19117865172040505	-0.9345821799591914	0.3000114531631988	0.9815234236961156	-0.1844853622279977	0.050763371238135846
217														9.317923954909658	3.1008793244890045	0.38751654059185786	0.007527856531921617	0.30422293478429974	0.9525711193014735	-0.19125351248533387	-0.9345747621421745	0.29998684625983163	0.9815118060105322	-0.1844408303986005	0.051148360128332904
218														9.29573031543253	3.0156932611988188	0.3953179003812693	0.007166860972661282	0.3042645221988555	0.9525606209763774	-0.19140173202322716	-0.9345551748670429	0.29995333321658635	0.9814856153211357	-0.18447147654944898	0.05153892953252731
219														9.24953660501122	2.9997201618338036	0.403129973556817	0.006796109969754882	0.30431394263019323	0.9525475511543482	-0.1914291209932455	-0.9345564034721234	0.2999320262409505	0.9814829109694327	-0.18438371145553042	0.05190320245275165
220														9.240591864152437	2.945425961364237	0.3842219509225523	0.00649302201187002	0.3044157324487316	0.9525171402672269	-0.1913697642556004	-0.9345534183782997	0.29997920182271104	0.9814965379429056	-0.1842307521428959	0.05218789103761101
221														9.279817592114211	2.9859456958616257	0.4082560050028408	0.0062225170546812425	0.3045647593345145	0.9524713054223805	-0.19118111162055318	-0.9345578416312914	0.300085693102806	0.9815350543108655	-0.18396181130052813	0.05241172714188197
222														9.330612938906933	3.056912980510164	0.38148375933665746	0.005982797025876285	0.30474646770923147	0.9524147187850959	-0.1909472853382782	-0.934558511007817	0.300232449486717	0.9815820599224953	-0.18365723487409435	0.05259923684534212
223														9.292608699080418	3.0971572797550833	0.41003261656842127	0.00579860831958906	0.3049130964893303	0.9523625253709033	-0.19082904850154273	-0.9345389434017229	0.30036850286537575	0.9816061584920664	-0.18348015384471345	0.052767250786528885
224														9.26894123780354	3.0908516252499108	0.414007295581783	0.005713869048036002	0.30509886142520226	0.9523035421847107	-0.19101003773109151	-0.9344514929423912	0.30052549446545007	0.9815714529194851	-0.18361669884512552	0.05293761157012633
225														9.272990057280559	3.0686085589820435	0.36740531855119174	0.005702337756874343	0.30529460833384414	0.9522408757590651	-0.19129329037869341	-0.9343373563938242	0.30070015215009965	0.9815163576834568	-0.18387198418814352	0.053072902978032854
226														9.32618307973155	3.0638345011318293	0.3660001446591702	0.005757290399530046	0.3055486500553759	0.9521590602712311	-0.19174471850521888	-0.9341691724176238	0.3009350764366412	0.981427947703045	-0.18430404161035138	0.05320905668662074
227														9.364262419907886	3.028488885031777	0.3661693070360745	0.005863615385686638	0.30582837365743787	0.9520686025075373	-0.19226770310025304	-0.9339760438087685	0.30120073030435074	0.9813249962979449	-0.18481816863438466	0.053324442645661774
228														9.339691663747725	2.945933292780009	0.3465328022538672	0.006040730738259725	0.3061400449975715	0.9519673221392806	-0.19274008903035195	-0.9337777241305358	0.3015135486146002	0.9812312508541092	-0.18530362858422864	0.053364759727730415
229														9.340159532071459	2.9499812404220336	0.37167589421770575	0.006258917947663478	0.30647561082435976	0.9518579336833619	-0.1931248557639722	-0.9335855537213297	0.3018622268005435	0.9811542264253204	-0.18571675705943558	0.05334482275776398
230														9.354274567305682	3.0626919916402593	0.39296878038037514	0.006577925900548509	0.30683336488350327	0.9517405198293882	-0.1935683653982368	-0.9333687648308824	0.3022483031468135	0.9810647373175239	-0.1862150236483091	0.05325360231719639
231														9.356114507808542	3.0679878350187195	0.4413840634333059	0.006916988157853021	0.30722956756964614	0.9516102921289747	-0.19404110753929885	-0.9331324968099085	0.302674399284493	0.9809690126908938	-0.18674511026603804	0.053160699129892075
232														9.361451837891783	3.1266759502622277	0.4396601937513402	0.007282573017877991	0.30763738611380953	0.9514758025274749	-0.1945641710533188	-0.9328807547792333	0.30311430303577447	0.9808627566956422	-0.18733055284067063	0.05306144080059022
233														9.354819288219632	3.077461443022386	0.465045491753572	0.007719529435178174	0.30800684861324307	0.951352821025217	-0.1951842875383573	-0.932617647128744	0.30352498770643227	0.9807362044726623	-0.18803219264632517	0.05291872792473362
234														9.331812590547322	2.996469139669777	0.4673616601062627	0.008160120549765615	0.3083688088590176	0.9512318803296517	-0.19581037759471848	-0.9323547865793408	0.30392901797756416	0.9806078260236494	-0.18874117109275187	0.0527736854474794
235														9.317229933327031	2.970184891409842	0.492436058801147	0.008599201809722956	0.3087647017774289	0.9510995808350099	-0.19634984501688524	-0.9320971126058233	0.30437100885881463	0.9804961968769085	-0.1893656030227846	0.05261061016312535
236														9.323847004495976	2.9520742123564934	0.4912248856486425	0.009051350891628507	0.3092229513582697	0.950946496602368	-0.1968328257627905	-0.9318288894244665	0.3048799100239307	0.9803952834185155	-0.18993706112090472	0.052430917057420756
237														9.300850860270382	2.949943988661095	0.5158789551905283	0.009575747336456442	0.309741782008928	0.9507724930501946	-0.19732344824362724	-0.9315345105971826	0.3054618017685885	0.9802916718182366	-0.1905347318585292	0.05219917738245938
238														9.310476797523854	2.9339078502494846	0.5627051225784289	0.010147819843897232	0.3103016580959169	0.9505839798436228	-0.19791133681895698	-0.9312041180267618	0.3060882116784874	0.9801673961680982	-0.19123747423798976	0.05196252434327103
239														9.314951529473612	2.9172449641364975	0.5365404293484579	0.010676811438970035	0.3109340564998825	0.9503715158852484	-0.19840236837680206	-0.9308709456819433	0.3067829570032867	0.980062501027344	-0.19183142337409856	0.05175131965752128
240														9.273615031750598	2.9096993712201917	0.6356479147377021	0.01129090479353878	0.31162024417907636	0.9501396417825733	-0.19891706020753835	-0.9305093026934443	0.30754583521704676	0.9799512838030952	-0.19247145507511804	0.05148029092704337
241														9.285906839806923	2.9489798077492475	0.6324361140667586	0.011882938274659638	0.3124148079448388	0.9498714563322503	-0.1994804722400063	-0.930103092620568	0.3084084601507538	0.9798297489731902	-0.19314560537181408	0.05126829578492714
242														9.253716401770378	2.973012549527619	0.6571579443783816	0.012552423602668505	0.31326682853599935	0.9495821874912649	-0.20014125938148977	-0.9296524549312759	0.3093376623262081	0.9796866401839366	-0.1939335122645095	0.051028226168082114
243														9.260607765680561	2.9602562308566553	0.6798608865974504	0.013216399566808423	0.31426805170361605	0.9492422864900742	-0.2009055502592556	-0.9291310231268635	0.3104069937006158	0.9795214579872749	-0.1948105067537214	0.05085842900485704
244														9.269123741408823	2.8715396865249465	0.7036744896648512	0.013912642092117067	0.31539294876281815	0.9488591709314463	-0.2016090894251727	-0.928576684716268	0.3116073100273774	0.979367251571733	-0.19563391442191136	0.05066713014164981
245														9.244191462515953	2.875900333364868	0.7287894793176393	0.014549435859520732	0.31665823932795323	0.9484281065963258	-0.20224012437396788	-0.9279919291261156	0.3129375521889208	0.9792278825734961	-0.19636328308141576	0.050539242654753624
246														9.19765884293295	2.8736034323651864	0.7801011740665729	0.015234411976771778	0.3180792822459743	0.9479417085968989	-0.202823932652695	-0.927359000964791	0.31443240239021153	0.9790967087244329	-0.1970554580199966	0.05038632184940989
247														9.217537393780253	2.8975538317137803	0.8019344264368593	0.015888997903295787	0.31964846963118965	0.9474029742448916	-0.20332043083827878	-0.926693020005555	0.31607095576265787	0.9789833206696451	-0.19764843165434373	0.05026684111034291
248														9.14885219491731	2.890201660836993	0.8798511898320919	0.01654776489630011	0.32145992429727477	0.9467785847534405	-0.20387336650622112	-0.9259302831489156	0.31794458821811966	0.9788574063194073	-0.19828420970556382	0.05021504032740759
249														9.162328346608001	2.941396272216367	0.9521231224003216	0.01712115148207477	0.3234763077845301	0.9460813625021982	-0.2044068482483085	-0.9251032689858165	0.3200027845206181	0.978736280394837	-0.19886432564400297	0.05028193935236691
250														9.134508091002882	2.9536018562210398	0.9796734636657228	0.017695039132927193	0.3256272597376175	0.945332625749188	-0.20501760662324198	-0.9242089911665059	0.3221886429119854	0.9785983172704528	-0.19951097303847573	0.05040540717699665
251														9.150385496603741	3.0618007589935905	1.0283485540647967	0.01824924579043491	0.32799222146771445	0.9445041385217714	-0.20571811926881375	-0.923217800032309	0.3245750284726247	0.9784411175091641	-0.20022486449034432	0.0506259143842443
252														9.240528127754192	3.228289945562002	0.9740894071226674	0.018821483681020268	0.33050629177737695	0.9436160992944177	-0.20656062177768492	-0.9221367834108856	0.3271031369636214	0.9782527594046752	-0.20107049454405995	0.05091360271033546
253														9.357330617403955	3.328043441986985	0.9443481636621488	0.01926537444158749	0.3330947311288253	0.9426965288160559	-0.20752323681912382	-0.9210053735894532	0.32967136363273275	0.9780403629338307	-0.20198267726111374	0.051381383386334634
254														9.394772318760158	3.371194309933025	0.9717441566142857	0.01955284051533901	0.33574617705606	0.9417495373081015	-0.2086524858174691	-0.9198192932301459	0.3322598500628483	0.9777943682543755	-0.20299500583471597	0.05206919450299813
255														9.455947662318733	3.477636949326421	0.950406850416113	0.01956262005980547	0.3384626222352849	0.9407764650787195	-0.20965119498886073	-0.9186481667189434	0.3348610491288406	0.9775805237094993	-0.20378566959808508	0.05298792815653125
256														9.362738902301839	3.576037499231549	0.9420132055365564	0.01932199165550852	0.34112761232950095	0.939818393491444	-0.21037616267407733	-0.9175621891956384	0.33737441980244764	0.9774295528665967	-0.20423413295745085	0.05403598910100249
257														9.433675497251752	3.712483176445836	0.8742520590554042	0.018929215742200023	0.34358446578327134	0.9389309877002725	-0.21109297267938504	-0.9165565073570083	0.33965265449706544	0.977282682583072	-0.20463109170882748	0.055178570380971126
258														9.521735337919731	3.7474524174410027	0.8569900188673745	0.018217225625811406	0.34584580771904705	0.9381144972622787	-0.2119786161638373	-0.9156042138156983	0.34166356248830687	0.9771044974718736	-0.20508437513885983	0.056632147179323966
259														9.512220197815488	3.6897668675897988	0.8011411798484225	0.0170829556379124	0.3480268975526678	0.9373288916951922	-0.21274830892001095	-0.9147327551501376	0.3435144010185208	0.9769576908333072	-0.2052833778836037	0.05841579483623288
260														9.400966361387601	3.693483188584569	0.7789482381072639	0.015605811867876684	0.35006102227999114	0.9365968926471152	-0.2133780373731653	-0.9139669554912517	0.34515824984610777	0.9768450602847517	-0.2052356814745906	0.06043213753409582
261														9.382264313440883	3.731689694876031	0.7771896276362702	0.013899161603664556	0.3519564147469227	0.9359131879748287	-0.21408605596932034	-0.9132504439687582	0.3466133108095631	0.976715912610323	-0.20518359756412757	0.06265554520093086
262														9.398666929663671	3.7548738558259505	0.8248066253397158	0.011941758241390099	0.3537692794929424	0.9352564842315441	-0.2150059483567897	-0.9125369237979322	0.34792068762378037	0.9765397260640765	-0.20524049208782144	0.06516520410654153
263														9.384228056682627	3.713105859922083	0.8040747257592841	0.009815953486201845	0.3555606653950024	0.9346016586123842	-0.2163749644615618	-0.9117478059082496	0.3491386732743171	0.976260990622597	-0.20565152964506633	0.06798475228483097
264														9.366311105557438	3.6158098724637777	0.7860779329794283	0.007549331639080892	0.3572691169376956	0.9339709768908038	-0.21806338635216246	-0.9109310961156505	0.3502183571176233	0.9759054089021286	-0.20630878849942091	0.0710303925335522
265														9.239943813456025	3.602354744383427	0.8735827460475483	0.005256788227025078	0.35899671471521166	0.9333240192994186	-0.22024724911650076	-0.9100016699587214	0.35126643723668266	0.9754299131327431	-0.2074085810568676	0.07428435279267437
266														9.174559823455159	3.561523820251563	0.9105866255439641	0.0030082183087102865	0.36070904297064366	0.9326735425334043	-0.22322229780088187	-0.9089015970483443	0.3522352802424313	0.9747629231700916	-0.209253131881394	0.07778412698440723
267														9.089203990288572	3.5652657563943317	0.9267167762530568	0.0008125741769178796	0.36250372300414263	0.9319819689947567	-0.2271373664995116	-0.9075558820174233	0.3532009877608555	0.9738623909274217	-0.21197493206441478	0.0816006845155921
268														9.029288972685817	3.5773195461620424	1.0174246737321557	-0.001147217491452135	0.36438456892621796	0.9312478562769855	-0.23217638998181053	-0.9058979152169673	0.35417946177124116	0.9726730220516251	-0.21580744457503342	0.0856407557121745
269														9.039176743559649	3.410736241791136	0.9814318016565868	-0.002889051793553754	0.36631508921366146	0.9304863829170859	-0.23816150303460065	-0.903967757054543	0.355135738384746	0.9712212682247204	-0.22058002996682657	0.08985376190121258
270														8.91386658969153	3.1886101777649785	0.9240977106357695	-0.004473693304684001	0.36832294535534715	0.9296871484499383	-0.24458490994189871	-0.9018620501490737	0.35612226036801337	0.9696175575436581	-0.2257942657059115	0.09412088863477291
271														8.854281206267034	3.0704114623454393	0.962463802139436	-0.005873439907892852	0.37049299656668355	0.9288166892335044	-0.2515884722548306	-0.8995026049574346	0.3572090484621994	0.967816482258971	-0.23158152596834874	0.09849494148453669
272														8.735565236957184	3.0893092734523924	0.9575310481447332	-0.007129088297505304	0.3727405451508057	0.9279082185759142	-0.25868598460669734	-0.8970321725729589	0.3583501677648565	0.9659351621450116	-0.23748214115953534	0.10281777648914897
273														8.718523901926396	3.180358236839792	0.9266206561185204	-0.00803855703388745	0.3749605036714026	0.9270059343323006	-0.2660964005641416	-0.8944128302299388	0.3594696019510956	0.963912904368243	-0.24378332553019139	0.10696542892832184
274														8.759729705712154	3.322273711464065	0.9212874213009692	-0.008656935131871601	0.37716923014941983	0.9261038976824449	-0.2741310440627174	-0.891552834388418	0.3605353161273698	0.961653382542383	-0.2507526975377772	0.11111190990312858
275														8.799013457181998	3.467372494255515	0.8700238670117459	-0.009073101706783437	0.37931366496515684	0.9252236607416167	-0.28289459286001317	-0.8884362314190517	0.36145775967943977	0.9591080899231248	-0.25846122779367303	0.11536665710421401
276														8.743361888544253	3.6465851950285004	0.8771822161594255	-0.009197976706167121	0.3813217526418889	0.9243966238507313	-0.2927805823708764	-0.8849501121456225	0.3621364792450769	0.9561354129050355	-0.2673144589721395	0.11978335532681089
277														8.74155569331746	3.8229783825958528	0.8636572051768211	-0.008960230566753546	0.38304851749004054	0.9236847663120102	-0.3041549057324868	-0.8809987003930551	0.3623963068584034	0.952580446779721	-0.27769609855817223	0.12440003721268411
278														8.718024050564479	3.9868530688615937	0.8571370689165907	-0.008444754509173702	0.3844123222700639	0.9231228805571965	-0.31725875659588115	-0.8764911436650362	0.3620913647686067	0.9483014117275768	-0.28981104458542173	0.12935992792125173
279														8.650174677644902	4.12998338057668	0.8346095930439137	-0.007578706868841101	0.38535221543724274	0.9227384424959245	-0.3324089733468032	-0.8712599726239588	0.36112371085518946	0.9431048921730393	-0.3039896875897389	0.13469755824948149
280														8.673909754532755	4.305812539693243	0.8483528722112221	-0.006388585718081707	0.38573696708182675	0.9225866778785814	-0.3495210632480375	-0.8652743082431764	0.3593541398679786	0.936906725516732	-0.3201677118649022	0.14035107395637864
281														8.83630219930374	4.416260815086551	0.7864882181054546	-0.004799751835598998	0.3854089922160448	0.9227333694525899	-0.3689539085241627	-0.8583232550756585	0.35658688027053115	0.929435299398006	-0.3387345546520742	0.14631789267755502
282														9.179815633336345	4.365598483992278	0.7013625273896893	-0.002996368921435899	0.3842899133558163	0.9232076062653871	-0.39040847075456375	-0.8503961420514115	0.3527146545681916	0.9206368707239407	-0.3593712065219681	0.15257813797059988
283														9.486786960197389	4.227416330664419	0.5534767426391523	-0.0011193033360955007	0.3824821379451088	0.9239622077298298	-0.41362917929522375	-0.8413946788521853	0.3478015187355976	0.9104447535109431	-0.38178843428287257	0.15914754868433006
284														9.667868846877408	3.995641685030361	0.5616473840523287	0.0007762201613579212	0.38005265262110843	0.9249645283565853	-0.4381761487334057	-0.8313114843547271	0.34193987579851	0.8988887918777391	-0.4055628153758665	0.16588472690690764
285														9.648961775876561	3.6725865070945676	0.5470284654807358	0.0027393678419145306	0.37712456415490575	0.9261584956014811	-0.46394699573662007	-0.8199724417210017	0.3352586761965495	0.8858587251987705	-0.4306068484465505	0.1727196024200442
286														9.400802934324778	3.491901397844915	0.6181275272261882	0.004836398658546126	0.3736391383308273	0.9275615362634505	-0.4900516562520888	-0.8076701546385004	0.3278998254205162	0.8716799776595766	-0.45613892139743717	0.1791962637271839
287														9.237592617967216	3.3083477270921966	0.6241871162619285	0.00714022287001731	0.36970738289100535	0.9291208039072477	-0.5162290647179755	-0.7943961357090188	0.3200661374012921	0.856420790241439	-0.4819245071652427	0.18518153103311125
288														9.217862772059554	3.017600482166211	0.7021518845007166	0.009663586334737073	0.3653302361414059	0.9308278217049679	-0.5420030926933695	-0.7803534846257703	0.3118991608569031	0.8403209283422457	-0.5075256225977978	0.19046910457274696
289														9.183276961099873	2.702840238901962	0.7257007598278522	0.012410342800688479	0.36071826001374346	0.9325922583231252	-0.5669551590036808	-0.7657143106733559	0.3037160550730543	0.8236551651453905	-0.5325072124607185	0.19500830137877373
290														9.13006028165184	2.4207874494961787	0.7681912046544219	0.01517176833484929	0.35582190679134273	0.9344306224075536	-0.59047360971494	-0.7509906824380879	0.2955569507241964	0.8069143285850138	-0.5562407442273078	0.1987095890631559
291														9.083692575736665	2.427449440025397	0.8692746377537571	0.017934480110214646	0.3508460418442799	0.9362614001150421	-0.61257068635901	-0.736227653661278	0.28762127215847877	0.7902123187073388	-0.5786846264647196	0.20171414044771424
292														8.965469316651443	2.5538786657393766	0.9521910506666997	0.020640106137151892	0.3456437988296421	0.9381387692389975	-0.6332118403512976	-0.7216310469200429	0.2798059995068112	0.7737032708070775	-0.5998158021023594	0.20397120456263768
293														8.974524436584613	2.562697423693694	1.0253582322928176	0.023343559872978648	0.34028958600298786	0.9400308909128313	-0.6527335271708147	-0.7070178076137057	0.27214841947778423	0.7572278525778114	-0.619942591999472	0.205614109207934
294														9.00895651731156	2.3675638022560666	1.09485389992002	0.025924595946351325	0.3347795841068104	0.9419397780061577	-0.6711872127349472	-0.6924615528737014	0.2645840570647351	0.740834421977078	-0.6390771689373774	0.2067479899705812
295														8.941840886396895	2.1677812758763437	1.1321699051297922	0.028330526331853678	0.329202395679403	0.9438342883984993	-0.6883439354030569	-0.6782449182696286	0.25722841490639453	0.724831020218914	-0.6569700248263737	0.20738943706959106
296														8.898277217456771	2.0491740133285883	1.1491518594501504	0.030672816087339738	0.3236200892191605	0.9456898097193684	-0.7040276841113124	-0.6646130803655939	0.2502688023142704	0.7095098296416582	-0.673468255570179	0.20745194716156773
297														8.953719257796395	2.121604117992168	1.2723873255654892	0.032898993662896225	0.3180163850086414	0.947514240041808	-0.7183253763196974	-0.651645002675517	0.2436543540000696	0.694928996337852	-0.6886395060944889	0.20700077462368222
298														8.962760589698053	2.2745990064817847	1.33920899609793	0.03512722470837415	0.312414136929441	0.9492963105010572	-0.7315100597169321	-0.6391606742164809	0.2374166486749907	0.6809251872395512	-0.7027595887512073	0.20608214333371092
299														9.071130643762665	2.3684309597236988	1.4177414875491121	0.03738909999017748	0.30682521098350746	0.9510312009113319	-0.7439410577039072	-0.6268684295841231	0.23149011783038673	0.6671984396446949	-0.7161663646776918	0.2048218255948888
300														9.192251830926091	2.3191091346370465	1.3915586292318995	0.03977501660560295	0.30129221317454025	0.952701921030084	-0.7557953234787053	-0.6145997730082677	0.22592155281403803	0.6535987890608002	-0.7290336900984578	0.20326952954066294
301														9.233739021252312	2.21463185168952	1.511893900999224	0.04224417041227663	0.295840308670743	0.95430285645165	-0.767107709499059	-0.6023619996466317	0.2206938680816004	0.6401259189357091	-0.741376107753218	0.20149509859895628
302														9.267892781174579	2.1262706448095656	1.6427132362069028	0.04484076662275277	0.2904905445720358	0.9558266313317104	-0.7779145154771228	-0.5901352964762999	0.2158456357279957	0.6267681487270048	-0.7532300945707568	0.19951469212629802
303														9.276190287436258	2.2803986397707487	1.7511354848178484	0.047534323045044624	0.28512215441234895	0.9573117805584086	-0.7881940139179944	-0.5780189498609506	0.21129195447409932	0.6135883673575391	-0.7645910349101048	0.19725583585436765
304														9.306090868765923	2.544750984708123	1.8272252750515279	0.050365598285534996	0.27971741789466154	0.9587603833261382	-0.7982863172403429	-0.5656062122454998	0.20695064236708544	0.6001685281787033	-0.7757884884397563	0.19480749212534743
305														9.432245434253232	2.704288270917691	1.841044246454542	0.053174151687369886	0.2741657741387749	0.960211246488613	-0.8085307944807116	-0.5525034162908147	0.2025288358811388	0.5860464691205971	-0.7871296610329623	0.19229257071820502
306														9.492612198893514	2.8234048021245686	1.8700567173976426	0.056078046005717586	0.2686222627196551	0.9616118409875959	-0.8192879325535234	-0.5380784056425547	0.1980881444037983	0.5706334518132935	-0.7989453731967782	0.1899045926751292
307														9.594071702377427	2.66293311368682	1.873897223753648	0.05909417976763914	0.26308905251426234	0.962960034666412	-0.8304855724751843	-0.5222927425253168	0.19365950794099462	0.5538967339027692	-0.8111685654366363	0.1876272011711367
308														9.680919369831447	2.4064479956930724	1.8167123421205698	0.062041005541711325	0.2575679890224184	0.9642663764034923	-0.8417399144916836	-0.5056379042735231	0.18922004680639282	0.5363066566647362	-0.8234008991935992	0.18543497303439233
309														9.736730371815952	2.069573864744361	1.7783466720727121	0.06471333687616981	0.2521647568050855	0.9655180575503408	-0.8526869080849366	-0.4886552064630675	0.18477317439792862	0.518398708342239	-0.8352418958732666	0.18339507781597952
310														9.824440933968743	1.5984467578486037	1.7923327040196333	0.06733023709715924	0.24706953526567121	0.9666557215038069	-0.8631542728272322	-0.47152343721864665	0.1806387263396329	0.5004311545782617	-0.8465354646422782	0.1815113402252037
311														9.750535692527377	1.2235411195520591	1.8158126194321462	0.06986040003837635	0.24234463592023803	0.9676717428690191	-0.8726294845353862	-0.45518186255632975	0.17699506975974266	0.483360432002852	-0.856783840557487	0.1796778877145948
312														9.592086291904725	0.9736925541582129	1.7984829625746677	0.07226176912875171	0.23798230974863532	0.9685776463294453	-0.8808349020809381	-0.4403259411134981	0.17390497652044629	0.46787617165062784	-0.8657236775260437	0.1778043930062907
313														9.565439951521267	0.7624595360384117	1.8628997673944672	0.07467058700076346	0.2339077981075186	0.9693871493997914	-0.8877498130469526	-0.42720085857422196	0.17146339512720526	0.4542296477246526	-0.8733765330130754	0.17575226516320663
314														9.625864169000817	0.5056302198775294	1.9586456056533401	0.0770704077560615	0.23015146619250404	0.9700981676396234	-0.8933370478062909	-0.4161164798985174	0.16969382479515022	0.4427291172546198	-0.8797030054321213	0.17353256457690525
315														9.698316513239469	0.4082592786142226	2.0042648080645	0.07942075468940463	0.22674876712603426	0.970709709610133	-0.8974957895122726	-0.40751427058364265	0.16862214290663063	0.43381292227446144	-0.8845999750607645	0.1711409728562594
316														9.699101525731388	0.4791035401620344	2.035094957873664	0.08167858334331157	0.22371489879840367	0.9712261595934539	-0.9002896978278063	-0.4014846293684744	0.16819201041064824	0.4275594333050629	-0.8881225908828569	0.16861552287786163
317														9.658327046437666	0.6868251823289523	2.087982785693476	0.08386869209181635	0.2210836749450925	0.971641935673621	-0.9019152399822973	-0.3977514064627534	0.16835295822936108	0.4236920371855996	-0.8904582120064224	0.16603984550655976
318														9.620640342376289	0.9474199485406847	2.2060321809477856	0.08608127764401374	0.21883935935414894	0.971956453981679	-0.9027059758514537	-0.3956636391824116	0.16903314997657942	0.4215589339597117	-0.8919414887908264	0.16348836586239196
319														9.574267301084886	1.1849320351286157	2.2518502797127153	0.08829857838972277	0.2170044743727816	0.9721689252164698	-0.9029110483116874	-0.39472948613697845	0.17011840467958173	0.4206601952776647	-0.8928032766943842	0.16108168496985406
320														9.542092651996198	1.4718306268798809	2.27359720356715	0.09061933309409176	0.21542021288295338	0.972307702505254	-0.9027697875830767	-0.39444193999940086	0.17152920041997516	0.42046979332264645	-0.8933138798042783	0.1587307942783595
321														9.502413854444056	1.840837927000113	2.362682856136048	0.09299259121689413	0.21404737294002202	0.972386805811475	-0.902596950091169	-0.39415869733626707	0.17308283277175923	0.4203226423414369	-0.8937687863489372	0.15654466737471595
322														9.520637739387345	2.1974082807096473	2.4203285079003236	0.09555858297402403	0.21272141869727418	0.9724289975352522	-0.9028354407423926	-0.3929103883447754	0.17466995640420674	0.41923349598939047	-0.8946345761025429	0.15450647585890037
323														9.567190569907224	2.4796967770858136	2.417258293608577	0.09825990015646058	0.2112999142198766	0.9724697107220951	-0.9037068538024378	-0.3902563816856241	0.17610757775900499	0.4167240266792184	-0.8961318557022272	0.15260662758851856
324														9.705519815762404	2.588488107110099	2.2880693017255997	0.10101171129526393	0.20967166630148643	0.9725401927589215	-0.905345876621134	-0.3859232605999128	0.17723453561042246	0.412486942661598	-0.8983880171052426	0.15084260954848783
325														9.818084011883354	2.517134089038848	2.1819446414217296	0.10365442982781697	0.20798696964385938	0.9726238633898692	-0.9077785016247493	-0.379824147957555	0.1779657512451273	0.4064405874971094	-0.9013739718267229	0.1494356441693981
326														9.85682229896926	2.2771689427718664	2.0440672006718517	0.10610308198943819	0.20639158296673138	0.9726996712618082	-0.9108481890148397	-0.37222524337320495	0.17833660522771516	0.39887054611832407	-0.904903797470342	0.14849715405698752
327														9.79533212896948	1.9150496487425244	1.9837349466997651	0.10831725278656829	0.2049957179625117	0.972750804865154	-0.9142182992473715	-0.363805365040883	0.17846724542255116	0.3904769827659679	-0.90863766815189	0.14800443893843815
328														9.697860902530293	1.6032066792653066	1.876962484239227	0.11029187961007653	0.20373806096888936	0.9727931454346876	-0.9176140313987425	-0.35517585681044905	0.17842253254314805	0.3818640997425966	-0.9123271963783608	0.1477798906352816
329														9.656187723625436	1.3309298244889756	1.848884466022597	0.1120824187718657	0.2026082111777291	0.9728244672938737	-0.9207436683925364	-0.3470169387927918	0.1783545382263515	0.3737226625685193	-0.9157123767615248	0.1476557297515274
330														9.598247865992537	1.1466127921047737	1.7301081125715991	0.11367836503671391	0.20164642125420162	0.9728391183119395	-0.9234327390027103	-0.3398048341307028	0.1783385859519946	0.36653677286260244	-0.9186247305057587	0.1475784491133118
331														9.59574440860892	1.002865500661033	1.6923157742292556	0.11509093346433863	0.20090105530702973	0.9728272421200124	-0.9255880752176856	-0.33383346401894753	0.17844308144596177	0.3606116915036551	-0.9209744753670602	0.14753041609526105
332														9.559314954307967	1.0564413247128694	1.6461863137686334	0.1163209233252055	0.2003845168747539	0.9727874835716397	-0.9271964120895605	-0.3292097931539538	0.17868331063581927	0.35605653512471497	-0.9227496721692197	0.14750181797720402
333														9.48699733379949	1.3619470674717762	1.67922259437817	0.11745677599683846	0.20005920019374174	0.9727179561364483	-0.928408870941172	-0.32556494604203967	0.17906544688013454	0.3525065589888605	-0.9241124294838181	0.14749692723358301
334														9.492417217599005	1.757281903436975	1.6878179176921877	0.11853980153135973	0.1998799644176354	0.9726234190462982	-0.9295066055694208	-0.3221787900634604	0.17949456102082395	0.34923600280572364	-0.9253371423744158	0.1475987374154366
335														9.534181205797964	1.973971734866121	1.638788095919901	0.11955208395329198	0.19970803261805875	0.9725348327593464	-0.9306805473572908	-0.3185839946057303	0.17982757617170442	0.3457470433614136	-0.9266180119600961	0.14777700063934324
336														9.5818549490847	2.177644978560675	1.5718439105236706	0.12036038000515809	0.1995138301814396	0.972474992219001	-0.9320247938202117	-0.3145907257071997	0.1798956892296461	0.34182329152561547	-0.9280231176351963	0.14808757714692003
337														9.633270969282957	2.179875341583794	1.5640835267472666	0.12105316460257082	0.19942619623314767	0.972406974263184	-0.9336823938520435	-0.3097202199268607	0.17975141940795436	0.3370212437672441	-0.9296787496896091	0.14870811553222202
338														9.567637863706071	2.073157130423786	1.52604154869279	0.12161517440154446	0.1993912166130946	0.9723440194153674	-0.9356385656165556	-0.3039901715192934	0.17936122811428812	0.33134607872476324	-0.9315756106496248	0.14958829418274136
339														9.519168768464446	1.9834408375565664	1.5126430919761082	0.12212784680668576	0.19935745814617284	0.9722866824737748	-0.9377728806693946	-0.2976633756997831	0.17882544295495273	0.32506432181244976	-0.9336236493622612	0.15059903066124067
340														9.520702148089505	1.815940917228061	1.4975377454231436	0.12256219131232332	0.19927853475084906	0.9722482064001335	-0.9400016546341434	-0.2909712099172424	0.17813658884229594	0.3183950353661228	-0.9357477334126176	0.15166008330261055
341														9.542173604813463	1.7452196050338205	1.491921801663933	0.12283594709485973	0.1991710530415478	0.9722356821942042	-0.9422568774955304	-0.28413442989204807	0.17725575466622706	0.31154984659550333	-0.937869136596488	0.1527683727283778
342														9.531132168596814	1.7078456127193151	1.4581476661867798	0.12313205447174003	0.1989915816177662	0.9722349755109766	-0.9445082180519672	-0.27714072580519566	0.17634410716683463	0.30453689956040975	-0.9399975364571072	0.15382427721495587
343														9.563884811834889	1.6049679588429782	1.4413986051645395	0.12343863900536844	0.19876495923350002	0.9722424560681392	-0.9467715147776766	-0.26993020838515447	0.17538922830872755	0.29729884158214637	-0.942141270501432	0.15486518398872495
344														9.618694082862438	1.4396619973864477	1.4037851305420035	0.12375798531668342	0.19846571609994562	0.9722629894237935	-0.9489263384994462	-0.26288102064326435	0.17444876923495473	0.29021158690236754	-0.944195386833939	0.15579571980358808
345														9.63603612896371	1.3306417567102429	1.325263724741425	0.12395761175686887	0.1982039893009358	0.972290948797081	-0.9509049758213508	-0.2562918414578015	0.17347685424968273	0.283574042263621	-0.9460600777050916	0.15670383507402252
346														9.653245022854678	1.2816884881006267	1.300895104197688	0.1241146358603133	0.19799788262440726	0.9723129103542303	-0.952645487954032	-0.25036065611644204	0.17258654683888003	0.27760066903032876	-0.9476900233437071	0.15754836783895226
347														9.668086430493082	1.3351445232531824	1.2550036018975521	0.12420997277033302	0.1978394917941434	0.9723329769945213	-0.9541609894079687	-0.24510303913714715	0.17175944369303436	0.27230256876570164	-0.9490964311872474	0.15832648341711864
348														9.652315144750062	1.381438463461663	1.2600327170658396	0.12427840929644046	0.19770623678194493	0.9723513361538967	-0.9554795709756092	-0.24044529967189576	0.171011249086013	0.26760729891206747	-0.9503148435140925	0.15902211093358576
349														9.635341270159032	1.3591026338778553	1.2409568178842139	0.12431396152609381	0.19759613073643073	0.9723691727361994	-0.956622188623337	-0.23635085352038643	0.17032986312940585	0.2634768058163492	-0.9513643062245802	0.15964313213739467
350														9.582960767288252	1.3498710656450357	1.260935105717715	0.12429108610954992	0.19752144086881207	0.9723872717754058	-0.9576078306232524	-0.2327933734740004	0.16968938680902568	0.2598826055024403	-0.9522565440382667	0.16021393726377262
351														9.480660525111684	1.417356572268294	1.287042034534476	0.1243081937488495	0.1974402524031285	0.9724015732699569	-0.9584428161824015	-0.22971737046188	0.16916647958867898	0.2567778048727071	-0.9530200818655756	0.16067944014616709
352														9.408770189207413	1.6086111148919269	1.3766265641800164	0.12431191584115847	0.19726985771968714	0.9724356795259803	-0.9592517062489847	-0.22672331853251332	0.1686199895979597	0.25373748567823456	-0.9537720587587262	0.16104703751646238
353														9.390732790659092	1.8155754293384374	1.4192490633875445	0.12445424001431393	0.1969333818286081	0.9724856735520621	-0.9601241381219083	-0.22338535650783622	0.16810895839761236	0.2503453245781172	-0.9546288418120497	0.16127923872111574
354														9.398470307701768	1.8700310491437013	1.4262389355854264	0.12463644352695841	0.19641525274902571	0.9725671212993409	-0.9611685865711368	-0.21933572787546202	0.16747174885987043	0.24621272333856659	-0.9556740484939814	0.16145094580499936
355														9.377136368427909	1.926004778603827	1.451825388445789	0.12491639094635743	0.19577222258343296	0.9726608515498499	-0.9623951938078746	-0.21444460347454108	0.1667603159512181	0.24122890831830246	-0.9569152255583508	0.16162260017141894
356														9.370561243734636	1.916299881110421	1.5098614394027254	0.12523890799788628	0.19496508536338986	0.9727814921207865	-0.96381796176397	-0.20864264765549312	0.16590112163711518	0.23530863244820427	-0.9583615502870264	0.161780673835919
357														9.316912731272522	1.9490934249224168	1.4538192301706578	0.12549560256118697	0.1939662416840114	0.9729480720083599	-0.9653998590423805	-0.20209050550290414	0.1648106178209796	0.2285912638286008	-0.9599669393643515	0.16189351262074297
358														9.33429972896125	2.0689251181893162	1.4365270776954226	0.12557727392135115	0.19286495685162391	0.9731564399895338	-0.9671577599778445	-0.19470340970339584	0.16339048186632532	0.22098917527589518	-0.9617139339057602	0.16208051623309583
359														9.338737737189373	2.2634585550339077	1.3606714580151524	0.125365792600015	0.19169847600359557	0.9734141525289578	-0.9691138620653816	-0.18636447177147483	0.16151348554860667	0.21237170338463363	-0.9635974148778308	0.1624139207157783
360														9.292794381184818	2.334255055810419	1.3510113402118749	0.12489394297253614	0.19045793405152245	0.9737182746388193	-0.9712830698533768	-0.17684318857335798	0.1591718721112766	0.20251099038070436	-0.9656356776818232	0.1629019237547322
361														9.371228732865806	2.140876069196035	1.3704820418698511	0.12426653997320414	0.18927129207585436	0.9740298789251922	-0.9736145197209467	-0.16609115164548605	0.15648800699614812	0.1913964316063348	-0.9677758559403169	0.16363770539624667
362														9.413585060953514	1.8480633604492094	1.3065155342238548	0.12350592947971717	0.18808411014290455	0.9743565327410202	-0.9759340544845758	-0.15480145380072996	0.15358786149457765	0.1797192440465078	-0.9698767331021672	0.1644387907594177
363														9.531841463952862	1.4509268642311761	1.267438306204283	0.12275243333353358	0.18700493491638742	0.9746594248390636	-0.9780909159035174	-0.14358738220534345	0.15073428242584802	0.16813685002912093	-0.9718085294893921	0.165282127509149
364														9.685393384746863	1.1503915733884127	1.3035846841239158	0.12203595526371486	0.18609560901474592	0.9749234072112043	-0.9799895198492377	-0.1330326534949235	0.14806368254828933	0.1572506489924082	-0.9734838146623346	0.16613697957389245
365														9.729877415123307	0.877366247553311	1.3230586280637942	0.1214521609080853	0.1853149594427438	0.9751449832806869	-0.9815638181771723	-0.12365042165400073	0.14574993677610676	0.1475867319788871	-0.9748686778389806	0.16688084824889313
366														9.70305010179408	0.7421005330355005	1.3812785663373626	0.12107856984062593	0.1845816173112202	0.9753305114042741	-0.9827905510459769	-0.11580058777374022	0.1439199661131193	0.139508826602813	-0.9759712344234489	0.16738409983590338
367														9.732222391162109	0.543575141936394	1.3660887762090976	0.1208376766507901	0.18386524213391886	0.975495683556147	-0.9836783639919788	-0.10980453332002679	0.14254767860766865	0.1333234117314102	-0.9767991283766619	0.16759573588516605
368														9.760179549677206	0.3343380071728912	1.378012556867452	0.12084517699645209	0.18314460179165337	0.9756303080733358	-0.9842148769896331	-0.10590920369607829	0.14178969103832367	0.12929624553318197	-0.9773644639575549	0.1674550252574817
369														9.773451450472177	0.2319569823565955	1.4589674315343857	0.12106013144854111	0.18261824302538815	0.975702322375007	-0.9843996278391256	-0.1043425770892489	0.14166862502532046	0.12767857018251988	-0.9776314253954268	0.1671376043727231
370														9.764357310643422	0.2790278807025953	1.4387570860358379	0.12141781117276501	0.18219210560768767	0.9757375424694142	-0.9842411848384476	-0.10521665569746116	0.14212229041093766	0.1285574004008473	-0.9776172523120075	0.16654579785781795
371														9.731805330159517	0.4928412477512167	1.442453978307792	0.1218202801700024	0.18188516927404752	0.9757446410498258	-0.9837687138945965	-0.10836813629328718	0.14302260170508485	0.13175331836987608	-0.9773301040254878	0.16573150232848138
372														9.756881940642534	0.7435889536137646	1.502553029244332	0.12228513474280489	0.18178345324456274	0.9757054483538641	-0.9830425951838153	-0.11317136852118004	0.14428963026257868	0.1366513881202911	-0.9768044929634201	0.16486170159037072
373														9.69727855807141	0.8771444343226689	1.4986265171573967	0.122816388071257	0.1819304060504331	0.9756113274124354	-0.9820935306100963	-0.11922845766290069	0.14586593850903345	0.14285808326771593	-0.9760563007519851	0.16402946627793402
374														9.597736058045273	0.909897997444653	1.5961143906636872	0.12337929280108556	0.18222949509543412	0.9754844751328274	-0.9809445605363385	-0.12627223316493855	0.14765870203177928	0.15008437381044837	-0.9751142160017992	0.16317765315484548
375														9.612646541197291	1.0607794078217507	1.5797108129042525	0.1239636927018285	0.18268814505588826	0.9753245842014675	-0.9795862041596916	-0.1342258649304586	0.1496472044632901	0.15825255609857947	-0.9739653273293198	0.1623196526873961
376														9.633149749136276	1.2048645169886267	1.5382832853674087	0.12445772757333429	0.18310988722719096	0.9751825691873941	-0.978065154111547	-0.1428066609165433	0.15164040329220613	0.1670294236355893	-0.9726649098212152	0.16132000757020185
377														9.622647070763074	1.3209877523838103	1.5754601190639774	0.12493307791512898	0.18358481114460073	0.9750324831305128	-0.976412348141048	-0.15167423626967294	0.15366799422682775	0.1760984169160451	-0.9712319718630626	0.16030534735513371
378														9.633499379822325	1.3778970443787855	1.5846490336560222	0.12539118266372884	0.18408949510976907	0.9748785099182471	-0.974666894604858	-0.16058032958103607	0.15568687264174924	0.18520663020397993	-0.9697035709647954	0.15929057908931743
379														9.576649104191986	1.4422447902094926	1.518926050467108	0.125825112938385	0.1846129411076028	0.9747236033510442	-0.9728344617393059	-0.16949605647947175	0.15768385107646032	0.1943222864378613	-0.9680853003808646	0.15827097074338448
380														9.559882830065838	1.5674962618962456	1.5736318095806967	0.12624473473201214	0.1850798808342446	0.97458078406196	-0.9709795726416377	-0.17811600822710805	0.15960375035036756	0.20312788204750615	-0.9664471663384511	0.15722257538684392
381														9.4952010027765	1.6119877813001249	1.5912391087614481	0.12672177040374494	0.18551412430542102	0.9744362999134084	-0.9691367059314009	-0.1862629698056687	0.16149350233246684	0.21146072477454175	-0.9648267283623344	0.1561849740386705
382														9.484300813678638	1.545964060883973	1.6400999358071486	0.1272464821337333	0.18590981482775476	0.9742924989628629	-0.9673419264953751	-0.19384036092660678	0.16332639627463763	0.2192211897349493	-0.9632566922822563	0.15517285440643475
383														9.429127891656885	1.4920776785837948	1.6191374978234696	0.1278763432830899	0.18623268730899084	0.9741483598539888	-0.9655720134667869	-0.20097065815940596	0.16517106698411188	0.22653548869490653	-0.9617318653016788	0.15412167798565213
384														9.352318498265046	1.4992670335456102	1.6213795257973396	0.12861860014255816	0.18638586532310147	0.9740213369865814	-0.9638339922356187	-0.20767841654307978	0.16701410333654026	0.2334122771160897	-0.960275993925662	0.1529337254550613
385														9.432725653417009	1.5769186618861135	1.635494783488014	0.12945643360480463	0.18638748242514258	0.9739100257177468	-0.9621502438247183	-0.2139208569536553	0.16883357269290084	0.23980813186036898	-0.958904360901248	0.15163933044632263
386														9.41810560680635	1.784711345360759	1.675007341507366	0.1303258210307634	0.1862015389075603	0.9738296397630917	-0.960581939941393	-0.21954791699040258	0.17053166510535472	0.24555552738858671	-0.9576678438026573	0.15024907292652892
387														9.441718913676022	2.0713763025734533	1.631978493648226	0.1310639355795709	0.18583206928524354	0.9738011536322795	-0.959215205256621	-0.22438671004292549	0.1719208956485816	0.250456452891301	-0.9566175026525892	0.14884394117272975
388														9.478796623577368	2.2676072505814	1.6841989309117837	0.13177454978886272	0.1852928225389079	0.9738080087694434	-0.9581430281108292	-0.2280686794893535	0.17305090325853345	0.25416019694388475	-0.9558510591883802	0.14748337851398163
389														9.503945153712323	2.172253087154248	1.7251669953341215	0.13238925728457995	0.18476638382666677	0.9738246597633755	-0.9573359161632823	-0.23077136051358882	0.1739325236708653	0.2568677250637888	-0.9553041204633863	0.14633184631593266
390														9.500149826177863	1.5176368758799879	1.7371256032077849	0.1327783086855182	0.18455130270855546	0.9738124754854955	-0.9565060722691934	-0.23362040671783124	0.1746929857697676	0.2597422846876773	-0.9546529852431043	0.14550471920750685
391														9.49120175993128	0.63342659916296	1.750306122799351	0.13280344753456952	0.18500979776538284	0.973722044042213	-0.9551354038778843	-0.2385079693439871	0.17558561677551754	0.264725526880133	-0.9533547730463304	0.14503472731665368
392														9.377378137236992	0.006267886248821286	1.771858346571233	0.13231419942484618	0.18633533198092428	0.9735358733432073	-0.9526803080744413	-0.24726457307708527	0.17680628243418045	0.2736661894311215	-0.9508624374516883	0.14480138744391924
393														9.434140786936435	-0.03316949020885968	1.8642909247089057	0.13137307494808514	0.18868883433938227	0.9732099665407921	-0.9486535219630827	-0.26102621929594844	0.1786667515434875	0.2877457392312241	-0.9467110629097499	0.14470851018018177
394														9.623669532519065	0.6450175042847178	1.992559612117974	0.12993500428843052	0.19212845120711425	0.9727299485968965	-0.9428582221843775	-0.2796311901788884	0.18117607551344506	0.30681471203298044	-0.9406875441483713	0.1448160100411049
395														9.729417722152533	1.7758422317120444	2.047675421489268	0.12792024057425933	0.1966301161690836	0.9720972222297295	-0.9353760143654897	-0.30192239637268614	0.18415911141810437	0.32970915031456866	-0.9328341031415538	0.1453011087877097
396														9.830810034947033	3.0295332861192175	2.195376702340025	0.1254551541213872	0.2021380392974798	0.9712884316068785	-0.9267153298633197	-0.32565790365635094	0.18747167034640072	0.35420291035040596	-0.9236271665856963	0.14646895727143328
397														9.858503945458995	4.069720102161845	2.6077817285326494	0.12301234066813066	0.20831498684188976	0.9702952284229842	-0.9176891414979303	-0.34830866523224807	0.1911222470067822	0.37777586426363907	-0.9139397901290836	0.14832213725087529
398														10.00330242379832	4.3966931440082515	3.068416324954761	0.12070796277788132	0.21505740072781654	0.9691129460048553	-0.909045302566956	-0.3682803182390667	0.19495190452694683	0.3988310740187701	-0.9044998184576534	0.15104255296805355
399														10.041521895693217	4.134798391559473	3.417566445466977	0.11840190355148716	0.22255669501874442	0.9677032121150153	-0.9011043300296274	-0.3853082230776586	0.1988681966293105	0.4171234537127362	-0.8955479276571809	0.15492557449203787
400														9.907632449946973	3.7806245476523	3.7147134656189467	0.11621856302821809	0.23050293169016517	0.9661064351767327	-0.8939326071342961	-0.39965061911079097	0.20288882804738406	0.4328715046174044	-0.8872134924169041	0.15960726601149414
401														9.864518714766987	3.5454086912014398	3.9890218294409774	0.11436239135804532	0.2386258578527904	0.9643541587025427	-0.8874936060747958	-0.411655751425827	0.20711021581368855	0.4464037887599345	-0.8795437693952799	0.16470098693911395
402														9.975602292411141	3.174790125490124	4.221207251239134	0.11276603718414085	0.24707594471119543	0.9624122289345949	-0.8817344787517734	-0.4216472287862789	0.21156068499886665	0.4580700053901405	-0.872448905095262	0.1703078922421245
403														10.262845824718488	2.476869232579442	4.379479919744493	0.11134213318868086	0.2561485755139041	0.960203539172394	-0.876527362473164	-0.4299930658391957	0.21634635695117937	0.46829767478905127	-0.8657331405187203	0.17664489008958353
404														10.287555592672682	1.827653969678097	4.458320970186881	0.10983518300507311	0.2660101268239075	0.9576924584653317	-0.871200569187794	-0.4380700521328039	0.22159466977169529	0.4784828114165714	-0.8586811060291775	0.18363266955365706
405														10.302035609372346	1.5252023314575696	4.682487993208817	0.10822864408040483	0.27672171713381044	0.9548359292920598	-0.8652873514400655	-0.4466647302153938	0.22752674176774246	0.4894531234330337	-0.8508323630704957	0.19110188359491004
406														10.321869289482482	1.3209783034394162	4.826077619767609	0.10647638054998976	0.28828064934447495	0.951607612200797	-0.8583491427760965	-0.4564356072006397	0.23431450141833837	0.501895934911327	-0.8417605382131621	0.19884583683490553
407														10.374896740740022	1.2014943290140763	5.080956915799141	0.1047106825109238	0.300717420768946	0.9479476282021961	-0.850156071811585	-0.4675100771863058	0.24221680637633114	0.5160138821097657	-0.8312661189867699	0.206703441903326
408														10.499204864071427	1.2499438245945285	5.335858437163789	0.10278295537213811	0.3142599074452248	0.9437565229748021	-0.8403702044500236	-0.48017489965303867	0.25141596054312054	0.5321781502068595	-0.8189461376157245	0.21474086738832981
409														10.584783625389843	1.4821740663092302	5.413753668057476	0.10052229301858295	0.3289099707131138	0.9389960062597625	-0.8287221294975624	-0.4945700729267256	0.2619543377122777	0.5505587168389136	-0.8044990205902995	0.2228596535533904
410														10.549460008115055	1.9992581275768861	5.660690381848294	0.09785723751889752	0.3448546432278675	0.9335412342844586	-0.8151963467962849	-0.5102960721575026	0.2739577246777614	0.5708580184556938	-0.7878281499063138	0.23118808139701666
411														10.438572047731626	2.843566389642574	5.941416159964119	0.09483596469430439	0.36202416017852773	0.9273320048653193	-0.8003190879360031	-0.5262610503366391	0.28729543049596507	0.5920266018396345	-0.7694074436510278	0.2398263712951637
412														10.315047277481192	3.752325472706169	6.160729076324244	0.09146350507188833	0.38025605041590094	0.920347631801193	-0.7847177898676074	-0.5414733175095966	0.30170289473329354	0.6130680366038193	-0.7498079637795607	0.24886863994382014
413														10.311952609681459	4.586979910565893	6.352009864762653	0.08789569648007273	0.39927735645673695	0.912607220638322	-0.7693559047493177	-0.5547326803663851	0.3168014285966605	0.6327446865582056	-0.7299652361273419	0.25842777652162763
414														10.402442243881849	5.161292727385464	6.55626396091508	0.08403669173181533	0.4190836665593026	0.9040501727592241	-0.7549854297511304	-0.5653380574940232	0.33224972778376394	0.650334402677786	-0.7104658761489502	0.2688929220370659
415														10.427598110689857	5.399692548607374	6.711593943580859	0.07981808146306107	0.43955370976135644	0.8946628471701422	-0.7421218850447588	-0.5730077840851195	0.34773148709237484	0.6654954407125339	-0.6917041387854275	0.2804660456774405
416														10.344423122032357	5.469405876236934	6.697716793153541	0.07509529604794574	0.4607645807787592	0.8843396958246563	-0.7308404518625267	-0.5779112234672725	0.3631678010395993	0.6784046951730576	-0.6735834164306114	0.29334698000289083
417														10.452436691107605	5.539381523263387	6.697125846114309	0.06995919331228823	0.48245431042215464	0.8731228720095338	-0.7210728227069596	-0.5803622874240091	0.37846215093373475	0.689318283251294	-0.6560620806684796	0.30728301398618474
418														10.657041089544201	5.665414161502288	6.553751571487255	0.06415423944951149	0.504688274808552	0.8609146176197855	-0.7125098760862795	-0.5808620175025152	0.3936102045201846	0.6987230567543685	-0.6386619308316994	0.32233061918805705
419														10.8501051183543	5.790921308720408	6.477266010838018	0.05765076708007705	0.5273429958215982	0.847694375239673	-0.7052781106179841	-0.5794504129954952	0.40843604831414615	0.7065827451461041	-0.6214069388389952	0.33851771094662675
420														10.864149451801412	5.931133997869854	6.3990756305107475	0.050391833588299295	0.5502535481810911	0.8334756720035258	-0.6992682706074422	-0.5764098756656149	0.42281856742204155	0.7130810254306913	-0.6041296946428558	0.35572849649900645
421														10.862034462136801	6.0020091015921375	6.250745848620736	0.04270788171662421	0.5732294623280917	0.8182811377261032	-0.6945801584341117	-0.571684185685909	0.4367328649715795	0.7181465312517519	-0.5870137778244106	0.3737383901814081
422														10.799235125199786	5.88791495230467	6.134607258015567	0.03442129803132543	0.5962135876812561	0.8020876087473758	-0.6910976007165349	-0.5655472551725955	0.45004489603881914	0.7219413276199715	-0.5698119514638035	0.3925749093400197
423														10.809399801357987	5.837320527181308	6.079007059112543	0.025728289595485287	0.6190638897706322	0.7849190757629383	-0.6884200242695127	-0.5583579648405382	0.46294087450115695	0.7248557962100148	-0.5522646860710785	0.41181038260291436
424														10.665002184491367	5.64844486550402	6.130306085490994	0.016387908277572028	0.6419302830127819	0.7665878607266198	-0.6862713090469496	-0.5503611041294968	0.47553585084654465	0.7271610047584179	-0.5338802925867284	0.43151906834604326
425														10.542716573376769	5.425461553645245	6.145184086867859	0.006498954585713368	0.6646118295839126	0.7471605447067028	-0.6842700852670064	-0.5418965831901912	0.4879780154222932	0.7291997078976215	-0.5144309565956546	0.4512522320145388
426														10.298527754570518	5.284288666025343	6.039863608293265	-0.00401915088124849	0.6871626455504175	0.7264924947901014	-0.6820843924957115	-0.5331490603656346	0.5005126980856706	0.7312624207081547	-0.49351755591001295	0.47084572215180764
427														10.078024265155713	5.407986998083494	5.8916989630113665	-0.014805727662164536	0.7092791917353283	0.7047721749612944	-0.6797534230433393	-0.5240565143896918	0.5131277166423479	0.733291261566137	-0.47147406916712414	0.48989399650713933
428														10.026670325054726	5.528060726276634	5.723913663222257	-0.025913612189590207	0.7309104255319248	0.6819812567453951	-0.6772746896058355	-0.5146164263189119	0.5258031272083414	0.7352737446166611	-0.44826318565268425	0.5083627020798245
429														9.947845366995296	5.418321429956128	5.338131013376267	-0.03744132545878348	0.7518728638472125	0.6582441368960912	-0.6747501319332745	-0.504891826412066	0.5383275054075506	0.7370959276810025	-0.4239946228815629	0.5262301332721294
430														9.739430816156764	5.224797641545361	5.1462997810623445	-0.04955914500373931	0.7721455814339456	0.6335101358451438	-0.6719549517911604	-0.49505039679920204	0.5508190695612238	0.7389319548577109	-0.3983921506518256	0.5433813213473346
431														9.522324964209043	5.259438041957044	4.996033164304829	-0.06198131269397705	0.7916344732110124	0.6078430535102419	-0.6688098031861663	-0.4849970621357793	0.56344591300474	0.7408453037165137	-0.37160827566617305	0.5595136507875395
432														9.247429902481759	5.434515719356902	4.736868679754772	-0.07462505265136632	0.8101893208376509	0.5813986290983204	-0.6652489373304309	-0.47477629159893775	0.5762215930666713	0.7428828662026827	-0.3437742534515724	0.574407790481902
433														9.027037972705852	5.337355250900872	4.489068831886355	-0.08728262546416743	0.8275739940943461	0.5545295552004539	-0.661503146988885	-0.4643588841920393	0.5888840405340646	0.7448458429875833	-0.31542370071168657	0.5879732640294634
434														8.845310735060247	5.031503690827741	4.206756070406387	-0.10011454075414566	0.8439011306047759	0.5270749097553091	-0.6575725530271044	-0.4536752974670807	0.6014790619577473	0.7467097268919176	-0.2863731939831952	0.6003457150116597
435														8.476586662346222	4.744032300458273	4.1116618095095285	-0.11296454060892258	0.8591246763972422	0.49914306863899155	-0.6532391391489429	-0.44274418428549017	0.6142118643964183	0.7486772600052465	-0.25667562737180527	0.6112282574164312
436														7.944080284206777	4.667059301259581	3.9288995035600864	-0.12567442175117388	0.8732737730659744	0.4707428777927765	-0.6480376376021172	-0.4315436982130492	0.6275486091002606	0.7511678640414372	-0.22619229387342432	0.6201482776108496
437														7.377781445448962	4.656869781152751	3.886175728277622	-0.1379939704179402	0.8862251653295312	0.4422246267056341	-0.6421663121069774	-0.41998660210225586	0.6412750436821357	0.754042499944941	-0.19548966824680586	0.6270595648624914
438														6.877676273503179	4.825809983309503	3.641779539497283	-0.14993799006754543	0.8979681679666238	0.4137291003219004	-0.6357896073512834	-0.4080344348468667	0.6551942270527864	0.7571592793584483	-0.16480615673530713	0.6320986919647373
439														6.405517113936473	5.099031824101639	3.461929302135538	-0.16134256934107538	0.9085838966750435	0.38528415230997304	-0.6291255521964492	-0.39548079860628493	0.6691755954211482	0.7603746542934828	-0.13442559516896058	0.6354212338846865
440														6.06080097454016	5.074095946488912	3.4261375147151365	-0.17225936326311275	0.918023835008421	0.3571539585733573	-0.6224519117648949	-0.3824570883646701	0.6828471227879982	0.7634659974801862	-0.10468435373087709	0.6373075056638939
441														5.903216909617573	5.206527877418342	3.2946356085289334	-0.18258702029304374	0.9263983322352259	0.32931460649704003	-0.6159561422635561	-0.3688479061684169	0.6960957210922744	0.766328918173069	-0.0757453110559817	0.6379675830516212
442														5.179076431215886	5.736903002426472	3.001949574702727	-0.1925738849685419	0.933807335874576	0.30152803898634334	-0.6097570845307159	-0.3546281707524038	0.708826606705339	0.768837822100815	-0.04735736453426087	0.6376877631973542
443														4.344835592000505	6.222786528366562	3.2020113448099567	-0.20161381340173828	0.9403248783185051	0.27411857554878916	-0.6053465464196292	-0.33964152039834616	0.7198605395209041	0.7700048240001074	-0.020802904527685573	0.6376988397196401
444														3.6349688253813772	6.405929998987721	3.2480718916286673	-0.20917878491856778	0.9459073228714119	0.24799913805945195	-0.6031282975550991	-0.3244244296901797	0.7286872073177151	0.7697275444131388	0.0028506066794948826	0.6383661812888269
445														3.286203247163148	6.349040465209684	2.9309044749601707	-0.2154703482467193	0.9506128011320596	0.22340060731855044	-0.6030846410153756	-0.30947437112656023	0.7351969323842257	0.7680243777366662	0.02368366398342392	0.6399825304354231
446														3.0784858173124614	5.833975929078712	2.7280342413755094	-0.22051655725267472	0.954654792068115	0.2000166892007073	-0.6052389091072246	-0.29473648129928265	0.7394702627516637	0.7648910451038924	0.04200755375765275	0.6427884990781753
447														2.965948219076777	5.433363486224353	2.8118229578724887	-0.22462107108857987	0.9581238444878672	0.17760651183672332	-0.6086232970837566	-0.2802852253077919	0.7423057824919982	0.7610013512930949	0.0586420591209873	0.6460944607657104
448														2.919058660757591	5.052376950908139	2.8444877128779056	-0.22841443601731837	0.9610187782011128	0.155787526341908	-0.6124192098608456	-0.26622466549802415	0.7443568625826478	0.7568154047139288	0.07461457917394904	0.6493559176309912
449														2.5613135521256574	4.9618039148059445	3.286805274097253	-0.2323958230059725	0.9632858704800777	0.13443404770673362	-0.6160753766094729	-0.2527454168980481	0.7460367849995929	0.7526242832814216	0.09055432607264835	0.652193684609607
450														2.3081772354763443	4.921603597273178	3.7777314397388326	-0.23641309291705098	0.9649748550883941	0.11372061618073454	-0.6192437729016671	-0.23982354919152232	0.7476776143336707	0.7487629793331809	0.10633999388900472	0.6542520970388892
451														2.034704597917173	4.259483306365613	4.033882128978328	-0.2406313121683199	0.9661018724745862	0.09350798685273304	-0.6214636782437968	-0.22735612418173282	0.7497280102949011	0.7455732480634236	0.12229621743193364	0.6551062257176297
452														1.8752379125974463	3.443198140377587	4.139871758862027	-0.24487033980931716	0.9667178425096418	0.07412914174043439	-0.6216227962670912	-0.21521173676556193	0.7531726279674756	0.7440588792849344	0.1383492729719038	0.6536328195748692
453														1.609482508450064	3.680582000782785	3.926815279167302	-0.24936648708777642	0.9668220920534986	0.05542018977591251	-0.6182870417420275	-0.20299474772012222	0.7592853655984265	0.7453438730756388	0.1550747391271069	0.6483936583228322
454														0.8442164743111537	4.797532823554221	4.104457963804705	-0.2538669034147093	0.9665096171523233	0.03756002266633862	-0.6120856994594501	-0.19059801755705916	0.7674786591303725	0.7489343708682772	0.1718474778848622	0.6399732435631582
455														0.3555867668696748	6.032309850661459	4.239411459128456	-0.2581142841070466	0.9658870123736893	0.020959381377690656	-0.6044404040674003	-0.1783729109191765	0.7764244345595117	0.7536768632980217	0.18773754014061272	0.6298617322486
456														0.13371106710749273	6.697123884503108	4.302028917180922	-0.26209360295320944	0.9650245074289846	0.005885860383321562	-0.5962301240300806	-0.16672149967513478	0.7853111362671165	0.7588257919246557	0.20231569787715575	0.6190733202960691
457														0.023308770501261337	6.946650370018756	4.129762388486438	-0.2660168254875865	0.9639372660480782	-0.007745687914245736	-0.5876060893617857	-0.1557808380583879	0.7940097066401497	0.764168916079722	0.21577135495144906	0.6078557313046902
458														-0.07738492176469211	6.895170757863362	3.7801008135594563	-0.2700498891504336	0.9626364175085543	-0.020104354158605064	-0.5790093678352689	-0.14567668530215439	0.8022010068046408	0.7692991676382086	0.2282749023560698	0.5967154762744854
459														-0.3501728622294946	7.1243968043563335	3.459969135637026	-0.27420532032010403	0.96115490874601	-0.031506883400287566	-0.5706838476347641	-0.1362639235404599	0.8097852117630587	0.7740357797653357	0.24002788282782872	0.5858798742986993
460														-0.4556643629439132	7.341096926813263	3.449872640934127	-0.27824854739697097	0.9595906108964329	-0.04199530153345632	-0.5631404671438609	-0.1275603154070775	0.816456477834698	0.7781070364265249	0.25082708269374987	0.575877777354599
461														-0.449585602970986	7.435825482878067	3.5694631639093104	-0.28208362680656096	0.9580052473904398	-0.051524493787320214	-0.556604339303504	-0.1196757842020724	0.8221127149875065	0.7814220607048199	0.2605832931099032	0.5669884570216854
462														-0.5360126482626644	7.269404692944577	3.502578072898027	-0.28556915307828107	0.9564660087155764	-0.060191635480753014	-0.5512699552856538	-0.11256579919361356	0.8266984802521753	0.7839334762653692	0.26926142505676093	0.5594162937981838
463														-0.6373102429793215	6.802353337794579	3.4337977510437057	-0.28873829740046697	0.9549861631735691	-0.06805603398159799	-0.5468028316646382	-0.1061396957358797	0.8305064890009155	0.785898758681939	0.2770122617071666	0.5528357332572374
464														-0.5517161907786778	6.418392354638859	3.4993170951027714	-0.29190395142671455	0.9534883212392443	-0.07518047886146478	-0.5423827706370189	-0.10027781142953204	0.8341254645741343	0.7877899550372438	0.2842611155175327	0.5464271268404842
465														-0.6023081297170463	6.351922825971194	3.7439794646822318	-0.29493046610735174	0.952024979534657	-0.08163613479174608	-0.53733027581653	-0.09459828305257886	0.8380497237839983	0.790121632948138	0.29103196248099644	0.5394517605512359
466														-0.8518720365412764	6.31739131724676	3.844376457951863	-0.2976768151719693	0.9506409118210988	-0.0875806512936716	-0.5317819830747634	-0.0889282178738835	0.8421993199610456	0.7928407382230973	0.2972770237299303	0.5320055779558417
467														-1.1855424064482334	6.218000526700273	3.6644752198266906	-0.30005713481924856	0.9493961949803478	-0.09280399129833389	-0.5260294991343195	-0.08352019117978549	0.8463553294602624	0.7957755222954277	0.30277259225717573	0.5244712341905033
468														-1.2464813298326727	6.516712388559905	3.4780662681284675	-0.30195748415063395	0.9483617206902519	-0.09711706592996111	-0.5202233105809742	-0.07855229929352697	0.8504100442750377	0.7988675640515084	0.30731023901771476	0.517079328634673
469														-1.0012869519624827	7.074236608742429	3.4832069800746384	-0.3036455097611127	0.9474650970089448	-0.10054498670617618	-0.5145718981893094	-0.07426063506482072	0.8542254501439422	0.801882264422755	0.3111193469226893	0.5100878218254522
470														-1.1175491822447314	7.299850937520855	3.497278585492298	-0.3051273614221772	0.9467262639574523	-0.10298871027789108	-0.5089269419964346	-0.07069981394696542	0.8579014535586365	0.8049165553159512	0.31418293626648125	0.5033869501062522
471														-1.633065574502952	7.617997988828955	3.4558228322879962	-0.30625868410138124	0.9462224879977136	-0.10425268159575901	-0.5031609848035287	-0.06793521177157064	0.861518328518375	0.8081055882643264	0.31630335156138983	0.4969079874654847
472														-2.0607066156617706	8.278216927800079	3.563590120638437	-0.30672830721634137	0.9460989140562995	-0.10399322272960276	-0.4976577989204146	-0.066281143718458	0.8648372824763406	0.8113288240447804	0.3170231139978033	0.4911638061433782
473														-1.9455292404750433	8.839348765605653	3.711642901920695	-0.306925064561814	0.9462225685134599	-0.10227343535599737	-0.49320410165592954	-0.06622738855418364	0.8673889825880088	0.8139697284626095	0.31666509728905123	0.4870076973780002
474														-1.5020401360603397	8.965206408055673	3.9615769873958477	-0.30703859061125094	0.946508487734684	-0.09924206024493226	-0.49021455820598747	-0.06791084097513489	0.8689521302125676	0.8157309549099909	0.31545174008753235	0.48484348905330543
475														-1.0669346660986982	8.985384063302574	4.14104279301232	-0.3073102092160679	0.9468284716391129	-0.09526951561290592	-0.48862269818324683	-0.07109307702651096	0.8695939473219818	0.8165833050777489	0.31378594565793366	0.4844895109038543
476														-0.9366146910966149	8.887992111300662	4.214702555895188	-0.3078699047540687	0.9471145944143069	-0.09049898780728538	-0.4881209744420409	-0.07558661178647225	0.8694967385956047	0.816672539061081	0.3118663322099127	0.48557734170517386
