// Start Time: 1748433505.005953
// Update Rate: 100Hz 
// Filter Profile: 46.1 human
// Option Flags: AHS Disabled ICC Disabled 
// Firmware Version: 4.0.2 
PacketCounter	SampleTimeFine	Year	Month	Day	Second	UTC_Nano	UTC_Year	UTC_Month	UTC_Day	UTC_Hour	UTC_Minute	UTC_Second	UTC_Valid	Acc_X	Acc_Y	Acc_Z	Mat[1][1]	Mat[2][1]	Mat[3][1]	Mat[1][2]	Mat[2][2]	Mat[3][2]	Mat[1][3]	Mat[2][3]	Mat[3][3]
0														8.94693511270702	-4.00471516903063	0.5717600669985752	0.4246450591686259	0.0552230435831183	0.9036741609568636	0.8840239189761439	0.1901246849098271	-0.4270296416713942	-0.19539264162637882	0.9802056007008715	0.03191701666681128
1														8.905808514306118	-4.022665800622413	0.4391347425937163	0.42482792830215077	0.05460697659868552	0.9036256467372168	0.8842668886123652	0.1887567669394365	-0.4271334131607806	-0.1938899198986619	0.980504442132376	0.03190200495844482
2														8.904362242982868	-4.127148429671998	0.43546266360037283	0.42501663857869965	0.05388669873413249	0.9035801462132729	0.8845400934469843	0.18725630617183137	-0.4272281578778269	-0.1922229955444017	0.9808319425357321	0.03192210026797654
3														8.87180575352355	-4.247032156855093	0.3904566203826091	0.4252997718386856	0.052998734750601184	0.9034994400600355	0.8847521811550485	0.18590312014010474	-0.4273799338569353	-0.19061396070421133	0.9811376886232683	0.03217380841063404
4														8.834744748098538	-4.328793463290319	0.3931888364083193	0.42563417336621107	0.05200887873034682	0.903399483615125	0.8848758286464435	0.1849153804201906	-0.4275524177938029	-0.18928898103199898	0.981377286581093	0.03268490542435823
5														8.75808521379364	-4.340666148113074	0.3870672440097179	0.425964906338318	0.051085520014400754	0.9032962793087586	0.8849407548827817	0.18420084898367173	-0.4277264401240441	-0.1882385691501104	0.9815601443001611	0.03325543873964511
6														8.766878107457241	-4.323335137368101	0.3660084826691068	0.4262180036147587	0.05010550472627584	0.9032317818759339	0.8849903686075624	0.18377928526933957	-0.4278051212617044	-0.18743068283101455	0.9816896723007815	0.03398715097627032
7														8.726990354723807	-4.2617186608595	0.4228186043398893	0.42633526212637823	0.049044785759919274	0.9032346612356039	0.8850830972408918	0.1835035930155829	-0.4277316241860561	-0.1867248115438936	0.9817948056188397	0.03482534154552537
8														8.836686512650473	-4.154789375084005	0.497608447212059	0.42633030585662224	0.04787200034981154	0.9032999180176582	0.8852284820487655	0.18330531207775233	-0.427515727352477	-0.18604570642140256	0.981889726062243	0.03577095156095003
9														8.894516599312775	-4.074934738780801	0.5806637775461413	0.4262359179490098	0.04629885634787756	0.903426454201472	0.8854423269424544	0.183154531439014	-0.4271373353759748	-0.1852426190402678	0.9819932960637943	0.03707207273498973
10														8.835527468710257	-4.054820533752531	0.7594866892437513	0.42619266324417665	0.04415522758491536	0.903554165323674	0.8856660949617194	0.1830866724898069	-0.42670228332160354	-0.1842698619744847	0.9821046717298191	0.038923408565667145
11														8.817390499209555	-3.9830083140249144	0.8391214001268572	0.4260198652293648	0.04136202320167787	0.9037678117008919	0.8861164753668829	0.18242897638525513	-0.42604842525046577	-0.18249566162878372	0.982348640560821	0.041066797720063386
12														8.81742182046773	-3.9852838667655477	0.9199861585024903	0.42583009042450337	0.038112046052204085	0.9040001139572793	0.8867567261486836	0.18097169650960626	-0.4253372234974308	-0.17980890611737693	0.982749569833612	0.04326708070488111
13														8.84954877209002	-4.091303530160834	0.9854094860653414	0.42567137864980875	0.034848238723741654	0.9042065459043218	0.8874804029811123	0.1789255108448165	-0.42469306080203867	-0.1765854233023037	0.9832452704319379	0.045236339931206085
14														8.993968323158837	-4.193994338970734	0.9396228392852252	0.42565087898772114	0.03184738778064705	0.9043268618749141	0.8881728106333153	0.1764936061305586	-0.4242629673289297	-0.1731195762145275	0.9837864356081458	0.04683867466871856
15														9.20811640132054	-4.311650696830947	0.8209137876067726	0.4257289333060003	0.028810868266973322	0.9043919555236205	0.8888517768140831	0.17380591419576313	-0.42395049598393253	-0.16940305251258791	0.9843583890333226	0.04838561500218071
16														9.308458985449379	-4.299830052004475	0.7517799254516622	0.4260437924534321	0.025440288402807043	0.9043447786314018	0.8894497755207955	0.1710006328216519	-0.4238370918178369	-0.1654260672865791	0.9849424223276084	0.05022589931021239
17														9.263377430654556	-4.451170545378645	0.6054164530968846	0.42651211912673725	0.021873853948755462	0.904217311685332	0.8900019230146008	0.1680169123992345	-0.4238713179470168	-0.16119550014914524	0.985541400277663	0.052193477278396
18														9.183193734989894	-4.613612983683796	0.5270407310282204	0.4272237126450295	0.018405551912507867	0.9039585914258426	0.890356971110541	0.16537976913745062	-0.42416269986280825	-0.15730341175149531	0.9860581968721924	0.05426664751484116
19														9.100833951513582	-4.650656206767367	0.44864704401752525	0.42804590149765265	0.015166829306076601	0.9036297214566721	0.8905422200079149	0.16328034610244055	-0.4245869557111266	-0.1539846115507547	0.9864631244326714	0.0563847811035533
20														9.055861102115403	-4.594716014193743	0.519260079874256	0.42895941597353376	0.012039995151158278	0.9032435208538192	0.8905718220756228	0.16178228717688897	-0.42509801373414907	-0.15124698070556314	0.9867530238476969	0.05867555500271211
21														8.96889618837056	-4.445861174925707	0.5751622345869133	0.4298919109788821	0.00904689664366748	0.902835033954733	0.8904786350643537	0.16091839725107723	-0.4256208053186195	-0.14913331408122954	0.9869262500750822	0.061121449131103206
22														8.915559152820967	-4.193087222716042	0.6310195384351056	0.4307968139216105	0.0062086655466840335	0.9024275913263726	0.890287649390773	0.16068820425618263	-0.4261070315720867	-0.1476550251675885	0.9869856906181835	0.06369646817293767
23														8.769584562005239	-3.9449741798365863	0.6004043429261042	0.4316119033448817	0.0035651877994911096	0.9020523567548411	0.8901092042674857	0.16054946947221765	-0.42653191244090144	-0.14634469368348135	0.9870213560446115	0.0661216556246456
24														8.659395353718654	-3.822695366576971	0.5574466622693052	0.43234345053849377	0.001141992117814239	0.9017082879903408	0.8899981072006313	0.16010261633362016	-0.4269315184223609	-0.14485340850584782	0.9870997153768873	0.06820294676262523
25														8.612185542808168	-3.743296547298629	0.6182034698095914	0.43315499736276736	-0.0010413658609798593	0.9013188469220006	0.889889853500841	0.15924258515001477	-0.42747847631312624	-0.14308318173675355	0.9872389349250179	0.06990342246416305
26														8.543156676726401	-3.7159429094710545	0.5845461864124992	0.4339551469608129	-0.0029522132444794735	0.9009296392411441	0.8898080013551597	0.15807948153720275	-0.4280801306312466	-0.1411547064413911	0.9874219776538743	0.07122630760861048
27														8.465028138185001	-3.731625465497035	0.5801635993023551	0.4347531221951044	-0.00463565119859688	0.9005377468377288	0.8897443621070231	0.15665381152264168	-0.4287359950298027	-0.13908519993290047	0.9876426955500626	0.0722302781818781
28														8.4253427638393	-3.863626540723851	0.504030821115387	0.435482137179192	-0.0060268523794158035	0.9001771965831176	0.8897095005532053	0.15508046587904056	-0.42937984783651234	-0.13701209006219178	0.9878834577788704	0.07289692053614727
29														8.406546472201292	-3.990584604860222	0.4367727931854368	0.4361772767339823	-0.007124111480519224	0.8998325568107326	0.8896668275632613	0.1535038283240445	-0.4300343133092807	-0.13506412993259675	0.9881223718373526	0.07329296746670302
30														8.395511507794001	-4.165440931154839	0.46991141857974045	0.4367355274819979	-0.007873977515852448	0.8995554899577347	0.8896519158093139	0.1520061640154958	-0.4305967891172794	-0.13334746991164748	0.9883481808448747	0.07339159140384025
31														8.437536003244341	-4.25332693439389	0.4272910246079044	0.43716821730329264	-0.00834005624664752	0.8993410883761861	0.8896686595001324	0.15055934115039116	-0.4310702507661563	-0.13180905159774808	0.9885657935889558	0.07323964543018537
32														8.45781275066631	-4.32121462711889	0.36453371425342357	0.4374622898141668	-0.008524873238526687	0.8991963475942355	0.889681070422613	0.1494924689224654	-0.4314158025236665	-0.1307453170183142	0.9887261138817629	0.07298173611286438
33														8.443582859750412	-4.319636302342068	0.3816144726489944	0.4377045405440132	-0.008415659876011783	0.8990794802774701	0.8896647635453508	0.1486819719927885	-0.43172940565837176	-0.13004362226941202	0.9888492543725698	0.07256589029195143
34														8.50440277940693	-4.308077971110533	0.41380213038996794	0.43785811726843765	-0.00805724965966037	0.8990079809824054	0.8896592348415594	0.14798991482000534	-0.43197850753561656	-0.12956355584526924	0.9889560484872366	0.07196679204494484
35														8.616014511960165	-4.301758502453471	0.5078525341963435	0.43796190941080787	-0.0075712429405459525	0.8989616466710773	0.8896551143296063	0.14740654442601053	-0.43218640446867146	-0.12924064164346633	0.9890470094695794	0.07129424666035324
36														8.610288601428415	-4.2903039307101105	0.5536740662412495	0.43800005602388026	-0.006867693504782002	0.8989487113895891	0.8896520761456774	0.14695106176313394	-0.4323477406629693	-0.1291322358389428	0.9891199220684076	0.07047443106988288
37														8.65362353009973	-4.247646724833511	0.5046097347988082	0.4378915817215819	-0.0058845508736545815	0.8990085287239421	0.8897006658532823	0.14650564478991757	-0.432398914458532	-0.12916535076249203	0.9891923312004123	0.06938907735873522
38														8.75086443648292	-4.302115466056811	0.4491622855939851	0.4376470154024389	-0.004670199968155597	0.8991347391473625	0.8897686611425564	0.14630112288158265	-0.43232824461532915	-0.1295253626048627	0.9892290789679843	0.06818364735208388
39														8.830405184056625	-4.3384102082708775	0.4658936470659611	0.4372978903374104	-0.003391067978725293	0.8993103222828114	0.8898655430650231	0.14622696682859238	-0.43215389554845113	-0.13003795742798357	0.989245255146606	0.0669623386530407
40														8.815798406335109	-4.342691618045065	0.5333479827435337	0.436867901147053	-0.0020692289059277558	0.8995232933276954	0.889977746306029	0.14630783007646364	-0.4318953923560169	-0.13071361071980936	0.9892369469192157	0.06575876232517318
41														8.79567891998768	-4.378671498437917	0.5742554877762366	0.4363790479793948	-0.0007492399417836637	0.8997626159849643	0.8901246585916859	0.14633639221709666	-0.431582845442122	-0.13134465596906275	0.9892346025854502	0.06452505246781942
42														8.749257688226606	-4.451045965408088	0.576478763117658	0.43583021747737005	0.0006609402943231202	0.9000286577057176	0.8902639126862502	0.14659002016995734	-0.4312093827308731	-0.13222022274295775	0.9891971133927246	0.06329994907820849
43														8.7509077060272	-4.480893591757448	0.6295018534806563	0.4351385224070878	0.0021800842294019684	0.900360879620016	0.8904373656041868	0.14703751152891453	-0.43069858153848156	-0.13332578240254955	0.9891285141153989	0.06204045704708305
44														8.797246234497798	-4.4206062493117875	0.7221482826203568	0.43437328031427447	0.0036837629374208425	0.9007254205581401	0.890582140252979	0.14794869133001254	-0.4300867775183991	-0.13484548495014897	0.9889881771913952	0.06098426489022868
45														8.818870204363291	-4.259222274570928	0.7213348543920582	0.4336132322576331	0.005108570425896908	0.9010846060827429	0.8907196616556097	0.14891019936244193	-0.42946971588920474	-0.13637466462361864	0.9888375271165843	0.06001912874037825
46														8.814071422681442	-4.19297176754114	0.7530389673611757	0.43291440966945566	0.006537323280058127	0.9014113252588294	0.8908263941149461	0.14985976742981633	-0.428917691001484	-0.13788926516850347	0.9886856494913911	0.059052832625342985
47														8.87223501023035	-4.078980925730451	0.7558423164460802	0.4322532878500313	0.007818808761655527	0.9017183381590879	0.8909558982650889	0.1505697799042629	-0.4283997300725466	-0.13912110727523358	0.9885684637945573	0.05811806863086945
48														8.819247550211209	-4.055468724085434	0.7373282199648034	0.4316334474560444	0.009031668538609927	0.9020038780407867	0.8910953197034132	0.15109020968345918	-0.42792625502588655	-0.14014884316283827	0.9884787187902514	0.05716751051866023
49														8.857484157557758	-4.073907016223423	0.725738976685168	0.43106943632604505	0.010165860822445139	0.902261490001255	0.8912391072321988	0.15142180340599445	-0.42750940480091204	-0.14096806306926213	0.9884169629903239	0.05621309871805244
50														8.899505061122857	-4.1395521063036185	0.7267890223449694	0.4304857694578479	0.01115426912911427	0.9025284397593684	0.8914016617662688	0.15174963779496917	-0.42705400692351575	-0.14172183915903436	0.9883560237633455	0.055383125553636364
51														8.922985274387994	-4.130301354052532	0.7313915564077357	0.4299734237864577	0.011950860774842365	0.9027624448126383	0.8915596239976398	0.1519598099895546	-0.42664933259660176	-0.1422824363529756	0.9883144201491137	0.054683774840281765
52														8.89401085097352	-4.150165180687447	0.7399580021461605	0.4294647788887427	0.012629475941351886	0.9029952934713947	0.8917242129539561	0.15216383019888804	-0.4262324445778988	-0.14278631491039656	0.9882745899377615	0.05408699619740673
53														8.892212219846524	-4.201975300843367	0.7144164994268797	0.4289657314665628	0.013186573831331039	0.9032245100183827	0.8919115285002641	0.15223356061486384	-0.4258154158210372	-0.1431161296139572	0.9882565746268077	0.05354172346133032
54														8.91950015532627	-4.309371633146624	0.6611027833024592	0.42850653118878024	0.01362909472380669	0.9034358862174832	0.8920675687775997	0.15244097700492926	-0.42541415263835036	-0.14351865893946325	0.9882185974301398	0.05316388087250497
55														8.91961856692541	-4.281777854233008	0.6525629417682344	0.42810993119956003	0.013908008507152736	0.9036196401737145	0.8921947505596177	0.15271864266111934	-0.42504769527384473	-0.14391113189107296	0.9881718390457759	0.05297171542172184
56														8.896034723647556	-4.270258289604543	0.6925304322136768	0.4278673652227486	0.01413565423155877	0.9037309893197137	0.8922398091583363	0.1530846692766043	-0.4248213824486335	-0.14435248778749343	0.9881119710396784	0.05288754066548233
57														8.953554046816917	-4.252434950053892	0.6366278399156681	0.4277185103759078	0.014254770777219261	0.9037995781100492	0.8922602320524988	0.1533673872441891	-0.42467649196477963	-0.1446670459345702	0.988066417828265	0.052879105330792736
58														8.945843708405954	-4.19052542813826	0.6781046411813333	0.42761516864643795	0.014268006945940326	0.9038482679749236	0.8922588298335441	0.15370196103048317	-0.42455846212207193	-0.14498085434826685	0.988014236310983	0.052994534805696714
59														8.908831827534573	-4.142771850594978	0.6764933873291782	0.42755621735293564	0.01415067108649265	0.9038780003466458	0.8922598617657096	0.15393861363241607	-0.4244705435183533	-0.1451482693134361	0.987979079606816	0.053191335521704894
60														8.909327680593393	-4.211065030266221	0.6063436015841458	0.42750303071171986	0.013920845573866913	0.9039067257138889	0.8922670209332544	0.1541677369681701	-0.4243723273647906	-0.14526087596868648	0.9879466174528977	0.05348606338279384
61														8.863526784454148	-4.206521386712931	0.6392911737127688	0.4275116203526464	0.013633579528430806	0.9039070416656219	0.8922325363513247	0.1545095688754275	-0.42432050881616706	-0.14544729471370782	0.9878972206839995	0.053890312907723545
62														8.815548164576306	-4.178600127257575	0.6666155253998183	0.42750409477618423	0.01337643008299183	0.9039144428914887	0.8921940958843461	0.15491509685778307	-0.424253471446797	-0.1457049903699586	0.9878372253988907	0.054292466305296355
63														8.807382178218413	-4.186892126112956	0.6387910802982383	0.427516487929407	0.013039734249073787	0.9039135013258843	0.8921612534203577	0.15525623626668497	-0.42419783002240885	-0.14586963509902384	0.9877881688049405	0.05474105520594938
64														8.86402775089075	-4.170363148977574	0.5879407835847409	0.42752118423451496	0.012706993709394654	0.9039160189650293	0.8921162340491156	0.15570204153245532	-0.4241291067689757	-0.14613097541842918	0.9877223327299505	0.05522980580957598
65														8.851386129706288	-4.165421278246689	0.613656606544375	0.4275692286769929	0.012309685227859524	0.9038987920880039	0.8920662979358427	0.1560735077715229	-0.42409760699505594	-0.14629516319961483	0.9876687358732601	0.0557511740048105
66														8.841027668237587	-4.150595800189858	0.5803670519077034	0.4276250667942808	0.011968173587379227	0.9038769634580638	0.8920105624435957	0.1564330253134175	-0.4240823800635348	-0.14647169944479954	0.9876160546549831	0.0562189456453808
67														8.836654910640984	-4.2067634752851255	0.564826870155106	0.4277229430520905	0.011679074594388716	0.9038344335128405	0.8919480868242806	0.1566802328673475	-0.42412252361686664	-0.14656634810680075	0.9875803277937714	0.05659860207976568
68														8.827563924812297	-4.249993711646799	0.6021453529304748	0.42788346299723534	0.011375497781755173	0.9037623250300442	0.8918299636786147	0.15711076516907543	-0.4242116492424375	-0.14681640909140498	0.9875154710272671	0.0570800885011605
69														8.866579074805243	-4.217094684713518	0.6245673804124643	0.42799129852214046	0.011145009990779553	0.9037141346364116	0.8917167190561648	0.15763963321640817	-0.42425350793494443	-0.14718947430112583	0.9874338128663117	0.05753019957601835
70														8.83895051639137	-4.1849477980429155	0.663824168710571	0.4280444236566052	0.010997918515522287	0.9036907751907233	0.8916075660825045	0.15827263899515237	-0.42424723905989364	-0.14769536039062675	0.9873341974903107	0.05794189317969141
71														8.880406769496702	-4.071528651060198	0.699104181303423	0.4280896262909329	0.01089402616988916	0.9036706214411858	0.8915004553042623	0.15889455354708823	-0.42423986027407257	-0.14821002008765283	0.9872354537023481	0.05830908075708488
72														8.849231734235303	-4.062107245948869	0.6522979220273756	0.42818278490964257	0.010800756702793957	0.9036276038068283	0.8913937702784105	0.15935709506242546	-0.4242905402694075	-0.14858212885762329	0.987161921828386	0.05860623751977667
73														8.817654971372786	-4.0537077141067135	0.605038492933035	0.4284117365941489	0.010702464413321955	0.90352024947085	0.8912404089467669	0.1597074652399411	-0.4244809289085113	-0.14884192087172587	0.9871063685348781	0.058882083770025545
74														8.755994832805788	-4.023734052165865	0.650224677301166	0.4286135376242342	0.010753508565025438	0.9034239300675959	0.8911096305818643	0.15992168876879048	-0.4246747929246459	-0.14904382459361326	0.9870711299166233	0.05896204572119439
75														8.797279828852318	-3.9820825617491304	0.6098377159133661	0.4288112431541015	0.010772983946013726	0.9033298736129192	0.8909903142899978	0.16008698500297325	-0.42486282147779014	-0.14918839628484748	0.9870441226457694	0.05904847470001716
76														8.78184902924446	-3.9557000953621917	0.6254921442238723	0.42899785670890866	0.01073061109940382	0.9032417688108743	0.8908727231393907	0.16030396547619247	-0.4250275635988979	-0.1493540428156203	0.9870093680599197	0.059210448880149744
77														8.777568504837172	-3.979945406528192	0.5419143216444425	0.42917231333601147	0.010721457164748927	0.9031589980850994	0.8907836092553887	0.16035454184737524	-0.42519522856078834	-0.14938435978294073	0.9870012519065934	0.05926923136888222
78														8.747904913341053	-4.098717459372957	0.4907690243292512	0.42928998103033744	0.010820541756326851	0.9031018924036598	0.8907246305572843	0.1603314846898169	-0.4253274591838008	-0.14939794076747276	0.9870039163515301	0.05919057696272341
79														8.809555515726313	-4.188411695553553	0.5190558673670592	0.42940931714133024	0.010927541824406917	0.903043867805929	0.8906290559765587	0.1605409271283588	-0.42544858134335195	-0.14962460694190705	0.9869686922828114	0.0592053836322087
80														8.854737353840708	-4.226214520569223	0.5563697945986019	0.4294563577619445	0.011003723227427986	0.9030205727739427	0.8905285790956983	0.16102079754272497	-0.4254775582477904	-0.15008693011598906	0.9868896700411043	0.059352275226138354
81														8.800530393561868	-4.231405668450231	0.5547519194252066	0.429424338230185	0.011106573212671889	0.9030345407386362	0.8904600213180192	0.16152140152474376	-0.42543129560928616	-0.15058448847700423	0.9868067089764613	0.05947126154004906
82														8.877648731294283	-4.24405188611273	0.5778651406842846	0.4294211862435309	0.011219086831713465	0.9030346487792492	0.89035864702547	0.16214105948479546	-0.4254077532158099	-0.15119168122675986	0.9867038101273408	0.05963779513039809
83														8.84193160773822	-4.150591453006134	0.654342762269643	0.4294122589604003	0.01140474090374316	0.9030365683290156	0.8902354084296291	0.16288321727394633	-0.4253821518453966	-0.15194087479232748	0.9865794389786395	0.059791146099865064
84														8.867522923751887	-4.055641537065375	0.6220711742378146	0.4294039544231759	0.011654473655335729	0.9030373287796887	0.8901017739585697	0.16365627753663797	-0.4253650841555493	-0.15274513387190353	0.9864485775075492	0.059900985065241386
85														8.882348517025727	-3.9800630041011393	0.6160190564027658	0.4294348723427561	0.011887201918755197	0.9030195927257076	0.8899699972269401	0.16430190188649663	-0.4253919240798532	-0.1534245562217484	0.9863384710468421	0.0599777132036291
86														8.863100737971301	-3.9384703303639705	0.6832740206846973	0.42948939584056783	0.012182395746733743	0.9029897275685779	0.8898281428709668	0.16490798500109677	-0.42545414869017895	-0.15409326726145695	0.9862337175927157	0.059985992264371235
87														8.842056319968112	-3.944005927181709	0.6713516931250774	0.4295854072515374	0.012415985609306845	0.9029408735780433	0.8897223121861133	0.16518523602783458	-0.42556790879555845	-0.1544363463525567	0.986184405220331	0.05991438746657668
88														8.808165520787574	-3.9455882666328064	0.679573767053145	0.42973494270389434	0.012570955386199956	0.9028675706325702	0.8896226083037779	0.16529860456497875	-0.4257322939637703	-0.15459461120641937	0.9861634460927607	0.05985118024222319
89														8.840515591283745	-3.979606442749729	0.7355158702106912	0.4298801528717684	0.012703574326160816	0.9027965847112431	0.8895688498160599	0.1651420648619141	-0.42590534141998687	-0.15450021231013644	0.9861879727579743	0.05969059208652336
90														8.789754749572376	-4.0332820279815165	0.743918738313042	0.42998144118737225	0.012783930911581143	0.9027472134240453	0.8895470173543041	0.16493835865574002	-0.4260298601741578	-0.1543439799619421	0.9862210243928077	0.059548525549414255
91														8.783229772259888	-4.067030166903549	0.7172957188181136	0.4300558011837266	0.012749782966041512	0.9027122747047045	0.8895607437204587	0.1646422108825255	-0.4261157420551583	-0.1540574279277933	0.9862709492984334	0.05946363149219826
92														8.754663718459497	-4.048599911084142	0.6072533804184749	0.43006930333439275	0.012733043369264174	0.9027060783754735	0.889608915127518	0.1643005473437823	-0.42614705005217873	-0.1537412516376479	0.9863281399965684	0.05933319303559714
93														8.779548202088758	-4.090495706668435	0.6307803153330539	0.4300289552250728	0.012695156320666923	0.9027258336139643	0.8896877150029685	0.16393464459400536	-0.42612345872368323	-0.15339774261973282	0.9863895099339974	0.059201919321414095
94														8.783902727327687	-4.13675628790102	0.6425533120042357	0.4299281173041534	0.012729094398722385	0.9027733846913606	0.8897561910787025	0.16378429463128968	-0.42603829084866424	-0.15328318364525945	0.9864140484542585	0.05908968288673061
95														8.820397644097	-4.125536539313397	0.5737739535495695	0.4298184893606662	0.012792587060843519	0.9028246872566161	0.889846456016762	0.16350616805750923	-0.4259565913582739	-0.1530664918201392	0.9864593669905728	0.058894535896252334
96														8.851845652386073	-4.1338838229188735	0.622563401612985	0.42972664843093994	0.012891526871712244	0.9028669980474571	0.8899109860742381	0.16332278961235464	-0.4258921263155909	-0.1529491565608912	0.9864884565610254	0.058711843602100744
97														8.881395856215242	-4.1186081512857085	0.6648504196785866	0.42958289778958036	0.01293871901157323	0.9029347282484188	0.8900351675438842	0.1629364754664169	-0.4257805837490843	-0.15263005753073733	0.9865517191272442	0.05847880834321548
98														8.861106503756774	-4.225616228617631	0.6443243882249896	0.429433683984447	0.012910972770949936	0.9030061006669082	0.89017264831733	0.1625150779292766	-0.4256542089928783	-0.15224771672264203	0.9866215871486643	0.05829645379431929
99														8.822192732385963	-4.257723394843898	0.6257918031089781	0.42931132059434435	0.012874216342459666	0.9030648064026785	0.8902817929209919	0.16219849511866063	-0.42554668060581274	-0.1519543326230739	0.9866741623934463	0.058171969729989795
100														8.83104171844143	-4.247070497030769	0.6573424954346542	0.4291657571135786	0.012875973973073052	0.9031339669259342	0.8903654655374812	0.1620996373250535	-0.42540926806701224	-0.1518752471581657	0.9866903855178337	0.05810329101965937
101														8.811164263837401	-4.2501313767265145	0.6453139878068571	0.4289500555687189	0.012847108377417649	0.9032368469199722	0.8904769871676532	0.16204858024863705	-0.42519524099432426	-0.15183077801425326	0.9866991483961771	0.0580706931407456
102														8.793759912451195	-4.172560990925419	0.6472509616840388	0.4286561054927608	0.012791924795907461	0.9033771692287756	0.8906039727565889	0.1621481554813126	-0.42489120888080306	-0.15191611808482086	0.9866835066697046	0.05811325779901541
103														8.762386021783062	-4.136368954561669	0.5912395638367153	0.42828934777482663	0.012767436291274414	0.9035514524105215	0.8907581505147145	0.16227801383541116	-0.4245182723007812	-0.15204654509136245	0.9866624746062775	0.05812924676613243
104														8.780933554005864	-4.080494422856995	0.5909162953715816	0.4278952112138706	0.012779854686757852	0.9037379949600559	0.8909101010623977	0.1624869576613901	-0.42411929974351964	-0.15226582034463587	0.9866279257674244	0.058141689437477564
105														8.743015053935464	-4.0393686610325545	0.6463496231731902	0.4274105626728338	0.012769432536384018	0.9039674510226519	0.8911041174520273	0.16270723121205738	-0.4236269688904963	-0.15249151706155684	0.9865917587857729	0.05816389533258663
106														8.807569632715506	-4.019544191217935	0.6823403586015587	0.42694193887603915	0.012732483166921105	0.9041893964768515	0.891296860814556	0.16289728158158753	-0.4231481791942953	-0.15267772178967998	0.9865608747187036	0.05819925895902814
107														8.857754103025032	-4.042168607203117	0.6604366342112096	0.42652893522579394	0.01260653960065733	0.9043860583702341	0.8914881294409625	0.16296840943825294	-0.42271765114674437	-0.1527153642598063	0.9865507451137341	0.05827216174582575
108														8.892574257390441	-4.070680849118723	0.7183507961323489	0.42619362794389215	0.01241245955803566	0.9045468049513763	0.8916558759865894	0.16298734757768749	-0.4223563937578993	-0.1526721661554944	0.9865500774807683	0.05839652647271834
109														8.933394605478265	-4.034029183834325	0.7366025687436634	0.4259660045583573	0.012253913519980952	0.9046561803050004	0.8918105577221845	0.16274809240747362	-0.4221220055303606	-0.15240371417992032	0.9865915568365525	0.05839698522177224
110														8.945025524675357	-4.012549355076203	0.7098617081578906	0.4257486114025364	0.012091331332257371	0.9047606974197244	0.8919909040471399	0.16231213846215167	-0.4219087541222744	-0.15195508213277553	0.986665378643873	0.05831880999784353
111														8.950559028866481	-4.024071670652754	0.6573303307927929	0.425562493773336	0.011802488699782898	0.904852068105009	0.892170550242338	0.16184262003734295	-0.42170923112938	-0.1514208478833215	0.9867459995358181	0.05834431614438784
112														8.897236554377548	-4.027681075220066	0.6550188316295182	0.42538092443107184	0.011516987796314881	0.904941118594059	0.8923251455527748	0.16151886859152295	-0.4215062154976293	-0.1510195475572167	0.9868024189679585	0.05843014782284664
113														8.847901795210065	-4.078870467522181	0.6647563785709798	0.42529004495645784	0.011340053070978684	0.9049860666647204	0.8924551538950243	0.1610273235746842	-0.42141903059613095	-0.1505063983594811	0.986884797865851	0.05836282887365751
114														8.77212139441125	-4.13501166433638	0.5704271878416303	0.4251890648644037	0.011138637102786841	0.9050360157934192	0.8926141679874077	0.16038507139131358	-0.42132716027209927	-0.14984727634455614	0.9869916715141499	0.058251473233065496
115														8.758302038871523	-4.209362669287585	0.5764371363428723	0.4250607930807854	0.011010626360331455	0.9050978335476709	0.8927603682234594	0.15987394908393432	-0.4212116395991705	-0.14933936893882865	0.9870760287391551	0.05812629674675378
116														8.788655004648753	-4.263453191058381	0.5475594019153522	0.42490343342331527	0.010975497682202018	0.9051721442442358	0.8928505122532677	0.15977836460809156	-0.42105680967328163	-0.14924823293478795	0.9870918967622988	0.05809089698095174
117														8.841136969077752	-4.2659280368809025	0.6100079696705735	0.424741894831835	0.01096446125510997	0.9052480894009378	0.8929121755381745	0.15987249874590542	-0.4208902837087421	-0.1493391092458614	0.9870767775275266	0.058114247095931756
118														8.828398925543432	-4.190082654247603	0.7033266348559523	0.42459777906304885	0.011035694815997699	0.9053148289156955	0.8929426498612594	0.16008056619971123	-0.4207465227235191	-0.14956654062148822	0.9870422613875803	0.05811561030749557
119														8.835472292015858	-4.122199694038604	0.6645700098094696	0.42445203843620716	0.011063345128966173	0.9053828303330622	0.8929867102572784	0.1602237677071958	-0.42059847784507587	-0.14971707441448584	0.9870187164670529	0.05812788463809218
120														8.811094692699013	-4.0788414217695275	0.6404977508646771	0.42435466302087615	0.011141660604848891	0.9054275141453373	0.8930017451521509	0.1603863268077679	-0.42050458895037607	-0.1499033125973256	0.986991433383329	0.058111163301643426
121														8.775825021775173	-4.055561564431836	0.6420647261701109	0.4243451986312473	0.011324826348703187	0.9054296773945391	0.8930044332451654	0.16031249997105437	-0.42052703189867774	-0.1499140907422919	0.9870013427859166	0.05791471950816526
122														8.786937570900312	-4.139782191915241	0.6060436807867338	0.42433991883792105	0.011556675568319852	0.9054292222644654	0.8930232006040769	0.1600973610612374	-0.4205691360098575	-0.149817210171184	0.9870335750272308	0.057615321794526886
123														8.793647085346958	-4.177277600670444	0.557319509614473	0.4243840541652727	0.011789350987233327	0.9054055366373386	0.8929996310158591	0.16000947423271666	-0.4206526205330347	-0.14983268527189458	0.9870450746339143	0.05737758329821824
124														8.780593679539777	-4.2067303754133984	0.6411657196755591	0.42435852363767584	0.01207986268650646	0.9054136735954053	0.8929597177350295	0.16021521741967193	-0.42065903842630475	-0.15014255199185939	0.9870081869086205	0.05720186235368051
125														8.78715757188401	-4.140140949714671	0.6003764247751073	0.4242785898639977	0.012393343257303402	0.9054468969663125	0.892949729940163	0.16037906090032755	-0.4206178035039875	-0.15042758384953075	0.9869776906635913	0.056978769287838335
126														8.762762867069679	-4.097115234691331	0.5739232433759767	0.4241009949419731	0.012813998935934212	0.9055242390574088	0.8929589028568501	0.16066396864752291	-0.4204895801171762	-0.15087327098568437	0.9869259803094144	0.05669537452369973
127														8.811333788314876	-4.052260919199769	0.6209053377144793	0.42381355561261425	0.013345141885761469	0.9056511344149265	0.8929839623630964	0.16112473461608678	-0.42025999435730305	-0.15153122794097046	0.9868438210187795	0.05636984899533759
128														8.820905316830114	-4.040180593348212	0.650381477227899	0.4234736126805493	0.013904210173208253	0.9058017290239315	0.893007848020932	0.16173439032335568	-0.4199749639678022	-0.15233871056402082	0.9867363679961291	0.056073677759710075
129														8.858444589499788	-4.026162762104908	0.5797617573199861	0.4230422187134573	0.014550959230955174	0.9059931295387704	0.893061924549312	0.1623765029761173	-0.41961204725499324	-0.15321775388731895	0.9866215793639964	0.05569720843111356
130														8.881453940109074	-4.0166504589305445	0.588202087441606	0.4224763964420596	0.015184072019153061	0.9062467315285876	0.8931650676760274	0.16310232812233	-0.41911071621273593	-0.15417475906453787	0.9864923083927175	0.05534500112384784
131														8.875895350934377	-4.053895679116862	0.6179978348867514	0.42185292931035046	0.015779618124506622	0.9065269492321346	0.8933083828767887	0.16375085126432154	-0.4185520180243629	-0.15504915064047653	0.986375517925123	0.05498271113370125
132														8.903975687315848	-4.089920593600949	0.6394061468163648	0.421212709273555	0.016261816387386274	0.9068160821656259	0.8934795460349931	0.16431643638107168	-0.41796460322870443	-0.1558016507086326	0.9862736243369833	0.054682571022740614
133														8.85099535218597	-4.170295910161787	0.6206274015327381	0.4206779076643118	0.016650806113759686	0.9070572466272122	0.8936432413243989	0.16465946224955072	-0.41747936323477297	-0.15630692639291288	0.9862099229613598	0.054388717710107365
134														8.86729234298871	-4.1237138875396635	0.6761243287568355	0.4203000792899495	0.016946796692579258	0.9072269007424343	0.8937814549626185	0.16474774466443576	-0.41714852438056976	-0.1565329170295089	0.9861901371996389	0.05409675754045351
135														8.937780728062636	-4.142762449437671	0.6624051514435857	0.4200610163341531	0.017216505016074413	0.9073325379988033	0.8938747178214786	0.16472849039812953	-0.4169562486529314	-0.1566420486200631	0.9861886819499526	0.0538066185327135
136														8.937146067518496	-4.221235940569464	0.6473213392448605	0.41998280598047283	0.017421693668514426	0.9073648258944632	0.8938806507495486	0.16482300395021116	-0.41690617599694163	-0.15681780796941613	0.9861692866635776	0.05364991281556926
137														8.904032917680485	-4.221654083116468	0.6552091654728486	0.4199745706746378	0.01753421151659379	0.9073664702936436	0.8938687666556293	0.16486980660923	-0.41691315026775033	-0.15690757784185683	0.9861594689983597	0.05356784222530529
138														8.882712123931212	-4.19445445660455	0.5780199335928559	0.4201577403713306	0.017658694546431986	0.907279253434671	0.8937520957148395	0.16501664768356664	-0.41710513949436123	-0.1570817131667162	0.9861326870630513	0.053550526555917494
139														8.838071898902971	-4.1829943086852746	0.5479798468582034	0.42032586619234424	0.017861040075151158	0.9071974148205508	0.8936445586191375	0.165113232766118	-0.41729728397861593	-0.1572436614304798	0.9861128756957576	0.053439941307799485
140														8.84749451129408	-4.1657874927298595	0.5208966492388736	0.420563593456984	0.018090272127790352	0.9070826896776787	0.8934586447545291	0.16548698991161706	-0.4175472503602356	-0.15766392730091966	0.9860460426492952	0.0534348931290731
141														8.827192269768233	-4.093116036799948	0.5225944370837234	0.4207683682326473	0.01835355649990672	0.9069824294100967	0.8932697783038495	0.1659562338550315	-0.41776504355157174	-0.15818686248809632	0.985962309324479	0.053434456371458314
142														8.848738754708975	-4.009718706722781	0.5475257348678647	0.4209121614680509	0.018708122059223953	0.9069084620276242	0.8930749160620284	0.1665926601430973	-0.41792831907786243	-0.15890294720078196	0.985848310723036	0.05341312212782387
143														8.843844918426305	-3.9637087710233017	0.53471987477218	0.4209566624211977	0.019048473536424526	0.9068807220462557	0.8929319250573011	0.16719401638403975	-0.4179937058124629	-0.1595871723437322	0.9857399842460006	0.05337244496953776
144														8.80599958155557	-3.9176528073546484	0.5300422400431724	0.42089985456002593	0.019478084568475995	0.9068979637494468	0.8928344392990992	0.16775818873786102	-0.41797590135419993	-0.16028092972282354	0.9856357310553103	0.05321869252670337
145														8.772924697714538	-3.9514704571971695	0.602657771272795	0.42091938648319505	0.019923552680330303	0.9068792213581724	0.8927295576878265	0.1681414602036614	-0.41804591397486307	-0.1608129562973975	0.9855615157914674	0.0529876558994323
146														8.810797427739843	-3.9978909954051782	0.6044503327440233	0.4209001848383857	0.020457744902809993	0.9068762402205192	0.8926188148746053	0.1686266064250473	-0.4180869753262209	-0.16147657952430328	0.9854676799769053	0.05271400180281889
147														8.883925346854252	-3.9629002537121636	0.6100455882903894	0.42076789368247824	0.020993801811344803	0.9069253772673456	0.8925473987257337	0.16918562135749926	-0.41801359613510575	-0.16221442806956815	0.9853605866947304	0.0524499143438769
148														8.878304535527972	-3.9238999073449734	0.6541517503510829	0.4205413863000023	0.021503793111699254	0.9070184834338731	0.8924952405701914	0.1698988441085495	-0.417835647510043	-0.16308644323925325	0.9852268620233565	0.05225746242577968
149														8.887537362203558	-3.8789457070475124	0.6187040839237132	0.4202140056677688	0.02198733720829793	0.90715861151352	0.8925196893653429	0.17043750956266068	-0.4175639584893194	-0.1637949740860219	0.9851231457724292	0.05199609723424316
150														8.8452430282065	-3.862555832534683	0.586132288899177	0.4197807986815759	0.022567710096717652	0.9073449065924426	0.8925894310324893	0.17094793944884112	-0.4172060757075477	-0.1645241279185365	0.985021573600896	0.05161696303986875
151														8.872324995398827	-3.8671706309644835	0.5412675843819439	0.4192354874659422	0.023196078848986557	0.9075811522807341	0.8927089421590779	0.17144205985044098	-0.41674736316317307	-0.16526448692448603	0.9849210943219102	0.0511672485220475
152														8.878839605376834	-3.8763331395362925	0.48428276243248913	0.4186207151758331	0.023937521182027743	0.9078456322003945	0.8928238133027517	0.17209548120374932	-0.41623164674107055	-0.16619968479274355	0.9847893888689654	0.050670744477289226
153														8.844508145011353	-3.928006220831124	0.46944639099455815	0.41789482583861937	0.024865376526053695	0.9081550680294238	0.8929077579447432	0.17313707286562385	-0.41561916438202806	-0.1675698372004989	0.9845838039749287	0.05015059930705777
154														8.821337775148452	-3.9926184709289627	0.4936605383155413	0.41709678426596425	0.02587345643315281	0.9084937186393718	0.8929400218789507	0.17461961725372818	-0.4149290380257582	-0.16937647381443277	0.9842959684578434	0.04972983607277995
155														8.737253311391632	-3.9925402557038354	0.49669668819042195	0.41623849371527877	0.027049878373026637	0.9088530246578048	0.8929004398556222	0.1765710598764843	-0.4141877174901875	-0.17168086921748832	0.9839161371245515	0.04934282369938152
156														8.862629317539353	-3.9377710262530976	0.6145086363039808	0.4152362380752691	0.028337957370435707	0.9092721411993059	0.8928331784471577	0.17896000744542678	-0.41330646159850837	-0.17443561004865105	0.9834481561867939	0.04900961170781497
157														8.961793381058394	-3.9196196787422206	0.6958581853342335	0.4141078675414703	0.029498772519096994	0.909749688903559	0.892819092051079	0.18137611065244374	-0.4122823975792311	-0.17716868490041587	0.9829712757270472	0.04877220710812778
158														9.077618650162593	-3.84723815388519	0.7766980248559562	0.41288152458092253	0.030190659454418733	0.9102842252513448	0.8929300045138198	0.1835095368481902	-0.4110964083091858	-0.17945710824228517	0.98255420917498	0.048809551666110396
159														9.11754647780841	-3.824989353653019	0.7082741072972296	0.41161713969919744	0.03047699784879876	0.9108471237853117	0.8932619696850883	0.18467890842257148	-0.4098496728047532	-0.18070524015691158	0.9823262459010098	0.04879306091916272
160														9.038046588538709	-3.9150876301233195	0.651543424767006	0.41050093683013145	0.030358245462845934	0.9113546827629744	0.8937271179836654	0.1849293032952673	-0.4087211657882887	-0.18094424401509773	0.9822828155450669	0.048781665025500784
161														8.998704276454175	-4.076650877550672	0.6061845364894609	0.4097007565742828	0.03018282399946587	0.9117205093656046	0.8940989009844584	0.18493539631708347	-0.40790446730506263	-0.18092110247520587	0.9822870742936916	0.04878174202194416
162														8.907439196914735	-4.191377252690255	0.576610597146304	0.4092443454932274	0.030055720680474074	0.9119296679767568	0.8943631829019665	0.1846650053517609	-0.40744733753934204	-0.1806476203864425	0.9823418394086715	0.04869237923848345
163														8.884552770761562	-4.250918316780573	0.5462620559603977	0.40915073171144006	0.029902399431580517	0.9119767131063314	0.8945128559916118	0.18414611664187963	-0.40735360338586135	-0.1801178203446941	0.982443919129204	0.0485954376493002
164														8.8725704926577	-4.318084808417977	0.49554751811136827	0.4093169859496685	0.029823100235022215	0.911904703192966	0.8945092611948947	0.18379560286553415	-0.40751976394263284	-0.17975757744708087	0.9825119638252082	0.04855362283795167
165														8.896222894756944	-4.370127331945973	0.579441353138475	0.409683476721563	0.02984862645481212	0.9117392765479035	0.8943747774959915	0.18362349263327926	-0.40789235140187724	-0.17959177676143484	0.9825433692473415	0.04853165222567457
166														8.945598576984779	-4.344707979784028	0.5751404319637662	0.4102509681909512	0.029959956461363013	0.9114804134523247	0.8940978096368384	0.1836987357602306	-0.408465275491934	-0.17967540149112127	0.9825259159375526	0.048575452752168624
167														8.965604918863749	-4.256556474560526	0.5403472112202015	0.41097404853744096	0.029975443207789276	0.9111541056447269	0.8937472449015544	0.1838349662412808	-0.40917058474180235	-0.17976705387702852	0.9824999633544849	0.0487609305572583
168														8.919905356775352	-4.16287600432154	0.4660710859823982	0.41180737728236916	0.02999740784103927	0.9107770525977448	0.8933090161313222	0.18417220821166042	-0.40997512049017115	-0.18003801185945706	0.9824361318911574	0.049046519146977496
169														8.858026051428592	-4.050190588358343	0.46501922641361765	0.4126246477626131	0.030085647439191565	0.910404170617064	0.892858467531382	0.1845806929910236	-0.4107721080264163	-0.18040137753435198	0.9823567689964366	0.04930031836195409
170														8.844731994650902	-3.963893939837561	0.44075533215008283	0.41331550251108357	0.030246305640031723	0.910085411584616	0.8924125967089489	0.18523568601193646	-0.4114456195694367	-0.18102500550808132	0.9822285383874858	0.04956859648993556
171														8.816117812544011	-3.928628320067189	0.4184192610970698	0.413884365862377	0.030450997096052146	0.9098200198229064	0.8920170402119321	0.18589134005327357	-0.41200729321790186	-0.1816736955815067	0.9820983384921563	0.04977471109613406
172														8.81387206876676	-3.8614966197080314	0.49104295687347704	0.41431481398231074	0.03068239164154568	0.9096163068887666	0.8916783874403444	0.18656127893582053	-0.4124373195694331	-0.1823537449206647	0.9819640930527891	0.04993627607684992
173														8.828383981735087	-3.8127001674147505	0.48966067430778737	0.4145963976952874	0.03098984471868088	0.9094775734136624	0.8914304440190202	0.1870680924138477	-0.4127436156704271	-0.18292509530992235	0.981858013322169	0.04993246620085613
174														8.80651663251024	-3.8204112033188715	0.47809840926810454	0.4147497437849255	0.03133880267122935	0.9093956946662287	0.8912457250386476	0.1875265658824658	-0.41293443146420306	-0.1834767223128702	0.9817594748895796	0.049846021244056724
175														8.798591938025437	-3.8635288583542993	0.5113600622193117	0.41481221787678224	0.03170006415078813	0.9093546776879643	0.8911174720818145	0.18789622631167577	-0.41304316855305645	-0.18395780725661537	0.9816771944334186	0.049693169336142345
176														8.815758303787245	-3.9151376004086833	0.5032432297376221	0.41476132576273844	0.03213043180241226	0.9093627867928868	0.890999517743826	0.18845211337686044	-0.41304438059857884	-0.1846426332995832	0.9815566393825599	0.04953444914612634
177														8.814841171369189	-3.9946793425653686	0.4903893219596676	0.414615707455617	0.03268489162511784	0.9094094308893728	0.8908868448803082	0.18914852947280475	-0.41296908288331385	-0.18551130625999052	0.9814043670463923	0.049305411386400586
178														8.76862110663403	-4.069740912793731	0.5070776313799595	0.41442212887982877	0.03343679124967358	0.9094703294146748	0.8907014583690792	0.1902475615921519	-0.41286411489427915	-0.1868293637357542	0.9811665741856308	0.04906060075994917
179														8.8555581711579	-4.141424061301488	0.48661983555244154	0.4141726469775468	0.03429700330359492	0.9095519413755355	0.8904832986542788	0.1915898796121736	-0.4127139600837212	-0.18841579900158884	0.9808756463459504	0.04881037893734157
180														8.857535444593655	-4.243416582736995	0.48074630221599934	0.4139421203654907	0.035330729606159905	0.909617315431505	0.890166799467615	0.1933010868589481	-0.4125987868919789	-0.1904074318741386	0.9805031511242817	0.04856521926697577
181														8.910033058201908	-4.212424957676756	0.47372792954738	0.4136741551166229	0.03651212696419376	0.9096925623380125	0.8897968906904219	0.1952802134136188	-0.4124647034193217	-0.1927049213336436	0.9800676011549827	0.04829400024963905
182														8.958707417997738	-4.238465820068656	0.4489133700655692	0.4134004973344968	0.03785694594623068	0.9097619910983392	0.889324657618804	0.1976809228864262	-0.4123395519204625	-0.19545250613585824	0.9795351470827349	0.04805427634266575
183														8.965653819371154	-4.203411794909602	0.4725751030059759	0.4131690946723008	0.03913865712335046	0.9098128734669853	0.888788549382008	0.20028775679976527	-0.41223746671493183	-0.19835880039740544	0.9789550449304092	0.04796672086148249
184														8.902529982380315	-4.22638346410522	0.4986165864152977	0.4128665887640215	0.04048731392815824	0.9098911788193373	0.8882316860351622	0.20307374930021876	-0.41207465860968123	-0.20145880920300735	0.9783260344874989	0.04788025102765853
185														8.931478676710263	-4.177651889239549	0.4746950968990804	0.41259231829611775	0.041869167608738156	0.9099530491661572	0.8876282843418966	0.20595239222636053	-0.4119461627112225	-0.2046548502217737	0.9776658861492464	0.04781011755593789
186														8.938477289646615	-4.14237041679497	0.4989727336984991	0.4123640381133677	0.043243009634106044	0.9099922758950334	0.8870022617147071	0.20878696889106307	-0.41186768425585096	-0.20780492723665667	0.9770046283099522	0.047739590248565875
187														8.918522278151116	-4.074107871700871	0.5570146583104657	0.4122388484394217	0.04455442786616409	0.9099857332919341	0.8863446868556819	0.21152599450362797	-0.41188572411769137	-0.21083697000299395	0.9763563164166915	0.04770865197410967
188														8.857974115189709	-4.108483490295973	0.47240814828764155	0.41231466226900165	0.0458207603979186	0.9098884971217938	0.885647301263378	0.21400223238482985	-0.41210666374035443	-0.21360121030297402	0.9757579118054164	0.04765522538231105
189														8.863451561573905	-4.07658175377115	0.49594015062352775	0.41247591543401724	0.047062471041937726	0.9097520228096756	0.8849725893992231	0.21617140646274483	-0.41242385847566226	-0.21607206019960978	0.9752205119086379	0.047516501909870085
190														8.871293234741128	-4.062464849908242	0.4671290532626742	0.41280338834083274	0.048208323356248306	0.9095434679736352	0.8842776241000243	0.2181045997985231	-0.41289643624369315	-0.21828065899282906	0.9747339847906737	0.04740477617024269
191														8.862361600726949	-4.107698861415967	0.5020019628051916	0.41313643231672503	0.049374999745635584	0.909329641930102	0.8835813943570157	0.2199953255286676	-0.4133835704181392	-0.22045908427352495	0.9742505664076646	0.047261252793644265
192														8.852020504647292	-4.227059498981322	0.4690189585808206	0.4134880652781806	0.050512691613244176	0.9091073027198123	0.8828699064790342	0.22190241138074412	-0.41388409978774554	-0.222639502573574	0.973759615002284	0.047157863441797676
193														8.894477239240166	-4.243321223291741	0.49847570785603934	0.4139397038404651	0.05147478248247722	0.9088477696252824	0.8821373304314455	0.2237569334744398	-0.41444730060816964	-0.22469457457569258	0.9732847381370455	0.04721405157102841
194														8.868313183120005	-4.231166390946116	0.4817726071292551	0.4143705136368086	0.05230714811871956	0.9086038959216791	0.8814396203249404	0.2255378425162166	-0.41496611586315685	-0.2266302564747084	0.9728291956190545	0.04735063886993769
195														8.871186730152013	-4.275666161609001	0.43998127892330513	0.41472622952516347	0.05305313546070656	0.9083983263754007	0.8807837341882729	0.22730528242739206	-0.41539417686092434	-0.22852170166792202	0.9723773307715431	0.047541123970787316
196														8.864918551186605	-4.348288071269643	0.5462198682210273	0.41496753164356215	0.05378766377578481	0.9082449201108656	0.8801373234440478	0.22923930963715713	-0.4157013721384948	-0.23056504410338746	0.9718828253151832	0.047786340045877757
197														8.915246486445916	-4.321691929905308	0.5427016453899791	0.4151943341682304	0.05446797669640174	0.9081007126906135	0.8794801864451662	0.23124889549759584	-0.41597902589135155	-0.23265482269872595	0.9713687187910378	0.048109724893020595
198														8.896967176956519	-4.2724947290053725	0.551750540158599	0.4154664326449804	0.05512500399789999	0.9079366042183149	0.8787950279622352	0.2332766734549392	-0.41629471825937386	-0.2347486787483749	0.9708466550161403	0.04847504790985878
199														8.887909543391697	-4.211903274989867	0.5922595522876561	0.41578748302853846	0.05574253808207347	0.9077519145697031	0.8780729535845715	0.2353591853680922	-0.4166460632792957	-0.23687266017854341	0.9703086227129163	0.04891338823781956
200														8.968440671085226	-4.168491496856244	0.6316195739697591	0.4161870267105183	0.056264888387127676	0.9075365673804239	0.8773451679895863	0.23733897384451286	-0.4170559527206854	-0.238859404259458	0.9697960990998149	0.049413673892953466
201														8.942414269976238	-4.0565561971545785	0.6774752040828758	0.41659620860212976	0.05669726879118481	0.9073218936463241	0.8766244053992873	0.23929337896908848	-0.41745458512262495	-0.24078465656407072	0.9692905129491245	0.04998650488027895
202														8.9542384309518	-3.985362926832656	0.6701868601685951	0.41707636029750206	0.05690317253880456	0.9070883852392818	0.87596051988832	0.24097498998709896	-0.41788063103917866	-0.24236434819909658	0.9688617461515017	0.05066003914616016
203														8.888415506351963	-4.001737709693167	0.5857003686699291	0.4175186430293575	0.05701171020405188	0.9068780775950726	0.8753934163527544	0.24237290488524865	-0.41826037534500027	-0.24364841335247467	0.9685066029083624	0.05128753058713431
204														8.867736109368606	-4.033820118271244	0.589513783443059	0.41793683541712917	0.05705396760947662	0.9066827705330749	0.8748943998357444	0.24356706018672897	-0.41861065004135656	-0.2447214554091411	0.9682044887171363	0.05187944959635389
205														8.889685374084106	-4.048654444429448	0.5545724152030762	0.4182814056416836	0.05710234238075862	0.9065208150886817	0.8744099047119169	0.24482867989715493	-0.4188869012532052	-0.24586171771163046	0.9678833814021433	0.052476430608793395
206														8.930646080638297	-3.9400576530453053	0.639846239331605	0.4185900723805161	0.05709880456985994	0.9063785510597473	0.8739190022022593	0.24619753855518284	-0.4191089948917542	-0.24707879086291756	0.9675363034667288	0.05315611516708514
207														8.953132664763142	-3.854521295834943	0.6635721057846866	0.41877714026637436	0.05706541794957998	0.9062942374662644	0.8734529871748253	0.2476947978943744	-0.4191982422332423	-0.24840609087881166	0.967156050061367	0.05388495934862317
208														8.964239303975898	-3.757191266410163	0.6481530458302289	0.4189022840175786	0.05691023434998349	0.9062461595345307	0.8730760719992532	0.24900571888565579	-0.4192067800794651	-0.24951763253768477	0.9668285148817591	0.05462210051179975
209														8.94501925418076	-3.6818855817165597	0.6506161095497512	0.4189608147355031	0.05671376115317106	0.9062314191264966	0.8727756090667788	0.25015375403373546	-0.419148941977601	-0.2504687045007348	0.9665436610100394	0.05530623316619181
210														8.97316669691586	-3.6356347030309952	0.6299726527278463	0.41902957227225845	0.05649377849612963	0.9062133692197212	0.8725617780011288	0.2509569892603287	-0.419113985823547	-0.2510979114465853	0.9663483029077155	0.05586408805790455
211														8.90947373147179	-3.6528519871386034	0.6035841821254209	0.4190342082465744	0.05626248325240474	0.9062256150084476	0.8724393051125754	0.2515266175429035	-0.41902746874412894	-0.25151538961632647	0.9662136894319489	0.05631265524239361
212														8.888482833350565	-3.6533874951665277	0.5373536126580016	0.4189858700523208	0.05608354227205331	0.9062590562210777	0.8723768603283126	0.25193487176908036	-0.41891220315289546	-0.25181233937242936	0.966117724023794	0.05663116692130396
213														8.926747922426289	-3.7019619115658466	0.6065878065810649	0.41886238902265815	0.05593169251107949	0.9063255181418415	0.8723660130597741	0.2522654628733023	-0.41873580632603236	-0.25205522871074376	0.9660402590027833	0.05687160684744241
214														8.86878284446666	-3.7631575999945652	0.5942604170081908	0.4186036419788318	0.0557221077990665	0.9064579624144119	0.8724662039222719	0.2524362111055099	-0.4184240460778461	-0.2521382833595861	0.9660077670625242	0.05705506147010447
215														8.855916906798573	-3.730603045242331	0.6080848084893861	0.418272227622869	0.055561538990360315	0.9066207911714943	0.8725931196060848	0.2526098224376998	-0.4180544524629723	-0.2522490658367731	0.9659716315674167	0.05717705651272045
216														8.904923678621312	-3.7597941279775515	0.6465061444395126	0.41781292584136487	0.05545229052335571	0.906839237393041	0.8728057115832224	0.25265653682967293	-0.41758216463941755	-0.25227474869194394	0.9659656918715851	0.05716409099659517
217														8.928356448240603	-3.7442672875119074	0.5973347921987936	0.4172785885540894	0.055332751424235604	0.9070925345046843	0.8730660272454362	0.2526561758381579	-0.4170378506571195	-0.2522583826242036	0.965972641139832	0.057118866980703675
218														8.949774943717172	-3.8136026549808753	0.6015057801009472	0.4167765159460314	0.05521690617267366	0.9073303858179802	0.8733614425838867	0.2524613280186373	-0.41653699531116983	-0.25206571834281427	0.9660302123266039	0.056995635872730474
219														8.93522014396353	-3.7568144856867227	0.6039786223558812	0.416286875143892	0.05511715410904344	0.907561202843011	0.8736972169334831	0.25208080285362655	-0.41606302642190723	-0.25171096659784065	0.9661352742528297	0.05678222555333455
220														8.91602873612635	-3.7626473607647473	0.65154100758689	0.41583826250270917	0.05497333673710458	0.9077755623978409	0.8740515453231147	0.25157496547137026	-0.4156247500647109	-0.2512218851075728	0.9662753070404247	0.05656496660415947
221														8.913604764412572	-3.816286790186587	0.6350791180011234	0.4153822600797878	0.05492770200630731	0.9079870734560671	0.8744190729823293	0.2509840730121021	-0.4152087184765987	-0.25069675469724584	0.9664315509370345	0.056224501222392545
222														8.932376975828895	-3.8640286181591867	0.6283681592927859	0.41495520083626125	0.054880166347458015	0.9081851951230062	0.8747831957875596	0.25035371998791195	-0.414822100732251	-0.2501330479297803	0.966597735477323	0.055877330854906926
223														8.932449744602112	-3.9408175284178704	0.6194439618953985	0.41452894757585085	0.05479443952621532	0.9083850070419839	0.8751659433618645	0.2496647279960535	-0.414429843488852	-0.2495001466957389	0.9667807884891302	0.055539029584070254
224														8.906361656274287	-3.9780467558041805	0.5838605721014263	0.4141259416887502	0.05467439421165782	0.9085760370150613	0.8755076007629756	0.24910692371106713	-0.4140436952369479	-0.24897016975265102	0.9669314614680797	0.055293791663615685
225														8.917599696523723	-3.9619174342222405	0.6121679473569648	0.4137015973463519	0.05465741211035535	0.9087703536397272	0.8758558511061559	0.24851206898180933	-0.41366445297304794	-0.24845022929389182	0.9670854765075207	0.05493782569444615
226														8.929018451519388	-3.9455221125145834	0.6396014411901725	0.4131815349619922	0.05471840943783235	0.9090032534788015	0.8762265855940732	0.24796157853437212	-0.41320942180557224	-0.2480080439514109	0.9672233202520175	0.054507420559580064
227														8.903392643452854	-3.9820466054943906	0.6025985869515348	0.41264049785867973	0.05478775784596451	0.9092448081331859	0.8765967759171462	0.24744440001886087	-0.41273400798937276	-0.24760030690329643	0.9673518338688974	0.054078808528623165
228														8.953247596454679	-4.0060824387043885	0.5764614486108139	0.41210982214348074	0.054837665016646775	0.9094824489721565	0.876982123478578	0.24685613111102328	-0.4122673957905258	-0.24711910001429133	0.9674992925208885	0.05364018437428571
229														8.903967816722199	-4.030485097511006	0.5802592095185004	0.41158235838562973	0.05486583038585163	0.9097195737818303	0.8773771535406285	0.24623153355340702	-0.4118001485294569	-0.24659540285793746	0.967656846480202	0.05320652919824018
230														8.885083002051514	-4.032068630937576	0.5663260492789765	0.411096948335564	0.05484812188064353	0.9099400983555739	0.8777299948213471	0.2457161246618141	-0.4113558584390125	-0.24614905090230138	0.9677888559016088	0.05287130727105496
231														8.894133013922588	-3.9923535042443534	0.5858431629533454	0.4105458643323919	0.05486840405585525	0.9101876463213137	0.8781106298500313	0.2451886915216279	-0.41085791618793627	-0.2457108361956195	0.967921465712108	0.05248067444092189
232														8.896448494347101	-3.987628934242656	0.5828545923592249	0.41007654200057575	0.054767032280505445	0.9104052953910344	0.8784823851651058	0.24460321310781855	-0.41041194803752806	-0.245165104889496	0.9680753278090077	0.052194166647291346
233														8.873360461434398	-4.0522508991849815	0.6145403521950135	0.40965292489684374	0.054671421774883655	0.9106017333415166	0.8788739012281392	0.24385274126008094	-0.4100201291643816	-0.24446911228924811	0.9682700430257346	0.05184570296032433
234														8.87782466417836	-4.066603079578399	0.5600157316026438	0.40928102171064806	0.05455373150817566	0.9107760073948055	0.879254066573886	0.24306151791635344	-0.4096747306357608	-0.24372388409996476	0.9684756005634487	0.05151387611600268
235														8.894051602699864	-4.09208180015553	0.5445941088114138	0.4089383108482212	0.05448959190126795	0.9109337749227646	0.879597875548793	0.24233534458496486	-0.4093667769799323	-0.24305767885556467	0.9686611714832596	0.051171277197521126
236														8.886478399679774	-4.10585039347406	0.570540648765242	0.4085857995994174	0.05440499928918252	0.9110969983585997	0.879902218891066	0.2417908091494238	-0.4090345826472951	-0.242548406624914	0.9688019924954802	0.05092121149878885
237														8.903980051300723	-4.050562139005132	0.562754299194808	0.4082321434412974	0.05432727881626598	0.9112601515691033	0.8801912566963854	0.24130453490371964	-0.4086997346098218	-0.24209475148495707	0.968927586670604	0.050689871691666694
238														8.905793567189617	-4.046822446524855	0.5609601174392298	0.4078215239169205	0.05422166741864487	0.9114502813716294	0.8804891383295758	0.24089590768467006	-0.40829895780471936	-0.24170329313793348	0.9690351760607665	0.050500946953076484
239														8.928836919934131	-4.036655573064958	0.5701231323155707	0.4074389569065728	0.05408575721306497	0.9116294352759642	0.8807683545763776	0.24052366275154058	-0.40791601247487635	-0.2413308972587312	0.9691352323196554	0.05036168687626731
240														8.894928729657785	-4.010215751419684	0.5711237187680233	0.4070488011410991	0.05395422048040499	0.9118115022206872	0.8810316671884687	0.24022550046520774	-0.4075228954762521	-0.24102795460423615	0.9692165140042718	0.050248125146177935
241														8.893949632841545	-3.9835743323395323	0.5624572573952599	0.40671173850638487	0.05378610974511833	0.9119718285997656	0.8812785088375729	0.2399131779246509	-0.4071730061277626	-0.2406943115699624	0.9693032144053693	0.05017496309197449
242														8.895614523525193	-3.985145826475522	0.6215097754558405	0.4063779178064436	0.053625724104778505	0.912130072760206	0.8815339667885949	0.23955554608890584	-0.4068304385564235	-0.24032239453963716	0.9694005477883152	0.0500771867265989
243														8.891779688319263	-3.935843768114759	0.6048023774427852	0.4060349309079249	0.053455421588435914	0.9122927999197403	0.8817961944437427	0.23919008960546506	-0.40647702579489375	-0.23993979733910292	0.9695001902719422	0.049982744177746716
244														8.902702816273495	-3.9200902149064256	0.6353377994601558	0.40565423503928955	0.05324796407629312	0.9124742713723047	0.8820801145817871	0.23881981837884608	-0.4060785217280963	-0.23953979430163563	0.9696028819425118	0.049909300483029384
245														8.91097640542466	-3.8758847105403063	0.5985862323858164	0.4052512014449136	0.0529460238985201	0.9126709057928775	0.8824065114545253	0.23835778285204617	-0.40564062407075496	-0.2390192717546198	0.9697331003462727	0.04987486163085647
246														8.838580361680602	-3.8036144639262432	0.5945914246466368	0.4048133983326407	0.05260596980026677	0.9128848363686153	0.8827584108922173	0.23786921168650907	-0.4051614815486376	-0.23846110905014922	0.9698715636995515	0.04985428163719455
247														8.858263658641787	-3.849989990981203	0.5901170583980778	0.4042933423278612	0.052177797324345465	0.9131398418729451	0.8832018657927863	0.23719197132005793	-0.4045916867675936	-0.23770014221600438	0.970060537393252	0.049811606908500575
248														8.846271343240042	-3.81509422995363	0.6025951236173613	0.40363583823704263	0.051731630047031296	0.9134560463116754	0.8836943318786219	0.23656602984176803	-0.40388221219868087	-0.23698615549495	0.9702372658157288	0.049771579502187885
249														8.846636019645791	-3.7848388549369827	0.5946044753408193	0.402903575276596	0.051232523555340026	0.913807385371495	0.8842406247621315	0.23587224550607	-0.40309155451361117	-0.23619319750918244	0.9704326418304754	0.04973189238620013
250														8.846752476518123	-3.8394795854224157	0.6388731489439128	0.40203073046831195	0.05069353044275854	0.9142217771035455	0.8848599433759317	0.2351430355709081	-0.40215747342458	-0.23535966597498964	0.9706378927250614	0.04967805187800302
251														8.874997768586494	-3.8408467929106083	0.5977064609747857	0.40101155604872996	0.050122697259508575	0.9147007418466477	0.8855325181447928	0.23446427981222215	-0.4010718898156261	-0.23456745559330727	0.9708317138987412	0.049637607364922315
252														8.840638495408566	-3.8650467981288688	0.5842736681298082	0.39984128157476334	0.04955965624991404	0.9152435686859761	0.8862508071054667	0.23385633130833783	-0.3998383713601205	-0.23385135546658614	0.9710072382734307	0.04958312986334246
253														8.897307470084993	-3.8225863862500886	0.5766828851772814	0.3985732976760143	0.04902296384159227	0.9158253520163406	0.886999863208128	0.2332743702425733	-0.3985151325316195	-0.2331749751762197	0.9711744525079508	0.04949357278932859
254														8.954333774526436	-3.78424804529853	0.6287712497968824	0.39715874322519806	0.04837922037646486	0.9164738859976029	0.8878260936984885	0.2326691519658613	-0.39702631282015827	-0.23244302533710132	0.9713519016089138	0.049454253739018975
255														8.963704988295646	-3.7114486195958847	0.6445903774359092	0.3956737407807115	0.04757045218838141	0.9171582976428834	0.8887233871231527	0.23194879250332548	-0.39543709845764435	-0.23154488125836398	0.9715641047994943	0.04949907300352149
256														9.01228232222181	-3.687952359239491	0.7266012505303869	0.39406293729336356	0.046572595957122376	0.9179027153013228	0.8897380120713051	0.23102351365106746	-0.3936932892693467	-0.23039242897093887	0.9718328711492166	0.049600395429282934
257														8.992210797935531	-3.7176129651158822	0.7538877350991536	0.3924322868822245	0.04544030316656378	0.9186577594841936	0.8908032984457783	0.229951806353144	-0.39190770626902444	-0.2290554161998995	0.9721405997092485	0.049762141296711596
258														9.038082820585036	-3.664252281640178	0.7696302786008704	0.3907813877789822	0.044146603177182664	0.9194242678945608	0.891959557990966	0.2285682809599885	-0.3900829243219397	-0.2273720604517913	0.9725264101128113	0.049943245379078224
259														8.983025493251457	-3.7407778612246507	0.6720166639188895	0.38913175963594576	0.04273763395761143	0.9201901804987591	0.8932189938053503	0.22675095211855972	-0.38825743369404436	-0.22524720364078044	0.9730146454997648	0.050061930595782164
260														8.959857086877083	-3.660571363571032	0.6399425207958724	0.3874405123663121	0.041220804761630314	0.9209726894062238	0.8945212324080205	0.22482396786870595	-0.3863753980819777	-0.22298343918005498	0.9735271073404037	0.05023302822705479
261														8.952807448632594	-3.694502110047886	0.6465059551458652	0.3856688619509794	0.039664609016110186	0.921784273956242	0.8958834540023968	0.22274741370045023	-0.38441699563689485	-0.2205728128445853	0.9740689444189052	0.05037187461736917
262														8.984674612845755	-3.691709980121803	0.6671913605770495	0.383848674181704	0.03801233296658807	0.9226132764443538	0.89725600849376	0.22069914127157234	-0.3823918726435444	-0.21815556502366412	0.9746009191378942	0.050608278618997055
263														9.064177926138486	-3.6337740137682806	0.6750135583245748	0.381920939219381	0.03621927605939779	0.9234850081227735	0.8986717984194433	0.21865610198920066	-0.3802348061243891	-0.21569746153200176	0.975129567342013	0.05096010188401495
264														9.058161342890639	-3.665356360299764	0.6834272795098261	0.3799935757932864	0.034393147213826025	0.9243494976363429	0.90006590436412	0.21666259424653525	-0.37807233177734606	-0.21327505751266446	0.9756405237991548	0.05137429477745023
265														9.035463968813918	-3.581595011097819	0.6546562706822422	0.37797673056302333	0.03250307038768868	0.9252443685687909	0.9014941125815914	0.21464327336631062	-0.3758146220935583	-0.21081260904797994	0.9761515331207384	0.05182883610901691
266														9.015558297509633	-3.5269304955327874	0.693463803214928	0.37591612221547643	0.03057934949709612	0.9261490012102873	0.9029079101613993	0.21272123749438154	-0.3735063331281451	-0.2084331423417422	0.9766343115533024	0.05235500616324727
267														8.944468302546403	-3.4089730794978603	0.6288725003635538	0.37367435159833556	0.02865419053023882	0.9271172613659076	0.9043770460867468	0.21081499498604556	-0.37102452264027486	-0.20608162816945536	0.9771059181348205	0.05286196436887265
268														8.896751446510551	-3.5150400037370395	0.6581261385086398	0.37126391320827723	0.026764054088625144	0.9281415798023588	0.9058953800687584	0.20890864324065234	-0.36838938522904013	-0.20375639160369186	0.9775688539372005	0.05331480744176059
269														8.928994406706629	-3.4174287473761447	0.6322764578662342	0.36862780110214727	0.024907868615181183	0.9292433170788177	0.9073611340084746	0.20759798571506244	-0.3655117628995043	-0.20201315983234974	0.9778970673890464	0.053925957074973566
270														8.90522826167755	-3.348310749459244	0.7836822567310189	0.3657916564929544	0.023056795498666183	0.9304111178513897	0.9088624006389749	0.2064216314188229	-0.3624351621837351	-0.20041357425309092	0.9781914404980876	0.05455185598470966
271														8.884396694359559	-3.255259807417698	0.7568610608209281	0.3625975148285259	0.02132526284104691	0.9317018167873978	0.9104085202380336	0.20558154173079451	-0.35901609431553916	-0.19919680850398036	0.9784076159067603	0.0551286551393983
272														8.920992547594611	-3.401744390551455	0.6712156020505273	0.3591233222032578	0.019529689590680244	0.9330857574061391	0.9119745827339861	0.20511111486579567	-0.35529113555742403	-0.1983249855587252	0.9785438272162386	0.055849604476033626
273														9.012907178934718	-3.3695989983550834	0.7002127835980068	0.35519285589199456	0.01767486540303176	0.9346259327967921	0.9135338674537409	0.20545324347840072	-0.3510624413964221	-0.19822691073186816	0.9785073141664247	0.056828936155010557
274														9.05390442794576	-3.392110687559023	0.6535515877816267	0.35087373093366997	0.015789377230094548	0.9362896563069425	0.9150061572517383	0.20683478484828954	-0.34638577333396536	-0.1991264852602334	0.9782484691239991	0.05812551526187537
275														9.076969972462944	-3.218114507412375	0.732703735343347	0.34612513869504136	0.013960105810422951	0.9380844864984712	0.916436232607679	0.2090316708876939	-0.3412482851674762	-0.20085322981516307	0.9778092227074057	0.05955756930195069
276														9.086698939663965	-3.177369509170332	0.7149058602011948	0.3409605195780508	0.012147123597092746	0.9399991337641664	0.9179157738941153	0.21153474747387313	-0.33568390287223027	-0.20292007324420586	0.977294990266236	0.060974961050290655
277														8.971622944262307	-3.582815824115428	0.5932843417426007	0.3354115972734196	0.010315389425392063	0.9420152085584903	0.9193267020517475	0.21481594708670926	-0.32968549220719107	-0.20576072343659524	0.9766000725057535	0.06256854699133041
278														8.984143811249623	-3.3281461141927373	0.6538425350649514	0.32950447549845713	0.008539536973939388	0.944115393866003	0.92048645909345	0.2195860644539815	-0.3232439309920834	-0.2100749372297646	0.9755557578149405	0.0644940628432405
279														8.92855566644099	-3.580113459641253	0.7186935212556904	0.3231638278218927	0.0069250831682151626	0.9463176969763457	0.9215221324894302	0.22521811661953392	-0.31634436817886064	-0.21531860049618257	0.9742837590607074	0.06640073125276572
280														9.040016154679273	-3.5891754710942045	0.6937796763784208	0.3165207498981903	0.005671012796912234	0.9485686345740854	0.9222542958368083	0.23213559034566786	-0.30912793711572095	-0.22194960845750572	0.9726669046023544	0.06824561522057207
281														9.283584125428588	-3.3918287114345795	0.711479587401134	0.3095590678757745	0.004491419521663542	0.9508696075943124	0.9227176577248883	0.24015144796017984	-0.30152845000981976	-0.22970700385181325	0.9707250430442748	0.07019674627868161
282														9.487124285891126	-3.5269737801675376	0.629423734696527	0.30267143910601435	0.003324370279552513	0.9530891608405474	0.9228418654066508	0.24892897492157504	-0.2939341029844395	-0.23822865361301004	0.9685160370415857	0.07227582300461341
283														9.633404027720399	-2.9931302053166915	0.6631541524803762	0.29596439972334754	0.0021417730317868644	0.9551965697722528	0.9224464301190839	0.25897686605166326	-0.2863975670473062	-0.2479872126883883	0.9658811498617925	0.07467226181591716
284														9.664588387016511	-2.995464341919101	0.6241874149086971	0.2896128111912891	0.0007948322021829046	0.9571435565450193	0.9217838843036807	0.26906680429416874	-0.27913710872068115	-0.25775742517315875	0.9631211881527129	0.07719253007519283
285														9.708691182687879	-2.627686041508554	0.5677088273717247	0.28362688765875027	-0.0007153989578904674	0.9589344486466951	0.9210214592496877	0.27861028939927174	-0.2722053971588908	-0.2669742687949272	0.9604039748174643	0.07968026704416115
286														9.566127217648951	-2.221145207019576	0.46447063259405313	0.27814300673457515	-0.002074886586304614	0.9605374342784898	0.9200992806738261	0.287682728932141	-0.26581189058743043	-0.27577850080845284	0.9577235208137107	0.08192604086633212
287														9.18436649517477	-2.009082725910303	0.451680975960141	0.2730764487195516	-0.002971603284494917	0.9619877456229047	0.9192851894124956	0.29545376604905405	-0.260041944028773	-0.2834501608423441	0.955352417540957	0.08341321608173857
288														9.180192419469869	-1.7075103557052411	0.41518557848832277	0.26841039333941297	-0.0033577957685113624	0.9632988040867476	0.9188445734212708	0.30118587045916223	-0.2549739620628728	-0.2892758383302418	0.9535595401669124	0.08392671037877086
289														9.311290207630023	-1.7702747659405182	0.2813265561339432	0.26434977543284166	-0.0034902749029072644	0.9644205587863152	0.9190804125091114	0.3039400165812261	-0.25082197204927187	-0.2922505629946467	0.9526847769864417	0.08355431842583544
290														9.296236830449914	-1.9331546286960892	0.33885684327112875	0.26083658892396244	-0.003427155562549411	0.9653768841666257	0.919889760414168	0.3042421257194443	-0.24746627572838908	-0.292860209935862	0.9525885699201228	0.0825100835889708
291														9.207472187786443	-2.3889436527261605	0.2951482512748695	0.2581265793218793	-0.002910606705839258	0.9661067215459116	0.9209203882492181	0.3030043943710939	-0.24514072590803065	-0.2920210738191597	0.9529847141273624	0.08089392489609043
292														9.198216387014035	-2.6284992106348573	0.3916838623177821	0.2561537018795691	-0.0020179924522534254	0.9666339579798837	0.921964931649881	0.30099286703499545	-0.2436882410004308	-0.29045816535470864	0.9536242560361583	0.07896095540367082
293														9.259976373193744	-2.8498193493716544	0.49593261144011025	0.25482949715269343	-0.00080282018280603	0.9669856683843148	0.9228099955431306	0.2990017345114127	-0.24293965276350943	-0.28893535523814534	0.9542522298841754	0.0769353121426436
294														9.248620730478946	-3.10035341605844	0.46849015553108153	0.25406659934413656	0.0006418445978518816	0.9671865131055222	0.9234417192642826	0.2971814716933211	-0.24277265909574292	-0.2875857336863774	0.9548208004215788	0.07491117982226705
295														9.177414203808858	-3.2764796936163445	0.4728986477918443	0.25367335347692826	0.002446247933922563	0.9672868476345657	0.9237295084306218	0.2960999850839171	-0.24299916478833022	-0.2870080573612724	0.9551538173008314	0.07285300477920395
296														9.10545502854125	-3.4188612512752243	0.49800204266571557	0.25336392558911214	0.004883047909470251	0.967358711674831	0.9235746354094152	0.29626059258227144	-0.24339177083699343	-0.2877787588381759	0.9550946639605498	0.07055188754132513
297														9.20967973729144	-3.430057893173126	0.5155064202024984	0.2530771179647271	0.008018441236227192	0.9674128782287368	0.9228904402087637	0.29797008723893076	-0.24389969758509056	-0.2902157951145014	0.9545415295894492	0.06800926815583708
298														9.346386157958095	-3.3226502340808697	0.46626937616127306	0.2526926303836683	0.011402954742345539	0.9674794091725814	0.9218235889866645	0.3009179763676978	-0.24431463788834873	-0.2939178547443624	0.9535818497234068	0.06552824231244267
299														9.433183687068853	-3.196217667584202	0.5582186945845414	0.2521476997247022	0.01490464499154015	0.9675739708576385	0.9204410585992437	0.3049224007324203	-0.2445620313464078	-0.29868008833573995	0.9522605636532755	0.06316663472515452
300														9.541116308041614	-3.056920831980208	0.6602059489918898	0.25142135918019104	0.018411902404609437	0.9677025896409642	0.918861578295267	0.3096017664973657	-0.24462245627587276	-0.30410639598784506	0.9506880392807904	0.060922507234437956
301														9.617360093346043	-2.882171384175139	0.7331633379194583	0.2505596744901887	0.021770030626285908	0.9678563505427349	0.9171804471823295	0.31462862559937277	-0.24451759703520726	-0.3098384689250077	0.9489651699193077	0.058866199590484364
302														9.685680090208704	-2.720219489825705	0.7165812967594413	0.24964437845354095	0.024816516622693185	0.9680195374109251	0.9154822019967952	0.31970915888714024	-0.24429161170776392	-0.3155471789346956	0.9471906852510709	0.05709451497265122
303														9.721852110617467	-2.6365389610842294	0.731507627704448	0.2486368177112398	0.027543169980960347	0.9682050953521304	0.9137140740660927	0.32502980563267686	-0.2438897626058285	-0.32141301114293874	0.9453025966524076	0.05564779447781337
304														9.921453182577219	-2.6359473904382043	0.7540486511182731	0.24735630246195683	0.02980739259853843	0.9684659926806027	0.911984285099934	0.3304343665856312	-0.24310037661409506	-0.32726063521772847	0.9433581762647891	0.0545511494953094
305														9.97728362694756	-2.759388537170327	0.7856924153533863	0.2461483605276355	0.03164684938959722	0.9687153666238959	0.9101443534289129	0.3360870781119823	-0.24224518952420093	-0.33323901411902973	0.9412990772596467	0.05392408199603067
306														9.856937530466249	-2.8282873669787127	0.8179437686671777	0.24512931635474466	0.033188481091263156	0.968922155276837	0.9082888634426525	0.3416045159892928	-0.2414905695918086	-0.33900288908726234	0.9392576214109611	0.053592553698377385
307														9.788913246236971	-2.907042765871583	0.6812951595581205	0.24416762447120643	0.03479246606988129	0.9691086912544249	0.9064321048870779	0.34695895305511415	-0.24083256450256202	-0.344620095743225	0.9372347460480088	0.05317913510254936
308														9.767248007034512	-2.8013608555454583	0.5490151441749895	0.24315459075721568	0.03653423619750806	0.9692992801911882	0.9042888300711612	0.35297241105269883	-0.24015034633365645	-0.35090961343659627	0.9349201712558721	0.052789360449518666
309														9.778273289239788	-2.552679189201405	0.5704560856072483	0.24198313204694666	0.038269190897416816	0.969525467861885	0.9017817825525463	0.35990838054635055	-0.23928137050103826	-0.35809744548251365	0.9322024601129092	0.05258129799023405
310														9.743104960872108	-2.3767826031394765	0.5856794454741038	0.24076435556010373	0.0398083103666228	0.9697668913287786	0.8990876736165471	0.36723094244299914	-0.23829139737559257	-0.3656143873571086	0.9292775329997932	0.05262496004088581
311														9.658652472432932	-2.092196778583131	0.5069809352332622	0.23949948350362607	0.041252841502648685	0.9700196907637774	0.8963462259681514	0.37454192054395935	-0.23723784046373064	-0.3730997729752036	0.926291829189484	0.052725767729372874
312														9.567160511495231	-1.973221668730276	0.444062533126883	0.23828828726473786	0.042578243832574636	0.9702606790469106	0.8938225928913583	0.38114444542255826	-0.23624158008381962	-0.379868220030851	0.9235345174251284	0.052764860797017366
313														9.486748603056542	-1.796850681121613	0.485181026755042	0.23734838688291224	0.043906976564920264	0.9704318217438089	0.8914182432494787	0.38716183920991665	-0.2355402850079124	-0.3860560307080999	0.9209657364248265	0.052752758083197876
314														9.497190814499794	-1.6224994867165845	0.5193707361032446	0.2365112537711922	0.045201920223919945	0.9705767425853815	0.8892964122106937	0.39234875807229963	-0.23497732500884594	-0.3914260058667123	0.9187051967019645	0.05259699120708375
315														9.53945792642814	-1.5565532554751798	0.5466532210580021	0.2357899080367527	0.04658936366556565	0.9706866386539261	0.8874977294522015	0.39661313529083	-0.23461841601196837	-0.39591779384767106	0.9168028425501393	0.05216942022658057
316														9.598739798640349	-1.528162454869849	0.6541095882909327	0.2351647826888763	0.04790076371270313	0.9707744546590801	0.8860489628863872	0.39998100045690654	-0.2343766938956403	-0.39951816022660613	0.9152708430345812	0.05161902304302121
317														9.601748562268284	-1.559778938452079	0.6888529312148713	0.23469257388930836	0.04908989933877439	0.9708293246210276	0.8849620147349576	0.40243432570446025	-0.23428368695033164	-0.4021960072370885	0.9141317165910531	0.05100565149900993
318														9.635492444914158	-1.6273260885399219	0.695630501637099	0.23441548304903148	0.05008210821218856	0.9708455921226158	0.8841825805869403	0.4041130943955761	-0.23433687529847175	-0.4040675011597797	0.9133369528137221	0.05044863854889062
319														9.613595896094148	-1.716646797209962	0.6481828497663321	0.234197387112337	0.05094252820947048	0.9708534609761563	0.8836222453004055	0.40528820404759813	-0.23442098726466942	-0.4054174533490437	0.9127684977471009	0.04990348725766759
320														9.603445970151986	-1.8133122656751006	0.5816696292948343	0.23401360404324117	0.05161486126686582	0.9708622658333647	0.8832481183637233	0.4060668187641442	-0.23448347512289486	-0.40633778378294416	0.9123845925897529	0.04943643064780723
321														9.59062630616583	-1.956693393958242	0.5902821342847787	0.23378595737441604	0.052286730128635606	0.9708811585291905	0.8828616058978256	0.4068944681217241	-0.23450432116157666	-0.4073076367637125	0.9119775159862191	0.04896426625167766
322														9.593417137385316	-1.989316955890928	0.6280507546055337	0.23334150180772767	0.05301206181984125	0.9709487447006266	0.8824439203638401	0.40789284611351845	-0.23434195847587597	-0.4084659972959926	0.9114895212732959	0.04839815762988582
323														9.646355539556456	-1.9395467464114053	0.7254878766318539	0.23270959348955142	0.05368900457117198	0.9710631987085522	0.8819504120325601	0.40916791843121947	-0.2339766767057373	-0.4098898825459417	0.9108782055328913	0.04786626026393184
324														9.710480488358346	-1.901912191858597	0.8944053695648688	0.23188485613962198	0.05413404775956698	0.971235768681463	0.8815051393190894	0.4104883493301902	-0.23334096172384527	-0.411312658262714	0.9102575569240505	0.04746659051921867
325														9.79412772536849	-1.8887003867885714	1.0562924365695887	0.23093912672578767	0.054294821639954194	0.9714521048874286	0.8810751433825363	0.411900175079876	-0.2324754556563125	-0.41276350548537255	0.9096099813174066	0.04728604896979377
326														9.878073373753182	-1.9360932026305215	1.0060933539722527	0.22996496788184007	0.05406984456975472	0.9716957164952964	0.8807255704433804	0.4132343433122182	-0.23143000469796976	-0.41405142568802594	0.9090180578049716	0.04740872778498541
327														9.907118765432013	-1.8530957037518103	0.9101354017765385	0.2290364237438881	0.05343986802452294	0.971949842895266	0.8804066898263598	0.414566224194894	-0.2302583467885182	-0.4152425521398339	0.9084486921462935	0.04790194808237766
328														9.84366729064826	-1.8077307884773837	0.8082219527251158	0.22820989957145957	0.05209677553088643	0.9722171402093616	0.8802698132909317	0.4156091186937938	-0.22889761088162747	-0.41598713627506956	0.9080501012817812	0.048986896368460514
329														9.748397389249202	-1.764447322516694	0.7233658112998779	0.22722369345905444	0.050243648730147084	0.9725456127571127	0.8802546549158594	0.4165811893186523	-0.2271824271479182	-0.41655868209627755	0.9077090329329875	0.05042991078788045
330														9.64890494267896	-1.73130181230374	0.672654086692896	0.22604468772147154	0.04801651425966291	0.9729327898222228	0.8804472334852554	0.4172766340821514	-0.22515079324139603	-0.4167930759994244	0.9075101239145607	0.05204715930304116
331														9.548019477993634	-1.9642791234040082	0.569347859770322	0.22474035521272764	0.04576136590640034	0.9733435519533881	0.8806978851374673	0.4179040457685411	-0.22299651038677232	-0.4169688331917024	0.9073379226730611	0.053617965516089355
332														9.445104585137532	-2.132078389109858	0.5293017701707475	0.2234293360898676	0.04363794849876512	0.9737428106154418	0.880814788832188	0.4187837940292102	-0.22087426657039105	-0.4174262085075025	0.9070368588482605	0.055131634673132604
333														9.321647315729184	-2.2012940650166635	0.46828237030519765	0.22200288892856887	0.04192415183309067	0.9741442823321632	0.8807338610839126	0.420044875228635	-0.21879252440242075	-0.418357004539894	0.9065344275245351	0.056327155663771084
334														9.213654289415928	-2.1555267090517503	0.3406492664468918	0.22059292727947216	0.040666636509260556	0.9745178218530938	0.8805886182000189	0.4213223529462137	-0.21691279446922562	-0.41940725545805224	0.9059987304532445	0.05713015391414798
335														9.234096894571696	-2.015119939846838	0.1928941578180574	0.2191698328809606	0.03970330498162794	0.9748785729148362	0.8804196202168479	0.4225805904181344	-0.21514399117586858	-0.4205066904249599	0.9054552955145807	0.05766134868740164
336														9.393820903438172	-1.7936677210078191	0.24746189374728403	0.21800878133189777	0.038943823175792425	0.9751694980354098	0.8804324287559793	0.4232694392347013	-0.21373282435037644	-0.4210830199105968	0.9051664821713152	0.05798904979888665
337														9.470427137165348	-1.7474900907555868	0.3131875091323159	0.21732037892042455	0.03826008098495037	0.9753502033161778	0.8807862066255088	0.42298187720622155	-0.21284264087195676	-0.4206988366089582	0.9053300490749918	0.058223630235009274
338														9.447204691671697	-1.9230620873290298	0.42664989720881846	0.21718687866538894	0.03766863618427452	0.9754029595934195	0.8814623087854199	0.42171584167385245	-0.21255575050322895	-0.4193495653106873	0.9059452647535229	0.058387664317102725
339														9.424881265436568	-2.097445606067179	0.44813833980571843	0.21748538716296384	0.03720041711999378	0.9753544152443634	0.8822574450041363	0.41995462028622643	-0.21274378401030897	-0.4175187506033104	0.9067823585989914	0.058513648222451614
340														9.38929290667642	-2.307839729931661	0.47232927787967594	0.21808103823037472	0.036888740098938944	0.9752332447257295	0.8830824394646206	0.41794218400419525	-0.21328322938997785	-0.41545886183059855	0.9077243809018882	0.05856946681255781
341														9.432360885567878	-2.434093966586163	0.5425645615412763	0.21877282653884056	0.03684004164586541	0.9750801309121921	0.8836487020458182	0.41638091707111813	-0.2139904279909639	-0.413888175406048	0.9084435828550643	0.05853917516080019
342														9.46770976446069	-2.5410742904845547	0.600527438430961	0.21939385258724026	0.03690142313444633	0.9749382659520454	0.8839710890217455	0.4153586963002758	-0.21464451351349528	-0.4128697751357419	0.9089089274390412	0.058507353392322256
343														9.475752562797895	-2.5210533253118412	0.5368102780524783	0.21993754704507085	0.037159096462513586	0.9748059688727224	0.8839666566570253	0.41504762108557924	-0.21526361083518608	-0.41258989968054033	0.9090405237288882	0.058437153424090296
344														9.486865849224488	-2.4941181007338935	0.5329514086254091	0.22032231699281019	0.03745921014385617	0.9747075890800879	0.8836890603650951	0.4154052393796083	-0.21571307722765726	-0.4129790808575836	0.9088648385053568	0.05842075061702541
345														9.513718523511551	-2.427492712294096	0.5852576708307632	0.22049789141258072	0.03784402634959372	0.9746530200806122	0.8831356146408378	0.41645065682489346	-0.21596373904677973	-0.41406782781997997	0.9083703430318315	0.058405084236540755
346														9.630533596915352	-2.245694250172376	0.6219925050849594	0.22036909019723805	0.03813579343573559	0.9746707779269213	0.8825211910876702	0.4177936944381416	-0.21588139375344534	-0.41544411340978565	0.9077412021863704	0.05841317048749739
347														9.644286415775419	-2.094322542781933	0.6666078084876175	0.2200537386554245	0.03840438913923061	0.974731478407573	0.8818516626498571	0.4193459468668125	-0.21560756463551856	-0.4170299715673359	0.9070138255513084	0.05841166898255842
348														9.67825509029314	-1.9290396239186467	0.718456742987742	0.2195732003873742	0.03856854687364253	0.9748333585099056	0.8812786490795197	0.42078373625636956	-0.21514876243824282	-0.41849199795004854	0.9063407275932083	0.05840319475500402
349														9.605876891158662	-1.8016760321340966	0.7188152669371681	0.21899608881910843	0.038653736086634916	0.9749597949497597	0.880840425719758	0.42198733767927543	-0.21458525405114015	-0.4197152099933578	0.9057773321986489	0.058365803132738994
350														9.56030455445332	-1.7598768302420458	0.7067596453601566	0.21832833585221523	0.038613860982953885	0.9751111257205468	0.8805858688654717	0.4228609990942261	-0.21390909985195944	-0.4205963210947582	0.9053714956773393	0.05831971790512251
351														9.519261168764595	-1.744351601406866	0.64691189420869	0.21768866580885948	0.03859465650674476	0.9752548883586716	0.8804170458832697	0.42352955050671004	-0.21328043784126227	-0.42128074973411156	0.9050597617487535	0.05821818931188387
352														9.50501009530971	-1.815487970666653	0.5752193766022536	0.21704173768533086	0.03843100084467438	0.9754055270894304	0.8804028138468558	0.4238991211704617	-0.21260390504750742	-0.4216441265724821	0.9048936916815078	0.05816904057951944
353														9.513247473470782	-1.9462856319086836	0.5397643148232798	0.21639054714690717	0.03817421708769925	0.9755602801750404	0.8804604467104804	0.42413532841442236	-0.21189295639348504	-0.4218584275368259	0.9047938728464795	0.05816798755007149
354														9.507706753401338	-2.0758505624254435	0.6158463475417524	0.21576429950283274	0.03783922636555792	0.9757120271925057	0.8805928620920711	0.4242151832446041	-0.21118165056946242	-0.42190280668958274	0.904770507506077	0.0582095392066414
355														9.449588772123313	-2.183523858262125	0.5611577290606052	0.21511279577541392	0.03768261745953555	0.9758619294936572	0.8806511598442168	0.4244258464559092	-0.21051421691947797	-0.4221137521554126	0.9046782418084252	0.058114189658771256
356														9.458783797527678	-2.157609942374723	0.5876412016150406	0.21440611766382817	0.037648402851312046	0.9760187572332149	0.8806684500194621	0.4247222014731272	-0.20984311453116034	-0.4224370933626	0.9045405736276095	0.05790727771871419
357														9.44054250963748	-2.163448439517039	0.5779577781207025	0.21374738962548304	0.037764958084867795	0.9761587275485168	0.8805596390304189	0.4252325580791748	-0.2092653666043649	-0.42299737060519654	0.9042959026172179	0.057638051413980124
358														9.457002021599573	-2.158914612320313	0.6149479616172983	0.2131722540066922	0.03800647323705536	0.976275113947799	0.8803810904176086	0.4258252244288292	-0.2088109524791274	-0.4236587373781042	0.9040068507661979	0.0573139425530326
359														9.459737739054457	-2.14914342382727	0.5203393768117759	0.2126782496005347	0.03847379440228671	0.9763645473342133	0.880130978814598	0.426483502748971	-0.20852165838067271	-0.4244259915199707	0.9036767060333352	0.056841786522159765
360														9.439464059217773	-2.080994924824731	0.38888761826876694	0.2122283839526899	0.03907457871094561	0.9764385747927986	0.8798113332012407	0.4272391902019821	-0.2083235280188248	-0.4253129800693662	0.9032938899683297	0.05629402570786872
361														9.367266636598517	-1.9132595531794852	0.30762874507276017	0.2118597872817605	0.039865382487200896	0.9764866521422995	0.8794988209759163	0.4279002459903358	-0.20828634948883035	-0.4261422936472045	0.9029463609542703	0.05559329819807843
362														9.510579096606666	-1.8159357544388852	0.32179188053702296	0.21150874534665057	0.040715211043718946	0.9765276863620157	0.8794522370244322	0.4279762457385963	-0.2083268966701582	-0.42641272663302143	0.9028724188240342	0.05471363534101978
363														9.59579809363627	-1.8733837350774474	0.41535339939176846	0.21137668045825775	0.04164440468137409	0.976517097913386	0.8796251493083164	0.4274713118165308	-0.2086333489118562	-0.4261214564684225	0.9030692227800636	0.05372600119720544
364														9.64431126534504	-1.950910129724825	0.5519112586671597	0.21146277874248653	0.04265101417542	0.9764550087926809	0.8800163037041762	0.42638685438616253	-0.20920218837649046	-0.4252702651506984	0.9035348036442656	0.05263136120387833
365														9.684428046600196	-2.1290207192373036	0.6290902169109455	0.211762641307446	0.04368353596916247	0.9763443718441387	0.8804247686780391	0.4251591567840287	-0.209980756501437	-0.42427445179354845	0.9040638473514607	0.051572758965943696
366														9.704859325534356	-2.2029486784802197	0.7465436415971657	0.2122022391784325	0.044536379736140885	0.9762103874512184	0.8808257103842255	0.42391751974841796	-0.21080797986906102	-0.4232213104438197	0.9046051333760761	0.05072745859855374
367														9.653449506119307	-2.3065604137045357	0.8631062649166925	0.21278372579291177	0.04530289282744382	0.9760485305245599	0.8810557113928636	0.4229901662685337	-0.21170770572214337	-0.4224499017158157	0.905001086817902	0.0500910510841437
368														9.60872119322439	-2.345800706660283	0.7831547492567125	0.21337263298369202	0.04597348341221663	0.9758885993373183	0.8811562728653282	0.4223543993443747	-0.21255677863699252	-0.42194281873695827	0.905264160440144	0.04960904694621013
369														9.514112645744731	-2.3152090354618564	0.6498551399398105	0.2137498247809291	0.04655591942822662	0.9757784373372442	0.8810684981436685	0.42223915660919875	-0.21314876543112482	-0.4219352011683573	0.9052881535688759	0.04923459173053826
370														9.465916291625408	-2.3236772810007844	0.6197222137905724	0.2139114790043684	0.04718638550814003	0.9757127262533991	0.8807107133858563	0.4227924701340728	-0.21353024733115727	-0.42259971424214154	0.9049972222170664	0.048882607355315744
371														9.487534693248612	-2.1897090005122153	0.5815139077928668	0.2138394210062792	0.04770023028728265	0.9757035359443151	0.8800114634839762	0.42420793944736285	-0.21360582446790405	-0.42409023351226777	0.9043076424206327	0.04873563069405651
372														9.50594583065049	-1.9873917078051095	0.6081468698442594	0.21365997445495255	0.047985705056122985	0.9757288493358062	0.879233799291038	0.42588319888255577	-0.21347465211075706	-0.4257902552902736	0.9035047719961575	0.04880353962588613
373														9.543321632684952	-1.8895785922864075	0.5961280238987138	0.2134518570587419	0.048212388724652055	0.9757632245025625	0.8783983949936797	0.42769799069459125	-0.21328546229956108	-0.4276149721311247	0.9026350283083817	0.04894324549950721
374														9.68640727473251	-1.796538199342405	0.7094163251973352	0.21332388498285254	0.04834093492954472	0.9757848503158679	0.8776289526577394	0.42934915310481797	-0.21313546440012204	-0.42925556671137394	0.9018439214954626	0.04916502526170502
375														9.743085355730281	-1.7263037345948395	0.6904947301112881	0.21331193307543356	0.0483124047208372	0.9757888761190671	0.8769707842788192	0.43074095781151694	-0.21303631330130013	-0.43060453170979807	0.9011815237862498	0.04951361890711009
376														9.726535089020418	-1.730738552999282	0.7460467730468677	0.21352592397561976	0.04816871239710474	0.9757491762417034	0.8764828197961089	0.43169458753368006	-0.21311417056682908	-0.43149107336377135	0.9007327895886386	0.04995893681064094
377														9.718154184036027	-1.750873126288735	0.7232481305420018	0.21381530241004373	0.04792572854769306	0.9756977713403236	0.8761565502547654	0.43229636684555595	-0.21323590377279655	-0.43201008773056504	0.9004570926786603	0.050441137415052684
378														9.629755691350375	-1.859037863409035	0.6555322021058126	0.21412995429074067	0.04759824805242724	0.9756447967666232	0.8760978751035671	0.4323468773481328	-0.21337453195340234	-0.4319732351829918	0.9004502120770801	0.050877693106916075
379														9.624371899799387	-2.0246765429068443	0.5391029433704808	0.21434320028039103	0.04731225215494733	0.9756118814823787	0.8760624726428272	0.43238599942461886	-0.21344060421697908	-0.43193927411210914	0.9004464994088212	0.05123051026394401
380														9.535322764979036	-2.136927891573828	0.5616884574608115	0.21444974461218402	0.04701131452724322	0.9756030152383653	0.8759441794660539	0.432649789410969	-0.21339155133740928	-0.4321262564289644	0.9003355463542829	0.05160234951651087
381														9.45106398066955	-2.2353760380167276	0.5524882369540156	0.21436805849446539	0.04676799370294482	0.9756326615393287	0.8755952229883546	0.4334664172508311	-0.21316629798282277	-0.43287335443208635	0.8999553432702809	0.05197152241356459
382														9.428985119296863	-2.1727422603142816	0.52001715650348	0.214100464609204	0.04662886277485906	0.9756980784087083	0.8750634549931156	0.4347216774741488	-0.21279335720264636	-0.4340794176065411	0.8993568881653071	0.05227089936073971
383														9.36439134465747	-1.9872102425757396	0.5642793662336967	0.21358998110591043	0.046632122766325945	0.9758097996523105	0.8743816063959233	0.4363602372529334	-0.2122417247881473	-0.43570187785647735	0.898562846144258	0.052427904416152624
384														9.330251288151565	-1.8793345973368265	0.6549968050373381	0.2129051950484376	0.046713851500384596	0.9759555286996368	0.8737536663570051	0.43794056648781404	-0.21157171538753594	-0.4372938467999278	0.8977894387340125	0.05242342270959355
385														9.388507773578807	-1.7642910438519839	0.6470889840219752	0.21207780078753685	0.04689025242418021	0.9761272000311837	0.873191033136543	0.43942181068862474	-0.21082194368961443	-0.4388170758562825	0.8970561724433577	0.05224746327061765
386														9.429824811840527	-1.732241602365616	0.6596559847527756	0.2112148769117816	0.04700399367555885	0.9763088140284764	0.8728402871481565	0.4404928450482768	-0.210037821814071	-0.439929663585289	0.8965247782631687	0.052011662710507264
387														9.388530750881829	-1.7167330495195943	0.5982830998191624	0.2103085544161188	0.0471098137725946	0.9764993483795645	0.8725399301927005	0.4414772989411982	-0.20921726682781616	-0.4409584812187199	0.896034854213772	0.05174125892732534
388														9.377540539587695	-1.819543045944618	0.5707812099448891	0.20938910877776662	0.047153328062169264	0.9766948166023586	0.8723589066233093	0.4422344312602436	-0.20837141320947528	-0.441753482340816	0.8956591268225825	0.0514644477204607
389														9.307662182529342	-1.879621164398866	0.5509795124219261	0.2083855061345588	0.047279309779371614	0.9769033461401544	0.8721501124293216	0.443063031841024	-0.2074833275358811	-0.44263942687312174	0.895242881391763	0.051093258800044214
390														9.272992744723874	-2.0063140937214463	0.5476046773597706	0.20735322222043256	0.047453890561604095	0.9771145119715354	0.8719251539943389	0.44392228497495856	-0.2065902484014202	-0.44356641787533096	0.8948078750062383	0.050672475369457584
391														9.237889266241579	-2.1761672882673837	0.620239491105865	0.20616005749072014	0.04779876513962561	0.9773501464401333	0.8715037023617442	0.44520476809413567	-0.2056064474573185	-0.4449486795858542	0.8941521081546326	0.05012663979792657
392														9.28306321020764	-2.332259187784993	0.6157289838851708	0.20500712318338726	0.04823835898941975	0.9775710409817175	0.8708811892764083	0.44684552206268685	-0.20468276326313578	-0.4466968027740735	0.8933096552341366	0.049596635540002085
393														9.37192008216279	-2.4924561554188394	0.5799593937728251	0.20401565983532666	0.04880963931901161	0.9777500854776253	0.8699095567820442	0.4490758899696004	-0.20393187114151218	-0.44903783087978594	0.8921594387538356	0.04915854230159172
394														9.515707062481926	-2.550135563877396	0.6295710305100004	0.20341479394351014	0.04933126265684751	0.9778490927180941	0.8686469416752203	0.4517141363453344	-0.20348668198207553	-0.4517465133492511	0.8907978252950941	0.049033887530209305
395														9.678390441428682	-2.596448602269266	0.5981698215842632	0.2034889784866472	0.049906787202283864	0.9778044529585689	0.8671822258758404	0.4544411189911905	-0.20366211354853658	-0.4545186715190953	0.8893776374303437	0.049195480273457826
396														9.839234329091676	-2.5703534609963614	0.598850519221075	0.20444793274767264	0.05041401583560334	0.9775783701588996	0.8656857703882846	0.45686308126574166	-0.2046076047550876	-0.45693455739574446	0.8881072863025614	0.04976201637650142
397														10.121765170452441	-2.4228686679486886	0.4452283744922399	0.20659224134065152	0.050763545050728	0.9771093635370245	0.8641684373830897	0.4588564861269793	-0.20655177793974666	-0.4588382695991205	0.8870590665976444	0.050927936520154635
398														10.439576446297812	-2.506096299909575	0.41155924758973095	0.2099825999738184	0.05051136937090939	0.9763994619378442	0.8626723836235818	0.4604042826406328	-0.20934243492271853	-0.4601126668995799	0.8862711199686247	0.05310212489266719
399														10.555881369212818	-2.5278859506441655	0.5754664713777676	0.21475877288163064	0.04928549679785532	0.9754227848865153	0.8610045776279186	0.46189004417892	-0.21290538835869144	-0.4610312210405561	0.8855667828536616	0.05675990074048741
400														10.55672760392394	-2.1860459047041667	0.686388338734602	0.22067739428091937	0.04642524178235058	0.9742413379542225	0.8595212864289521	0.46286410578533244	-0.21674865109398855	-0.46100395424432383	0.8852126956280025	0.062240161231333926
401														10.411101062875865	-1.9857589065738945	0.8736173453365379	0.2276362241230675	0.041982733145932094	0.9728407884050657	0.8589977885340239	0.4618582263680717	-0.2209293507657944	-0.4585897390485846	0.8859596090419339	0.06907258780163515
402														10.099447421245785	-1.9089987168995197	1.62796403519199	0.23506716310134487	0.037334022199704164	0.9712618594477376	0.8592317649974431	0.45915595305541557	-0.22560271450749597	-0.4543833214928376	0.8875708318552182	0.07585390951672541
403														10.116410294021176	-1.6829395740260658	2.337817804666035	0.24262340677927646	0.03355274340335007	0.9695401466122622	0.8594922167678634	0.45604141713928786	-0.230866531071644	-0.4498966679119573	0.8893258341371284	0.0818080004523945
404														10.401967593738283	-1.4210674196988153	2.6452124095517955	0.25056314377414624	0.030199375220012814	0.9676291173369775	0.8597947103682914	0.4524352248578605	-0.23676026552300522	-0.4449395093770874	0.8912857931349174	0.08739832922395395
405														10.586948135005066	-1.4376933294530647	2.5481943465314374	0.25889476495478425	0.026258333997765337	0.9655485490510918	0.8602565036879378	0.44830846039015226	-0.24285442595352497	-0.43924053608656366	0.8934931584731205	0.09347581088236198
406														10.488575267958172	-1.5796359939683096	2.455630427553261	0.26716444401153683	0.020884170597488205	0.963424626670121	0.8612505120495999	0.4433112566573819	-0.2484405063896687	-0.43228545586256845	0.8961244228003766	0.10045050278810719
407														10.356958487717444	-1.7420401899176883	2.4855586396236724	0.27526915780830674	0.014180258797114098	0.9612626129315298	0.8627861275270063	0.4374092099124529	-0.2535217569178546	-0.42406012416455474	0.8991507678605465	0.1081707342553049
408														10.42375159189708	-1.724498712755798	2.5188598344860456	0.28341397518990374	0.0062538875071288524	0.958977271658773	0.8649121742665483	0.4302858347425711	-0.25842026086473957	-0.4142504670758596	0.9026710305038798	0.1165399554508888
409														10.61620293168575	-1.59079676567208	2.602406866379312	0.2919859536619817	-0.00277509920889496	0.9564185807942485	0.8672696451267513	0.4223598887926275	-0.2635440892541486	-0.40322148442986316	0.9064239753909098	0.12572991422377372
410														10.607753076287613	-1.6122456949534216	2.7895968485736975	0.30115143205088213	-0.013542884034367597	0.9534801546260596	0.8700471959166285	0.41315107126186856	-0.2689313466161622	-0.39028924127025966	0.9105617950513858	0.13620398504259335
411														10.525864241753997	-1.606543610283829	3.02741969328172	0.3106495782180228	-0.025838196996965546	0.9501732616364814	0.8731409990381952	0.4028259582023361	-0.2745105520684971	-0.3756615968548632	0.9149118181411335	0.14769810315010284
412														10.4162871198522	-2.008884026631369	3.140870394891257	0.3204638834794354	-0.039726819850768924	0.9464273237654459	0.8766269074729864	0.39101412052420104	-0.28041615974304007	-0.3589264053808628	0.9195269095220817	0.16013150278799745
413														10.510505098918125	-2.5390581347832573	3.2088697374656237	0.33066499351208145	-0.055056064714368524	0.9421409086775838	0.8802004427454645	0.3781218873818945	-0.28682925037980916	-0.34045240879797634	0.9241172371625379	0.1734920439753202
414														10.528170532686854	-3.059462579982797	3.3840819567988523	0.34115494776464694	-0.07164446348145442	0.9372728377949266	0.883475437483894	0.3650033307473144	-0.29367281097508535	-0.3210676766327351	0.9282454629007463	0.18781881595259908
415														10.491673407710039	-3.544715788755785	3.544441511115319	0.3517928218357592	-0.08918299096247062	0.9318198348542608	0.8860804926460984	0.3527038112756691	-0.3007679870991342	-0.3018330185000997	0.9314753972245351	0.20310197760857318
416														10.44882939245181	-3.8967400241645405	3.6933233709412856	0.3623615660636188	-0.10764794151037071	0.9258002031369952	0.8879552997322162	0.34174059370689325	-0.30781285270490266	-0.28324809110988136	0.9336087442293157	0.21942021689253802
417														10.36110300693152	-4.122206066752405	3.6702597466526736	0.37300866117171727	-0.12684966867390562	0.9191157164624069	0.8890094519720224	0.3324016081188796	-0.31491485392783136	-0.26556869731820343	0.9345685274378243	0.23675923324637066
418														10.377928491853185	-4.0682913222682044	3.6817164788519303	0.38379776599528326	-0.14668820178387354	0.9116917495921768	0.8893085509094187	0.32457402022491	-0.3221521483312359	-0.24865553703149396	0.9344165435460003	0.2550218560263532
419														10.35632572222476	-4.044198697726396	3.823962573184322	0.39484061985019103	-0.16677475148999138	0.9034860636345033	0.8889029598911262	0.31796249907297525	-0.32977473687361847	-0.23227658688105668	0.933319897703205	0.27379108045764955
420														10.387918482239497	-3.9482274737914684	3.8993885085480686	0.40620670882438126	-0.18732979205242306	0.8943733329631758	0.8879542305557933	0.3119765184380927	-0.3379466472408255	-0.21571600344928726	0.9314387800348674	0.2930672361473128
421														10.402754605050477	-3.858613834479867	4.048804258657084	0.41786023310409837	-0.2084737541027688	0.8842689180563158	0.8865062622298341	0.3064842754622334	-0.3466612697168216	-0.19874474236436457	0.9287658923241575	0.31288087931005665
422														10.294978316816474	-3.838801547598816	4.2643665516854785	0.42948669162097314	-0.23054570842994843	0.8731493904510295	0.8847242470970746	0.3013291238044892	-0.3556174429717044	-0.18111926545507412	0.9252293961346841	0.33338622678398444
423														10.162137502427132	-3.859110139495395	4.525301354288787	0.4409602763819116	-0.25320243561953376	0.8610705901664069	0.8825876567699802	0.29664169840299803	-0.3647502308235879	-0.16307379547451517	0.9208106370828482	0.3542805496560817
424														10.005054086825549	-3.7910480714569275	4.579048903942154	0.4522344553862726	-0.2763535992613328	0.8480051211736799	0.8800983213297764	0.29242383238622704	-0.3740524656315752	-0.14460616222689254	0.9154872967047976	0.37546247138449296
425														9.948605927070671	-3.7582023323472895	4.736542657105871	0.46324586622930686	-0.29977022021730143	0.833991056602125	0.8772427284264166	0.28878418474416284	-0.3834695425514586	-0.1258906781474891	0.909253270388685	0.39674932569954735
426														9.758074439521536	-3.566245801268017	4.779608519695836	0.47412398974482206	-0.3234244987152659	0.8189035571904861	0.8739975195284886	0.28535130986498297	-0.3933229790088405	-0.10646491537826991	0.9022035377835306	0.41796411114398374
427														9.543423972851395	-3.450673303136011	4.776540282533951	0.48495908239768315	-0.3472807485472993	0.8026274167310912	0.8703121930878737	0.2817496603102053	-0.40394778805887743	-0.08585671180852983	0.8944345759212976	0.4388797266152945
428														9.18822966648302	-3.601705612038592	4.692200792175557	0.495562908783999	-0.3713998441662625	0.7851621228706956	0.8662235371053202	0.27775944476490044	-0.41533898758561283	-0.06382936003352513	0.8859525080935038	0.4593625650839872
429														8.901399909035218	-4.05182881464474	4.711980287395315	0.5058236578341686	-0.39542878286277383	0.7666671408498782	0.8616544762899936	0.2740071168452488	-0.42716702050552857	-0.041158117846646636	0.8766733585559784	0.47932226292287117
430														8.757939055057859	-4.240461571724031	4.808589241476199	0.5155496483915787	-0.41915878779950955	0.7473382571859712	0.8566542902308387	0.27123303376883046	-0.4388348988191959	-0.018761318514886882	0.8664517020601907	0.4989082690481095
431														8.890800831376302	-3.818875943255567	4.808290553630393	0.5252926799430582	-0.44229452747347686	0.7269409545246802	0.8509143235982239	0.26949845047581666	-0.45090508877868113	0.003523392344940479	0.8554216130997316	0.517920311967233
432														8.576311272979837	-4.078104439546286	4.741471876478726	0.5346432288614872	-0.46553449833705296	0.7052901875757475	0.8446535938759231	0.26793210948973695	-0.4634357464167692	0.026775439960005976	0.8434986754953734	0.5364634752268788
433														8.06479183592688	-4.285865241968771	4.911344267773136	0.5433233821642713	-0.48835965754061184	0.6828649553758008	0.838013197589668	0.26672015120522125	-0.4760191609658219	0.05033471028145786	0.8308821852873494	0.5541671328335898
434														7.870880812929796	-4.45593106407492	4.867154136383842	0.5510527947743478	-0.5103871286633888	0.660186183031819	0.8311892603530737	0.26562635703575954	-0.4884332625053518	0.07392719962971245	0.8178921795338632	0.570602446377735
435														7.727962450288539	-4.438789342993635	4.752222936877636	0.557744755013966	-0.5318846949565698	0.6371965627068052	0.824242082928787	0.2645595646322838	-0.5006328250232811	0.09770249220785349	0.8044295544250802	0.5859584584113802
436														7.323275069765242	-4.484634019553303	4.698532497153071	0.5634993271846072	-0.5529620570422319	0.613760109272441	0.8171492174136449	0.26391534469837047	-0.5124605812284571	0.12139054634839966	0.7903047857025565	0.6005686313427245
437														6.751871113230003	-4.409035636914566	4.928450560394945	0.5684657322600286	-0.5734441151788758	0.5899225017006777	0.8098536802160727	0.26378798989090346	-0.5239779699851893	0.14485761245634557	0.7756144294403201	0.6143602599105955
438														6.421483856638976	-4.566056679358321	4.989864879573357	0.5727737474744562	-0.5931256614334192	0.565802248098431	0.8022180596311631	0.26375340135135017	-0.5356121059845517	0.16845301720563205	0.76068133474193	0.6268871413337144
439														6.128149093143859	-4.950851034599236	4.999881330978342	0.5768550862498474	-0.6118088759888509	0.5412283332651209	0.7940055861480126	0.26438574637991286	-0.5474078061892141	0.19181589775989044	0.7455132972472028	0.638291927721299
440														5.9003962471795655	-5.093118935299835	5.090948223751308	0.5805501776916512	-0.6296690008342534	0.516215498189066	0.7853680378873094	0.26575942967495786	-0.55907868015502	0.2148453775328442	0.7299923800473773	0.6488085918246886
441														5.625704351738394	-5.235668800903348	5.211311356152563	0.5837752491182466	-0.646588920382299	0.49104910808979413	0.7764054510128426	0.2676631170882571	-0.5705707943701138	0.23748901901871983	0.7143383118589196	0.6582702652072894
442														5.3448028026919925	-5.393055567488297	5.219476466797989	0.5863622728478901	-0.6625076251992298	0.4661147192843557	0.7674155393430181	0.2701082225584144	-0.5814765155027323	0.25933120706062657	0.6986595699331767	0.6667999178053844
443														4.998305492911384	-5.553055086997615	5.28601441937916	0.5882358894243063	-0.6775186149291446	0.44152810195692943	0.7586555754328497	0.27326788958990755	-0.5914104990475987	0.28003616955287564	0.6828566371820454	0.6747492547595599
444														4.400957214426748	-5.7116666101147855	5.449872387240264	0.5892910214738691	-0.6916616215192533	0.417540768461764	0.7504330133914945	0.2771333135506644	-0.6000395144759963	0.29930984685179374	0.6669342755008064	0.6823578883106498
445														4.050887612090939	-5.826607075616374	5.388055764997624	0.5899729917495056	-0.7045512074307971	0.39438491998800335	0.74276288290518	0.28205307895351783	-0.6072473634617334	0.31659938216067923	0.6511940238981363	0.6897181848079907
446														3.7565701950781456	-5.760528335592715	5.297980024425555	0.5905449798440217	-0.7163302485489516	0.3716552189796641	0.7355540961571216	0.2883232704998559	-0.613049641802968	0.33198915405100876	0.6354059070405821	0.6971675084873299
447														3.507902710983687	-5.500992943640278	5.434203283023087	0.5907757131465858	-0.7271865995801522	0.34954785959464674	0.7289080622072955	0.29527304799286214	-0.61766241910789	0.34594377231762485	0.6196882091181507	0.7044923206640303
448														3.3486886409535592	-5.259991124027473	5.434149698593403	0.5909138920521404	-0.7370560582709828	0.32797734547653373	0.7226378269425492	0.3028680438543422	-0.6213417087912215	0.3586298136679969	0.6041682836576964	0.7115935228559713
449														3.273542681368162	-4.7161516976225375	5.498846057509282	0.590584624878361	-0.7463515779076823	0.30686987961023315	0.7161972247301586	0.30954539328566355	-0.6254943523201812	0.37184853925503714	0.5891867035586744	0.7173476787468949
450														3.1082849510569943	-4.61385077184378	5.619018173063295	0.5900623024502034	-0.7549761949676579	0.2860724108671127	0.7091542831019	0.31529543089777434	-0.630625874836434	0.3859101993798499	0.5749780311343593	0.7214385502088592
451														2.8208958155615917	-4.72182676321755	5.820271040019657	0.5895699977524242	-0.7626251683225759	0.2661016166639514	0.7013618821158932	0.3199544090343155	-0.6369620761508124	0.4006229250368203	0.5621672605021251	0.7235117436189116
452														2.584604770919882	-4.853831803982257	6.144637515647901	0.5892303340944929	-0.7692848696660373	0.24699879085898316	0.6927225104277206	0.3236534206015824	-0.6445028990467082	0.41586432514656546	0.5508622810066076	0.7236073593010153
453														2.194944145103217	-4.97018203790539	6.526647725020074	0.5892526136790057	-0.774853343087856	0.22887475609606667	0.6829912253842177	0.32637869736389513	-0.653452318042573	0.4316298684296831	0.5413679364467575	0.7215375347594568
454														1.938428999922709	-5.396737587102075	6.328137595190713	0.5896676863839247	-0.7794195065251527	0.2116536143861395	0.6723180797984677	0.32849653945406554	-0.6633840691053747	0.447527003889967	0.5334747008198146	0.7177216203894645
455														1.8245183664934848	-6.071582107641116	5.991034806805143	0.5902002619245321	-0.7834393808034414	0.19464425866316654	0.6612459940763342	0.3308769984558585	-0.6732563755441475	0.463052249905142	0.5260638254994937	0.7133298433113702
456														1.263094491232621	-6.5295300934910125	5.957381753516595	0.5904348467900437	-0.7871620292206769	0.1782207379886101	0.6508923083567881	0.3338505102275505	-0.6818233200344329	0.477206343857655	0.5185747550488659	0.7094746851072412
457														0.9530916053133409	-6.685712065498058	5.772926712288813	0.590569952475191	-0.7903635015731814	0.16294988988775483	0.6422507378578519	0.33807090709963294	-0.6879113689232627	0.4886114212280517	0.5109144714664208	0.7072660616003658
458														0.8330335677601817	-5.547975765775433	6.407231839459584	0.5904956891561486	-0.7932480643025318	0.14856765990043985	0.6343872264383444	0.3424421108899487	-0.6930268736644359	0.49886640297766216	0.5034788070708872	0.7054370296565147
459														0.6227880400111926	-5.859118139596326	5.746047242121316	0.5904544092161252	-0.795753804527273	0.13468286163283047	0.6265147676870955	0.34673396023476016	-0.6980363935282354	0.5087659938588882	0.4965394681193947	0.7032821056251093
460														0.49349549558480194	-5.962110331453809	5.677552021420731	0.5903229671930452	-0.7980241305419803	0.1211457035025007	0.6199427663892089	0.3521454210657776	-0.7011879696801004	0.5169040150802604	0.4890307653871309	0.7026088169805322
461														0.46023233187527024	-6.051371414320254	5.548635158024328	0.5900215058198723	-0.8001019395727428	0.10821972538306118	0.6140594113767498	0.35766493362616397	-0.7035672210626582	0.5242190972958634	0.48157313208496877	0.7023401287725084
462														0.45815863049323674	-6.094262777602469	5.477001083381227	0.589587654746311	-0.8019436485625937	0.09629528493576286	0.6092117782078006	0.3632464923879332	-0.7049205593971227	0.5303276408633008	0.4742766811661502	0.7027191637050945
463														0.39039835511111126	-5.986960589350101	5.336947822983725	0.5892072468856476	-0.8034239693684209	0.08570149159569004	0.6056645653390402	0.36897350394228334	-0.7050028281370402	0.5347945909506816	0.4672991320694318	0.7040072916220744
464														0.4860935996915793	-5.402023796284603	5.442218813835046	0.5886526654512922	-0.8048001209718469	0.0760579038679737	0.6029694483349763	0.37445661174425454	-0.7044218127625146	0.5384383751477076	0.46052037002147195	0.7056947675614318
465														0.27897623207060557	-5.28430307008687	5.5372363315812665	0.5877413636404749	-0.8062409792497863	0.06734666171667811	0.600190390999593	0.37868148392337114	-0.7045366053551434	0.5425233488226942	0.45450612439431337	0.7064648603223447
466														0.1074302854621488	-5.413172068089027	5.451928579279528	0.586613463683085	-0.8076613219021747	0.059731342936238246	0.5973001554498187	0.3816583134876574	-0.705386033350094	0.5469160525394706	0.44946648467821204	0.7063021383414142
467														-0.03889201012099722	-5.40280244125011	5.289275167822409	0.5853410152228681	-0.8090380753656878	0.05322864366528926	0.5945504160132595	0.3836685364257688	-0.7066174757075919	0.5512582867552404	0.4452593028399213	0.7055908548997677
468														-0.3115095444703364	-5.3476288129443725	5.303500310116767	0.5839359258965511	-0.8104092899315226	0.047493338901608784	0.5917653988493982	0.38488443265005196	-0.7082920910389021	0.5557270437651477	0.44170211262380565	0.7043200242302619
469														-0.3268490545998927	-5.565164285405757	5.38695235948209	0.5824426316210617	-0.8117565449072836	0.04256633259423043	0.5890154058173981	0.38537691859934087	-0.7103136506647215	0.5601976727728339	0.4387891776366727	0.702597057358508
470														-0.2670462941026412	-6.001604914205922	5.618383882208637	0.5809156415774293	-0.8130667331946723	0.03820346506309308	0.5860506517151626	0.3852240579505116	-0.7128443440193475	0.5648731282287347	0.4364915950488442	0.7002809696520382
471														-0.25716005379248974	-6.5057005218723845	5.638657729961884	0.5793957739179298	-0.8143210913762723	0.03437582443811815	0.58289672523255	0.38451848046647796	-0.7158051032878435	0.5696770531443344	0.43477200728601184	0.6974534800266463
472														-0.32368358350113147	-6.886648933339157	5.817674003775317	0.5781106134778309	-0.8153636603399217	0.03114835439266178	0.5797215634057147	0.38357254913764577	-0.7188845585144266	0.5742046912963354	0.43365216584854394	0.6944312576116853
473														-0.41360457097310316	-7.13370557304843	6.018571022380694	0.5772568247007481	-0.8160614750466902	0.0286046723636304	0.5767144954037279	0.382649896284279	-0.7217890603665691	0.5780786703621177	0.43315439027932223	0.6915217459011069
474														-0.3619786544711036	-7.4764870665014485	5.989776602212145	0.5766895428917724	-0.8165294589815107	0.02662355601041394	0.5741676685492015	0.38190345852012797	-0.7242107681905449	0.5811717986207285	0.4329311619480932	0.6890645466879146
475														-0.22370911855942743	-7.483893680006193	5.990515016690367	0.5764309378384018	-0.8167604780072146	0.025093733643415272	0.5724997683477604	0.38174997902683344	-0.7256107556774313	0.5830706553621963	0.43263064509860893	0.6876476828849643
476														-0.12854976093153225	-7.335343304381621	6.0240782167213105	0.5762742169619965	-0.8169096484928973	0.02380447571464045	0.5713479245916058	0.38187859057237983	-0.7264504739673019	0.5843539817009058	0.43223531584272923	0.686806418001924
477														-0.07165739344105528	-7.119964508553696	6.034678113972401	0.5761426817586893	-0.817025356214295	0.023003859650296443	0.570632707551587	0.3819248987023232	-0.7269880912529211	0.5851819574527661	0.43197562321747396	0.6862646265236351
