// Start Time: 1748433505.005953
// Update Rate: 100Hz 
// Filter Profile: 46.1 human
// Option Flags: AHS Disabled ICC Disabled 
// Firmware Version: 4.0.2 
PacketCounter	SampleTimeFine	Year	Month	Day	Second	UTC_Nano	UTC_Year	UTC_Month	UTC_Day	UTC_Hour	UTC_Minute	UTC_Second	UTC_Valid	Acc_X	Acc_Y	Acc_Z	Mat[1][1]	Mat[2][1]	Mat[3][1]	Mat[1][2]	Mat[2][2]	Mat[3][2]	Mat[1][3]	Mat[2][3]	Mat[3][3]
0														9.300739116467541	0.98754067174241	2.680729080847461	-0.2771515752798166	0.1347384942189382	0.951331983324186	-0.18544721919195867	-0.9790030044710993	0.08463123613968027	0.9427599552451758	-0.15296619042185053	0.2963191039638524
1														9.298069483801163	0.8795862771752689	2.6888851374979237	-0.2761600304695555	0.1356205004026714	0.951494990760111	-0.18725896808504813	-0.9786142742859263	0.08513624983256826	0.9426928006740997	-0.15466474076000503	0.2956503027613254
2														9.33810954988643	0.8177459079735712	2.77497807418908	-0.27496349743454185	0.13668513713871952	0.9516891553253796	-0.18933494781559743	-0.9781581784310556	0.08578377179924203	0.9426278972183192	-0.1566006106431545	0.2948370670929309
3														9.415456966286134	0.6327432374067073	2.8806431193432793	-0.27375831206610224	0.13793766208066094	0.951855865115323	-0.19148130764300447	-0.9776676825196124	0.08660722475668775	0.9425451158422304	-0.15855315807782494	0.2940571384365709
4														9.393826715088169	0.457120418024854	2.8094862127874394	-0.27260978221728127	0.13913827385496882	0.9520107391138537	-0.19343982847569371	-0.9772088633824842	0.0874292290141421	0.9424780843068663	-0.16032273100023217	0.2933115792564053
5														9.404230726080732	0.29624892583317325	2.832643911500915	-0.2715614167199149	0.14022724302640857	0.9521505748894369	-0.1952714827338404	-0.9767787068104047	0.0881612497229978	0.9424030162197062	-0.1619866606699634	0.2926377911087253
6														9.449609008277653	0.11014575375432169	2.791043547464375	-0.2706534091904244	0.1411119261401888	0.9522784027765235	-0.1968685504870012	-0.9764061970777307	0.08873394016581651	0.9423319510250875	-0.1634575253979135	0.29204816634939296
7														9.57587929791251	-0.027576447940180403	2.7845860914372755	-0.26993724208456	0.1418546869768909	0.952371321028972	-0.19790321824393525	-0.9761451463878712	0.08930268412592078	0.9423206468843152	-0.16437122913116192	0.291571427765884
8														9.528843752547317	-0.06709633649347203	2.733856187717678	-0.269357835561742	0.142520552969309	0.9524359550136775	-0.19874725890074602	-0.9759254474613548	0.08982788028665914	0.9423088047455216	-0.16509819193036887	0.29119873543748376
9														9.505953465057985	-0.16114484279350846	2.633238358473165	-0.2688125330023738	0.1429828754777018	0.9525207186308211	-0.1996297195152076	-0.9757177236128705	0.09012712640486131	0.9422779829684695	-0.1659241427515789	0.2908287841067772
10														9.393969608642886	-0.3497791183710468	2.5642217123289304	-0.26813360289431243	0.14351008225308462	0.9526327872221425	-0.20059771859843076	-0.9754854557034622	0.09049133109924441	0.9422658469306948	-0.16683219714048358	0.29034822490461154
11														9.389537005770231	-0.6854919906344881	2.592724663913641	-0.2669016020042563	0.14413318472653888	0.9528846519427974	-0.2015046089935861	-0.9752442728400409	0.0910741502680148	0.9424221068087817	-0.16770281259801334	0.2893377597978045
12														9.537062071443035	-0.6534010841362687	2.7289947553012452	-0.2650680270658923	0.14494717653119119	0.9532729184462504	-0.20235704790518463	-0.9749826650186855	0.0919805853219075	0.9427568966549619	-0.168520381345099	0.2877678141849922
13														9.549210773503486	-0.3507222091637307	2.8643219046178183	-0.26269781417728333	0.1455671600204693	0.9538343988083325	-0.20362513509269267	-0.9746539192878659	0.09266359573902361	0.943147211619141	-0.16988213425895504	0.28568058680047226
14														9.900080533376114	-0.21972296729725327	3.012731930852511	-0.2602842962076709	0.14555816009535036	0.9544972012412265	-0.20561586566813864	-0.974251372514273	0.09250069696817402	0.9433844396285218	-0.17218328950195005	0.2835113999173018
15														10.177669874532773	-0.24250853102060846	3.0189327453333643	-0.258532771600473	0.14470163052286125	0.955103263596457	-0.20742551383386568	-0.9739703937907584	0.09141295438739444	0.9434699053066476	-0.17447954075793642	0.28181807542733156
16														10.176573141343567	0.08046344467408838	3.0350072863765374	-0.2575424637469506	0.14294333762875985	0.9556354334131297	-0.20876876305503947	-0.9738695162561245	0.08940787929220802	0.9434444779315944	-0.17648050185392045	0.2806548583683685
17														10.166562378234254	0.4084199678798728	3.0400807500040408	-0.2573232580707307	0.14039352450860898	0.9560723817430953	-0.20949651490656696	-0.9739638014658978	0.0866355797354644	0.9433429657859685	-0.17800048233122304	0.2800354927361624
18														9.926292545094377	0.7385319040508848	3.030000427113379	-0.25765747011163204	0.13749211253748794	0.9564039664731907	-0.20975293911544246	-0.9741790664430849	0.08353951781350452	0.9431947479858582	-0.17908396213524566	0.27984388840536606
19														9.797644174116954	1.0654835679434456	2.9731652114194502	-0.2583887246378485	0.13438165846723657	0.9566487531208206	-0.20932592907442568	-0.974538627642392	0.08035619857865123	0.9430895622352918	-0.1794882533774233	0.2799393586160533
20														9.458160493091087	1.4788961650178611	2.8170600119543407	-0.25926434982393676	0.13143502972812715	0.9568212110267719	-0.20871017628628108	-0.9749125006677443	0.0773671658800785	0.9429857152814783	-0.17963977566823122	0.2801918838456009
21														9.317551085748725	1.753848409879322	2.7580429656326837	-0.25997362779210353	0.12888631253887056	0.9569754601308991	-0.2084637383393514	-0.9751727821442085	0.07470552029607377	0.9428449409368413	-0.18007321679044117	0.2803873284307755
22														9.15931299464494	1.9214393388714561	2.619926943693618	-0.26050390092514886	0.12689042540050172	0.9570979769827439	-0.20886937731530486	-0.9752563435013255	0.0724475512377219	0.9426087740004854	-0.18103558877222242	0.2805616060247691
23														8.918822357020307	1.9863972321482979	2.5319048137835622	-0.2606909892382095	0.12538989055300093	0.9572447876468744	-0.20977231817259023	-0.9751970840543395	0.07061318418263315	0.9423565050757068	-0.18239523732548327	0.2805284205610535
24														8.732910551146052	1.9464266685345681	2.463225510258832	-0.2604321839890888	0.12435305300744613	0.9574504664735408	-0.21104272951862169	-0.9750221131347869	0.06923037783736968	0.9421443858878551	-0.18403314132487764	0.28017094609201426
25														8.659493563649882	1.8919725549252182	2.3922643817082636	-0.25974228507923885	0.12377047726373218	0.9577133257398706	-0.21225006151792258	-0.9748174732614574	0.06841641038366311	0.9420636160724251	-0.18550407753485013	0.2794716094534306
26														8.67470196908964	1.9017937389252437	2.424216912058626	-0.2586352991959766	0.12369118460994095	0.9580231066417958	-0.21344449376018831	-0.9745714828698897	0.06820463958002901	0.942098312329061	-0.1868446296433864	0.2784597893415872
27														8.61815662480272	1.8982617632328507	2.405588069750633	-0.2573134651696467	0.12385853697404878	0.9583573673014867	-0.21452182855489574	-0.9743265088923659	0.06832451348584768	0.9422155622339574	-0.18800775752149712	0.2772776900435464
28														8.535437937085726	1.9313984459441818	2.523448971225457	-0.25580674553874855	0.12423851961233667	0.9587114785906179	-0.21558173085163518	-0.9740657084345408	0.0687059893672235	0.9423839059851813	-0.1891052244028465	0.27595613391200785
29														8.633693130676253	1.9108496376971318	2.6137436037436403	-0.2540447455443687	0.12472868538199759	0.9591162715250822	-0.21652011549846928	-0.9738161825644048	0.06928984168129576	0.9426453770351956	-0.19006524568833771	0.274399153671445
30														8.6258937766635	1.8282213307072341	2.6985885921646875	-0.25225635343283775	0.12552394813346426	0.959484481686783	-0.21721441832041097	-0.9735918734760778	0.07026208348082372	0.9429658682192547	-0.19068980661358934	0.272860347114012
31														8.666670776939418	1.8796080714992551	2.7988070519732138	-0.25038647306244527	0.12661052878281132	0.9598314373413112	-0.21766680941891592	-0.9733920456476756	0.0716176343313841	0.9433598328234777	-0.19099135967674405	0.2712831110557565
32														8.71035791161686	1.8922487776398216	2.8970041889421103	-0.24856484396955086	0.1280954827562749	0.9601078406303273	-0.21830826941367756	-0.9731221107972822	0.07331341611906658	0.9436932858974881	-0.1913763432999991	0.2698482487938784
33														8.802727266620991	1.8573515278512143	2.965484316331327	-0.2466744452674463	0.1299781548561879	0.9603423333958462	-0.21901942142279784	-0.972802279380794	0.07540701738667822	0.9440244758964783	-0.1917326380450463	0.26843320289536976
34														8.797632662363467	1.720391976395546	2.9958337633492134	-0.2449808437394257	0.132193921090661	0.9604734006870757	-0.2197675616600611	-0.97244606916921	0.077787283018139	0.9442915889928867	-0.1920245030823642	0.26728259422053796
35														8.86276821294974	1.6639971761094605	2.9914832706317136	-0.2434279961908844	0.13450183540482336	0.9605477952414575	-0.22048172279314043	-0.9720849313065879	0.08024148703030919	0.9445266648351754	-0.19225020832082418	0.26628788334421094
36														8.928371027479615	1.5830910909593325	2.934209747091704	-0.2419643275693189	0.13694114672825608	0.9605729470043793	-0.2212918607192353	-0.9716876337567265	0.08278317935228731	0.9447132774357236	-0.19253639847313192	0.26541770607789045
37														9.092067907864562	1.4530272558530173	2.9249950726659972	-0.24065625001164181	0.1393714773111221	0.9605520082965056	-0.2220957837838456	-0.9712877340749929	0.08528540590807843	0.944858736613984	-0.1928100851812004	0.26470028125531864
38														9.15674599672077	1.3285085704213344	2.90206848257058	-0.23950886149030126	0.14171072036946503	0.9604965262821031	-0.22275147494400327	-0.9709221577842737	0.08770372816363498	0.9449959183392754	-0.192946197827003	0.2641107325842935
39														9.284775864350733	1.167224451964605	2.8876668391308664	-0.23860307942866954	0.14396415396546977	0.9603868454222824	-0.22305883954991604	-0.9706337707278856	0.09008239129381052	0.9451525403794887	-0.19272883929389728	0.2637086838134579
40														9.344793963090298	1.0414866617232275	2.9017781833584517	-0.2379326889636127	0.14627781032183113	0.9602035397404008	-0.22287754821250266	-0.9704376043181039	0.09260914980779913	0.9453642864130888	-0.19197306668590322	0.263500868389236
41														9.389062046704446	1.0345304550200374	2.8173486273379464	-0.23735493437338934	0.14866016095916681	0.9599806204669963	-0.22221965061445123	-0.970326136501658	0.09531849611988935	0.9456643495497732	-0.19070224268571345	0.26334690547876954
42														9.48185859964223	0.8912387942180158	2.768264051617352	-0.23704389935697234	0.15123226810215912	0.9596556626531823	-0.22137978976318723	-0.9702291839041848	0.0982156778983203	0.9459393101367808	-0.18916694157620734	0.263466676740447
43														9.455679803460717	0.8333885425458674	2.778917623273059	-0.23689316746091604	0.15387140428692508	0.9592732760549021	-0.2203292820659225	-0.970160851983555	0.10120735518161852	0.9462222966484408	-0.18738066127888645	0.2637268532099788
44														9.448964539681215	0.8106417460888712	2.708722682935563	-0.23687365859740506	0.1565952808609037	0.9588372061381301	-0.2192082180332324	-0.9700894826630773	0.10427920585226003	0.9464875207890355	-0.18548399833564583	0.2641156173951993
45														9.524739157306266	0.6977324650017407	2.629515806548474	-0.23697253667480844	0.15915508901201808	0.9583911907480591	-0.21802431434332914	-0.9700400489748049	0.10718069667658922	0.9467361909302017	-0.18355370066150786	0.2645725302378117
46														9.59477048599296	0.650502328033927	2.607709964566787	-0.23729534073924413	0.16147783085349224	0.9579226646271072	-0.21696173078879763	-0.9699891452201992	0.10976641347933663	0.9468994289979139	-0.18178550079101014	0.26520841439438975
47														9.586478142999546	0.611249621038965	2.43599165578382	-0.23769821742872593	0.16365492100360174	0.9574531969044285	-0.21612889831373527	-0.9699050735235615	0.11212692659189888	0.9469888366527329	-0.1802809340572621	0.2659152648317578
48														9.603787663382654	0.5098909930023715	2.405005139651434	-0.23813473918673184	0.1655934801757086	0.957011308875587	-0.21555400401375122	-0.9697948051986036	0.11416876614662225	0.9470101991774466	-0.17910007016497675	0.26663617069106266
49														9.519060426376106	0.46650964799834904	2.273177588138816	-0.23845894503415543	0.16707467979380672	0.9566730804747224	-0.2149838238259512	-0.9697316969450785	0.11576869798521014	0.9470582278964531	-0.17806315540227677	0.26715955094627375
50														9.619889387838507	0.2952138793447357	2.2843324876973403	-0.2387122341750907	0.16811797396393477	0.9564271096562448	-0.2139805348966877	-0.9697984022825767	0.11706147793142228	0.9472216213434236	-0.17671277758108833	0.2674767173028574
51														9.668278961781802	0.28534685232117296	2.312303757517302	-0.2389246780136267	0.16890360528956766	0.9562356249148384	-0.21232730190907317	-0.9700132640875581	0.11828518232735365	0.9475400335078717	-0.17477368112615796	0.26762295358491583
52														9.688395927632481	0.38575016964148306	2.3058051959250854	-0.23921896603966675	0.1694399812669797	0.9560671414891105	-0.21002824661798938	-0.9703741671436749	0.1194240820052346	0.9479780703737225	-0.1722325999585024	0.26771908710820125
53														9.651690771272024	0.575442402675802	2.328707204382385	-0.23948904823403783	0.16961669092203582	0.9559681866760078	-0.2075069639546757	-0.9708125337893323	0.120265889377874	0.9484649997159985	-0.16956769267226782	0.2676956143001519
54														9.617216971084238	0.6482455887918264	2.3622507955212297	-0.2396918779894161	0.1694369471044586	0.9559492269895026	-0.20493617767191952	-0.9712956824797101	0.12077193497455116	0.9489725848027065	-0.16696052872518904	0.2675354465125603
55														9.62758538804606	0.7373375386293803	2.41960390858565	-0.2398588006689671	0.16897274431156545	0.9559895226525565	-0.2024693930927584	-0.9717888099913714	0.12096550597672026	0.9494597940946707	-0.16454397726860806	0.2673039074580336
56														9.712871564251357	0.705148802603957	2.4834915167359886	-0.24013031085997416	0.16826319310643295	0.9560465112388202	-0.20007593287277065	-0.9722962791117711	0.12087004058283332	0.9498984445146664	-0.1622573371870513	0.26714322308002647
57														9.652706156613407	0.8541800470409245	2.4269134679021915	-0.24043612417277654	0.16751899465141368	0.9561003381569076	-0.19761949522498695	-0.9728133366737123	0.1207507643734819	0.9503352068085212	-0.1599112204341472	0.26700448737702337
58														9.597781093658392	0.8746814421874447	2.436283036205459	-0.24076725566920631	0.16677802963010968	0.956146546001301	-0.19524836441717702	-0.9733099180203237	0.1206063003150685	0.950741397431466	-0.1576480013066119	0.2669042953833718
59														9.56960347501763	0.9411309853266735	2.433919657639931	-0.24108365131887555	0.16603088606144076	0.9561968510408364	-0.19299610113172103	-0.9737815083741389	0.1204245776265839	0.9511210112360641	-0.15550986728256025	0.26680611530294274
60														9.475965665048482	1.0704555202901314	2.4746676018338603	-0.24126085960110544	0.16542996057322182	0.9562563075709763	-0.19085103803025547	-0.974209135333987	0.12038455845572221	0.951508843315347	-0.15345842686717304	0.266611013118631
61														9.384257252885803	1.1306404839070603	2.494412145989964	-0.2412145007360409	0.16498449541440718	0.9563449591583134	-0.1890237020512624	-0.9745572738048929	0.1204498241460363	0.9518852896738653	-0.15171762042303769	0.266263326343815
62														9.39536883731384	1.0483097906704788	2.4904521890571334	-0.24110939310209611	0.16463007869396254	0.9564325369555128	-0.18740128934314296	-0.9748570542170927	0.12055903365446916	0.9522326487316354	-0.15016877515779206	0.26589908171549226
63														9.250585825619604	1.0605193974176554	2.498815922611717	-0.24092479104889186	0.16422481825704183	0.9565487202053476	-0.1855996532889857	-0.9751869564245275	0.12067795456699708	0.952632150285227	-0.14846079983587412	0.2654267830401378
64														9.326284814638173	1.0709859365235552	2.5930798953975605	-0.24062067013645833	0.16366018661249124	0.956722026725133	-0.18364212970094998	-0.9755553831935329	0.12069491505866628	0.9530882757132105	-0.14665277917613342	0.2647936952760301
65														9.415158284204	1.181590541501584	2.656051014990406	-0.2404299990371906	0.16297295111746551	0.9568872623078651	-0.18168287972328911	-0.9759379173430953	0.12056746123011346	0.953511796874286	-0.14486199879915454	0.26425414760318217
66														9.379411334128369	1.218214770697666	2.6641977565415496	-0.24047390720242318	0.16213292348941746	0.9570189209600696	-0.1799132564284557	-0.9763117569560911	0.12019389914059792	0.9538362124160048	-0.14327689398533938	0.2639473650821404
67														9.289745341892669	1.4455729473696624	2.7376195484263555	-0.2403930435759561	0.16125492108957365	0.9571875652267346	-0.17844778568524436	-0.9766394202755193	0.11971562365844811	0.9541318422442059	-0.14202919836531308	0.26355290631557254
68														9.306420171378676	1.3168518288931261	2.734496124099815	-0.24035483063485175	0.16052303980577676	0.9573201706231851	-0.17703968183912744	-0.9769387737128968	0.1193632417063198	0.9544037439390061	-0.1407941266809586	0.26323090139144745
69														9.384267400345891	1.4241619462116022	2.67615450647005	-0.24047953717971365	0.16006563671645907	0.957365439182126	-0.17572279571018085	-0.9771914485931861	0.11924081459025888	0.9546156772574126	-0.1395559555837908	0.26312172847460974
70														9.332523710788665	1.434102653277471	2.7382606810410484	-0.24084055134599391	0.15997296093203164	0.9572901757555006	-0.17432552115671732	-0.9774127379236293	0.1194778323291574	0.954780834276012	-0.1381050017750046	0.2632879924795839
71														9.242184953699219	1.3985432415969725	2.691301924148987	-0.24140501888196325	0.1599796083380299	0.9571468757586842	-0.17282915674537266	-0.9776372221834024	0.11981462506807886	0.9549103096298012	-0.1364990355919464	0.26365567288641095
72														9.163281098639601	1.535936999328386	2.6312863056513005	-0.24195921746523763	0.16016035423140784	0.9569766966943757	-0.17134361253365388	-0.9778354832521672	0.1203292738152983	0.9550377497918742	-0.13485706739162728	0.2640387620161161
73														9.16312674657433	1.5130863527151461	2.5818517489323707	-0.24241597668770276	0.16039472603750207	0.9568218361356001	-0.17017630469539494	-0.9779780543573849	0.12082611686040134	0.9551306295825545	-0.13353822319732245	0.26437288699587713
74														9.178310557534326	1.36376690767394	2.5339029468034315	-0.24286576562102824	0.1606085953715683	0.9566718867940478	-0.16919614783759196	-0.9780953773063139	0.12125220183130342	0.955190495894003	-0.1324171891590788	0.26472023830636227
75														9.15480521076488	1.280965895029663	2.5505930347920835	-0.24338007895044045	0.16071884446064322	0.9565226553539194	-0.16795412310970853	-0.9782616678031686	0.1216368440786427	0.9552787811421994	-0.13104793909939502	0.26508279453271766
76														9.07597248061268	1.3751331598721261	2.5236419966460044	-0.24371861138226358	0.1607229778099257	0.956435759928398	-0.1665926892165868	-0.9784527474967903	0.12197170497934683	0.9554308527389556	-0.12960843074388803	0.26524241801533155
77														9.185029134196956	1.3358120988198576	2.5067793186745924	-0.2438620610160765	0.16078531793251155	0.9563887163357441	-0.16539938968061352	-0.9786083345504192	0.12234692248575418	0.9556015577060721	-0.12835033730300732	0.2652392388466161
78														9.192392678353436	1.2441689280905157	2.594716510476289	-0.2438931641985726	0.16095860477726245	0.9563516361701724	-0.16408337806741943	-0.9787624244337454	0.12288515597321692	0.9558204692823821	-0.1269505575597625	0.2651240962946842
79														9.202448089517555	1.297086091045772	2.682040016520579	-0.24374727238441118	0.16131615153340412	0.956328587076436	-0.16265031295527643	-0.9789030024571226	0.12366805357885353	0.9561025796956679	-0.12540339323512484	0.26484305930948304
80														9.29195079177276	1.233264822469227	2.7461454755943	-0.24360010358895862	0.1616742024492574	0.95630562154253	-0.16100258386387106	-0.9790686162543889	0.12451029136128734	0.9564189236524993	-0.12363695615839156	0.26453118067872866
81														9.303739316994104	1.259527783923162	2.7805899714219584	-0.2435736878190055	0.1620341371395704	0.9562514298047792	-0.15915795832182558	-0.9792576467876056	0.12539220673881182	0.9567343429108613	-0.1216527829909196	0.2643104187985909
82														9.302925077283131	1.2691183326815265	2.7789527351580663	-0.2436639014897946	0.16236617044285515	0.9561721235250973	-0.15733006521723122	-0.979445962114698	0.12622542483967217	0.9570136643170326	-0.11967804306946063	0.26420070461213935
83														9.365941519614644	1.285029571058308	2.753750800054917	-0.24392023487963144	0.16255597040647263	0.9560745135717591	-0.15539913847670228	-0.9796643991445863	0.12692034040836803	0.9572638229751319	-0.11761471648517166	0.26422102809797055
84														9.373301458588674	1.2801508469503837	2.7738724510919246	-0.2443993236116359	0.16265279618312628	0.9559356874350834	-0.15332056640975666	-0.9799122195623775	0.12753370483180743	0.9574767749318865	-0.11539544985026734	0.26442790249874953
85														9.32393234923218	1.2785596892583497	2.699326039142064	-0.24508854831777915	0.16264869803877674	0.9557599094489028	-0.15124539994530345	-0.9801714412620832	0.12801864992881276	0.9576306346806523	-0.11317838468763161	0.264828663026927
86														9.2229033079515	1.3273700806113187	2.65190531561678	-0.24585976504952373	0.16261004654521147	0.9555683903794416	-0.14915261745258582	-0.9804336131635348	0.12846566423032557	0.9577611772445338	-0.11094098855544922	0.26530289184534733
87														9.147289721930894	1.4929884097189365	2.605964577337967	-0.24636887718499934	0.16272904628297338	0.9554169947465013	-0.14750882057579126	-0.9806143239316445	0.1289833150156337	0.9578849222150546	-0.10915495955712265	0.26559681962919135
88														9.127577771970346	1.44208638548339	2.640391995156919	-0.24649848711684158	0.16311716162706208	0.9553173752381141	-0.14637372081415068	-0.9806923473230094	0.12968135470108055	0.9580256936555145	-0.10786710103093203	0.26561524581818213
89														9.11716676186373	1.422102424348246	2.6566754472062386	-0.2464226291621413	0.1638259131919102	0.9552156604681769	-0.14567473213420973	-0.9806729947629325	0.13061144574779157	0.9581517417687268	-0.10696516960926467	0.2655253137386664
90														9.062730464851265	1.3840832583032112	2.6466003267548337	-0.2459574673094952	0.16490294478709006	0.955150220161858	-0.1452475599487087	-0.9805654233349383	0.13188857755287461	0.9583360948037207	-0.10629425836102475	0.2651291384134057
91														9.17947485821353	1.283116114973025	2.5760494111032615	-0.2452843455023362	0.16626591132997567	0.9550870308935745	-0.14482987378084586	-0.9804119131955074	0.13347954197160586	0.9585718009164025	-0.10558469204358226	0.26455996540283083
92														9.190751324346355	1.2763588469977178	2.642465327909002	-0.2444598364628121	0.16773178897710186	0.9550421118061323	-0.14434575504292077	-0.9802461076576663	0.13521047083375165	0.9588554069085	-0.10480274513836295	0.2638421748959008
93														9.273841963903877	1.164815028699042	2.669487833980917	-0.24363093392015167	0.1692819927616436	0.954980405539214	-0.14384231656808286	-0.9800670920185091	0.13703241626239693	0.9591419894893155	-0.103981258258545	0.2631245749249729
94														9.314349021527068	1.0922021903522467	2.741388351137191	-0.24287962989821282	0.17068763681248816	0.9549215758479203	-0.1431430948428009	-0.9799278499786919	0.13874964228769515	0.9594370952695815	-0.10299096793169094	0.2624372701145196
95														9.308426267279968	1.1510658707874146	2.733822455814608	-0.24234115587361826	0.17181864875362096	0.9548555472480217	-0.142036958016172	-0.9798721556321663	0.1402713840178535	0.9597376030599986	-0.1016312479370974	0.2618679490036866
96														9.410427668960349	1.1958459562736943	2.7628096594902223	-0.24205641048949744	0.1727426432239379	0.954761055632742	-0.1406981181031482	-0.9798720013434941	0.14161532595495718	0.9600066321141606	-0.10005418629474484	0.2614888642021378
97														9.380472863970873	1.27597370934591	2.754063690526504	-0.24205032600387677	0.17337367222833514	0.95464821241098	-0.13914796706295726	-0.9799380762082002	0.1426857037674725	0.9602340771622636	-0.0983002369042647	0.26131892484261887
98														9.318348273494255	1.3095287204667592	2.7954554207646245	-0.24217783595933268	0.17394067183595785	0.9545127230431821	-0.13759258716234768	-0.9800127528660294	0.1436777093982184	0.9604260386557762	-0.09653831830523445	0.2612703147523096
99														9.34582146954638	1.2537416476830339	2.802125064565211	-0.24236954841761976	0.17451146975794868	0.9543598634282358	-0.13592324125158012	-0.980095542126223	0.14469830956846413	0.9606153624044875	-0.09464922201067949	0.26126547855633225
100														9.3463398924999	1.2351776113689932	2.751604189803591	-0.24263796068950821	0.17526592436733426	0.954153381688762	-0.13414999907294414	-0.9801574394319836	0.14592865268639382	0.9607968556261857	-0.09259184457499985	0.2613353258498233
101														9.305160620831439	1.3072433493337627	2.6220710460785197	-0.24294985814961373	0.1760250444347687	0.9539342483404292	-0.13226083850603196	-0.9802252797844839	0.1471919544985762	0.9609799358065512	-0.09040787909893304	0.26142681265330986
102														9.259054638927342	1.298651030223598	2.5990746734564594	-0.243166195356043	0.17677282620199167	0.9537408292364479	-0.13051024966736066	-0.9802753574271492	0.14841596394201625	0.9611645416721478	-0.08838320845972464	0.261440494748872
103														9.256421223611483	1.2906814969736167	2.494628553972785	-0.24326227977136283	0.17746388371915894	0.9535879787496023	-0.1288058384726094	-0.9803237419458869	0.14958080409124103	0.9613701260262913	-0.08644033174697449	0.2613341727208015
104														9.29855326123138	1.3656443374246785	2.4807740207037234	-0.24321330677015096	0.17823834234850275	0.9534560192933843	-0.12723560741974635	-0.9803407612162796	0.1508081300938843	0.9615915908609314	-0.08463501175485044	0.26111018205117864
105														9.29683258048164	1.3172115432364757	2.410792337523731	-0.24302991907406463	0.17905146750653803	0.9533504237260341	-0.12578997331261813	-0.9803350431348994	0.15205290466053434	0.9618281244842367	-0.08296851924344488	0.2607736255177768
106														9.234793500235815	1.3533481984107707	2.4489304297936214	-0.24274714655601803	0.17994405239154582	0.9532544051027613	-0.12412343288296669	-0.9803302526793273	0.153446958559085	0.9621159993723513	-0.08107239783424752	0.2603076450301579
107														9.134136704122868	1.5096584066030323	2.420562002833281	-0.24208520355278285	0.18096398326992688	0.9532296632920577	-0.12238056183174859	-0.9803013838529273	0.1550232076231862	0.9625059752056367	-0.0791279569755062	0.2594629339969954
108														9.29459323429952	1.6295617848342847	2.5205031776629694	-0.24116300342761882	0.18227464145765235	0.953213701569199	-0.12058213006890686	-0.9802205895683553	0.15693165931165928	0.962964358471182	-0.07709442825360177	0.2583720059264058
109														9.270087771255646	1.6133006513186363	2.437277154405822	-0.24008655929894296	0.18389856834848967	0.9531735207208453	-0.11897958280028265	-0.980063955012	0.15911789014094987	0.9634325627259369	-0.07520612106479482	0.25718035779141757
110														9.271291999118572	1.7070217227995865	2.4042195780300193	-0.23885194381727276	0.18578010495074238	0.9531188286563234	-0.11721568262513732	-0.9798671380464316	0.16161953942335966	0.9639555138498009	-0.07311733297370042	0.25581951242502904
111														9.339237781148542	1.5886436754391204	2.426437017463544	-0.2376418233820901	0.18770615676288052	0.9530439457301774	-0.11502651884794704	-0.9796855590528136	0.164271438007646	0.9645181510688947	-0.07058756332871907	0.25440544837317397
112														9.248712596064882	1.711987360613018	2.357922850144891	-0.2363995792554232	0.18962604395625077	0.9529728235271774	-0.11256953927051096	-0.9795126182210272	0.1669824229498807	0.9651131217408059	-0.06780113715336941	0.25290248722467357
113														9.212092108094259	1.8065262430885825	2.3676535308973587	-0.23494848241806449	0.1914583484647924	0.9529653253988744	-0.11012646998843925	-0.9793395469354473	0.16960605064725198	0.9657491243678835	-0.06509802309906915	0.25117897239072223
114														9.230015069658812	1.810113078952008	2.389167184079193	-0.23329961514213093	0.19330614517787034	0.9529973891942237	-0.10787653603190736	-0.9791373604068823	0.1721995424767466	0.9664025778878548	-0.06263197020624828	0.24928556668967705
115														9.2721569783837	1.7890662669027297	2.415582366319598	-0.2317337279291462	0.19510432625394541	0.9530130015991679	-0.1057193138594152	-0.9789290903826511	0.1747033562347639	0.9670175313907995	-0.060267220606150286	0.2474771829952303
116														9.255638394199348	1.8670438445474806	2.3746651988545193	-0.2302353585876991	0.1969122043633709	0.95300433547217	-0.10351237084459416	-0.978713136876861	0.1772167734352098	0.9676140081345068	-0.05784617081029067	0.24571721914522365
117														9.308856098463393	1.9746201326007553	2.3779407536895905	-0.2288363527927953	0.19869382474764813	0.9529715041110319	-0.10133938477880367	-0.9784913766902288	0.1796801459135507	0.9681757344269403	-0.055456196678208905	0.2440499078402672
118														9.282689389363357	2.016835819310235	2.4447374745643025	-0.22763968562241638	0.2003886664233118	0.9529032248338832	-0.09933380561581498	-0.978269546683153	0.18199310177646275	0.9686655607543849	-0.05322665123248979	0.24259834089904236
119														9.351650968793132	2.006964732124446	2.4090844543073815	-0.2265909539842778	0.20210193838839882	0.9527913444569839	-0.09761183534905374	-0.9780222733007233	0.18423995909540034	0.9690864095488515	-0.05125660374368757	0.2413385410587759
120														9.342032592829149	2.00169842434869	2.4163803564340927	-0.22584220220234924	0.20387463776253145	0.9525914296179604	-0.09610403772883691	-0.9777481257289926	0.1864741713097448	0.9694118390223049	-0.04943414518972025	0.24040996579333845
121														9.242575143348175	1.9864158662000484	2.3440478923967127	-0.22537657482745244	0.2055635324151009	0.9523387179255457	-0.09461876311195572	-0.9774853280396921	0.18859937204110622	0.9696662772243912	-0.04760323106850786	0.2397524623557158
122														9.235068420423993	1.9463578507863877	2.3062385686567985	-0.2248372230786425	0.20716828242132518	0.9521184410969483	-0.09303401111772712	-0.9772368237526452	0.1906642679612219	0.9699447901265472	-0.04571097308568317	0.23899291003276346
123														9.157293099198192	2.0075851990827216	2.267371520299244	-0.22428599615459055	0.20870626200657028	0.9519125422685574	-0.0917932466981865	-0.9769796140831645	0.19257422861462287	0.9701905955994158	-0.04418744012902302	0.23828067136319542
124														9.15074576533081	1.9642603805118082	2.2289012962457435	-0.22358580536475697	0.21009538968340086	0.951771671606785	-0.09079956096682873	-0.9767355711245581	0.19427574173893938	0.9704456849137024	-0.042983151743024445	0.2374607784426978
125														9.257057776323014	1.8802364330171824	2.1740337973217634	-0.22271444757067915	0.21134131521215022	0.9517001225846757	-0.08978153847317744	-0.9765168931538268	0.19584185644184376	0.9707407224345117	-0.04182829030210222	0.23645896882488193
126														9.27809121426154	1.9109646751565357	2.1310415078618266	-0.22179270672628115	0.21248589505126492	0.95166051701607	-0.08856414267107199	-0.9763239949578744	0.19735209525727287	0.9710635344177893	-0.0405117424182239	0.23536017260843356
127														9.348113528767323	1.8939008874749297	2.098595398702569	-0.2208658708966652	0.21362612098279912	0.9516208002702023	-0.08734828409687875	-0.9761286117188104	0.19885474761553845	0.9713848590226167	-0.039202217000458284	0.23425337104054744
128														9.40900095462251	1.8176626410008574	2.069948163750374	-0.22007900357682142	0.21469021729892962	0.9515636304424272	-0.08587262737179459	-0.9759572395783824	0.20033311853712332	0.9716949748006823	-0.037624155946447246	0.23322370985047614
129														9.35512846684501	1.8178914819150715	2.018419754048767	-0.21931460265403924	0.21565407262330388	0.9515221626550181	-0.08421540975512003	-0.975810164925313	0.20174807753287172	0.97201279303437	-0.03588652935873225	0.23217081467769962
130														9.274867141966675	1.805169749291609	2.0332739869043	-0.21841361428268036	0.21646322723944608	0.9515456711840276	-0.08229763394346737	-0.9757000463140162	0.20306776964879195	0.9723798602106508	-0.033957191814278614	0.2309205850087963
131														9.158192608179679	1.8590454353851649	2.069165074743673	-0.21719726911602683	0.2170578687826466	0.951688619185958	-0.08012891240703701	-0.975637400328592	0.20423276053692252	0.9728333380826365	-0.03189897615287862	0.22929838995377289
132														9.206007262101235	1.857646456593609	2.112717757268347	-0.2157150804318077	0.2175347639212828	0.9519168191391569	-0.07764957836734517	-0.9756030788901296	0.20535134632982788	0.9733640362442368	-0.029618557456621078	0.22734377933103117
133														9.227162512611258	2.0849199650006596	2.161869274452077	-0.2137722318623717	0.2182523152423498	0.9521908210941405	-0.07503908946580704	-0.9755117382791341	0.20675101821215813	0.9739972114624982	-0.02725390560957261	0.22491477650946257
134														9.31932163242833	2.279848494307177	2.273015575383878	-0.21166501241494867	0.21933126517785634	0.9524136279132406	-0.07255689521434994	-0.9753307246830583	0.20848375103608136	0.9746452787944103	-0.02497546004985264	0.2223573855734609
135														9.346553234468633	2.3728159639623514	2.3322319314880793	-0.20954257096514967	0.22083585610003223	0.9525352673858755	-0.07083101421104923	-0.9750310363897896	0.21046958331903265	0.975230679572351	-0.02336670146210064	0.2199525377976615
136														9.49181262606532	2.2925206684288355	2.304527749997454	-0.20752875370723994	0.22272022584930784	0.9525374099647494	-0.06971122049634278	-0.974628194654776	0.21269750332545573	0.9757418521933094	-0.022261697635294564	0.21778947333781934
137														9.492135757870704	2.1481811888998252	2.3193611952228617	-0.20576023710628955	0.22490135776631076	0.9524085804426762	-0.06883714995204965	-0.9741489398049723	0.21516340270438106	0.9761783503092264	-0.02128901951050173	0.21592268532009085
138														9.444982974305868	2.116274997533713	2.2683465467048873	-0.20451566026339213	0.22699682819783706	0.9521794918475983	-0.06795702812028721	-0.9736855815939471	0.21752753969351962	0.9765015038575657	-0.02021950009715663	0.21455997944568744
139														9.407572277839432	2.0725826760457275	2.2414250052922426	-0.2035385868812033	0.22890773137313292	0.9519313495037386	-0.06725540849280535	-0.9732564990439687	0.21965540534469785	0.9767541930695097	-0.019314180963303687	0.21349053546901797
140														9.328488149670399	2.1307511335828133	2.2005912002178283	-0.20281756870830997	0.23048041551770881	0.9517057380756061	-0.06667048791294788	-0.9729002157359468	0.22140509538490258	0.9769442562729459	-0.018545842761455433	0.2126874981082995
141														9.381524933526528	2.130169502987232	2.098023484982884	-0.20234563761082397	0.23155009806195284	0.9515465280412564	-0.06630770652275694	-0.9726554128755581	0.22258646827597162	0.9770667996588368	-0.018055467077265033	0.21216613564153147
142														9.331718291958373	2.0195039288126435	2.0309177185716347	-0.2021641169682173	0.23204959136094283	0.9514634291236215	-0.06593890516937205	-0.972544366445619	0.2231804563127207	0.977129331560324	-0.017619376950083032	0.21191466905423356
143														9.250502201352317	1.96471195005713	2.0425098300464692	-0.20211362316439468	0.23199607091215718	0.9514872076978663	-0.06556005266054045	-0.9725634724555586	0.2232088070402541	0.9771652689420088	-0.017266010729394696	0.21177800180137735
144														9.269664107360573	1.913968166687587	2.0667065048660245	-0.20211914804407377	0.23164399381557815	0.9515718102818651	-0.06484088617889161	-0.9726585189906298	0.22300462980505625	0.9772121107893994	-0.016627253655446234	0.21161291303321644
145														9.234941290608267	1.9456005156304907	2.0391477273314735	-0.20213746726779264	0.2311867886503614	0.9516791019456585	-0.06354477523027524	-0.9727869476876178	0.2228174498317887	0.9772934594416847	-0.015434479652420854	0.2113274023177381
146														9.207458955925611	2.137545347112665	1.994139633433933	-0.20213771180702472	0.23086606482580913	0.9517569046648762	-0.06190860003782833	-0.9728865763299142	0.2228430722244128	0.9773984196359113	-0.013876948832648964	0.2109496612567075
147														9.192439711192865	2.252662634069888	1.9935031348847279	-0.20213274974506035	0.23064374401883517	0.9518118589434973	-0.060252162389513725	-0.9729607906238582	0.22297304060353473	0.9775029557028917	-0.012278568873119053	0.21056402432167665
148														9.25875052500675	2.1281336770762427	1.9249833724917644	-0.20213412167347622	0.23029565284685377	0.9518958499411235	-0.05854146970835143	-0.9730624018272539	0.22298533242023436	0.9776066147380954	-0.01065243775000152	0.21017095991193424
149														9.394291170856963	1.9042264532866788	1.8953521792265948	-0.20234607664347387	0.22951646461143194	0.9520390001146286	-0.05662704953439318	-0.973264366624309	0.22259795578668495	0.9776755302900968	-0.008869336595872093	0.20993306633383496
150														9.486660170152193	1.649239810239186	1.8485777812053932	-0.20296186823813062	0.22811424529005056	0.9522449113211572	-0.053795580030689155	-0.9736145281750459	0.22176741441349063	0.977707786411896	-0.006216238592092027	0.20987816172083446
151														9.559220821441443	1.5063732086888733	1.8417633648993323	-0.20413405011765506	0.22593512850100592	0.9525138357482253	-0.04965931596236953	-0.9741396215866504	0.22042220848446242	0.9776825875102374	-0.0023055073741382187	0.21007485026779282
152														9.681212553074914	1.4113604010985734	1.8395344025918132	-0.20591496440452234	0.2229169150376247	0.9528415799199746	-0.044015833805261445	-0.9748326368960218	0.218549620033477	0.9775794769780678	0.003062520605314964	0.21054450161148858
153														9.528273506218607	1.6324228539607666	1.7454484296610144	-0.20831111070752117	0.21911611956838137	0.9532022908601795	-0.03731553823518671	-0.9756530109007233	0.21612207875775213	0.9773505163256516	0.009451373743985123	0.2114157983035665
154														9.31777409099257	2.1389969523730117	1.6364224076851417	-0.2105667188150387	0.21477577822425692	0.9536944070380369	-0.0308960745364176	-0.9765418640398882	0.2130995550341206	0.9770911367450368	0.015406260599667751	0.21226294454903466
155														9.27086689871835	2.2563130505539877	1.5622225441101838	-0.2123628831879401	0.2102132709955465	0.9543125203734146	-0.025737214037584347	-0.9774520575882254	0.20958308836861977	0.9768518831725153	0.01994632331779579	0.21298484107657306
156														9.290620054590578	2.241505660670755	1.5127216935167584	-0.2135675312039249	0.20559952786869246	0.9550485557057463	-0.021822415130808098	-0.9783635992130248	0.20573879053983735	0.976684540582741	0.023097659515784977	0.2134333767515607
157														9.280063574323654	2.018370509102445	1.4686598546228484	-0.21402715589011162	0.20125735405142717	0.9558702077069922	-0.018463055916544457	-0.9792040023084301	0.20203622801214277	0.9766532097463317	0.025592954174351853	0.21329207343175488
158														9.353567824841027	1.8195482371384863	1.5340222533770704	-0.2138230004327487	0.1973859069188246	0.9567228063738054	-0.014774182628672389	-0.9799147562812429	0.19886878576067912	0.9767606912717113	0.028387922997383325	0.21244452879352582
159														9.330374147133673	1.8589425581928762	1.6845600671565115	-0.2130189600669013	0.19408679332642448	0.9575767537426338	-0.01064767812200447	-0.9804742308952682	0.19635913398908034	0.9769900458052914	0.03163224947102575	0.21092617474077685
160														9.389453699153117	2.0647999714932985	1.8314293524164067	-0.21160028366442257	0.19122473170296408	0.9584667036148231	-0.006296130198083255	-0.9809191266024164	0.1943142450004145	0.9773360111536178	0.035082318205639215	0.20876674124882438
161														9.477015260958053	2.1086391755938756	1.915655556911536	-0.2098251422315242	0.1887699018617004	0.9593431783458122	-0.002768783842675704	-0.9812962027473919	0.19248401572489565	0.977735006800694	0.03773177208498614	0.20642327836698432
162														9.566690395415804	2.051481605878309	2.068808713248651	-0.2079266990968105	0.18656888960493356	0.9601867199843404	1.1608689925418636e-05	-0.9816405933625445	0.19073999404443126	0.9781444104363846	0.03967108385730668	0.2041071224569192
163														9.657491251486713	1.9581274441961098	2.177096723479011	-0.20621081669260605	0.18460159043310323	0.9609367054538698	0.002347529646330365	-0.9819470245487752	0.18914156096523718	0.9785047716713129	0.04125886316145588	0.20205474017477604
164														9.680641782657242	1.9991050644878892	2.204009994681685	-0.20481470958788406	0.18286938148004814	0.9615662868744597	0.004263907417252355	-0.9822162365432677	0.18770477821386714	0.9787914761735352	0.04254472926091518	0.20039259512803265
165														9.568272914933795	2.003037448007997	2.2247960678978678	-0.2038739602934278	0.1812280972629483	0.9620768083041632	0.005929855441204113	-0.9824700415919217	0.18632620370955444	0.9789791852377253	0.04369203745328555	0.19922540183033993
166														9.45046395560729	1.9728156684290825	2.1489777360333435	-0.20314813558399547	0.17971844434152645	0.9625134366709938	0.007266830471592725	-0.9827073700749658	0.18502274988562917	0.9791210487900066	0.04458144865080772	0.19832918658773258
167														9.484008157883077	1.998417346495266	2.0843265834041182	-0.20252436188425887	0.17825134627137856	0.9629176186963323	0.008719324602653483	-0.9829269932556979	0.18378927963237462	0.97923840622284	0.04561779786174171	0.19751243073892327
168														9.384581140964341	1.9522182877056335	2.052729521790593	-0.20197329245920181	0.17689020115064613	0.9632843016836067	0.010039236424712814	-0.9831287438601111	0.18263922560077028	0.979339574848887	0.046558884575602616	0.19678990675813957
169														9.334788227549629	1.9933731376037758	1.9770524131803056	-0.2013944424824185	0.17571349075496884	0.9636208007841569	0.01114576827862783	-0.983303406745911	0.1816319964416101	0.9794468083498336	0.047319968814332675	0.19607337954127185
170														9.245006673730922	1.9656837837234693	1.8027327664949406	-0.20072154236969364	0.1746575410602753	0.9639531138906646	0.0119396497648004	-0.9834694887262081	0.1806798536309568	0.979575575028402	0.04777560146547945	0.19531816278161762
171														9.233779093033386	1.8670074888489228	1.7912217165680957	-0.1998020155133547	0.1735780098880318	0.9643390633382594	0.012822552633989154	-0.9836363920236331	0.17970818131258803	0.979752385422332	0.04827134522716112	0.19430682049071385
172														9.221348604592482	1.9087394060370688	1.751945854780149	-0.19870586627222692	0.1725494028072297	0.9647500620885558	0.01376161844386721	-0.9837911202886089	0.17878939985102438	0.9799625485531624	0.048803024825849264	0.19311050774372235
173														9.280687939119325	1.840741408549048	1.6870871449103244	-0.19749850520367085	0.17159360239425198	0.96516836669033	0.014764030213414728	-0.9839287600621706	0.1779500450530353	0.9801920035657165	0.04939464282574853	0.19179104620900256
174														9.209633656967357	1.8738175164958069	1.6398052970028312	-0.1962059539295689	0.17075166355321453	0.9655812203208999	0.015897655240926192	-0.9840381772142719	0.17724596001786463	0.9804338265280473	0.05012719001324181	0.19035959818445675
175														9.293552243712355	1.9263414992153276	1.6410831001268233	-0.19476646061200775	0.16983448639423254	0.9660343022128555	0.017218141215551028	-0.9841516378736277	0.17649104590244025	0.9806985068989107	0.05100785137469693	0.1887554970441504
176														9.37638511579667	1.873461483078594	1.6254897250518565	-0.1933226117971697	0.16885661219713122	0.9664956349023152	0.018704097266402445	-0.9842656118408797	0.17570248174954273	0.9809569432515225	0.0520446910338324	0.18712248828460765
177														9.435500341720156	1.844163102801257	1.60240739571604	-0.19188677035458335	0.16784805452882906	0.9669573402967552	0.020217027181325564	-0.984381366118805	0.17488452718872782	0.981208815275748	0.05310702993919507	0.18549637246102813
178														9.429624109319933	1.8063041509031164	1.5208905995949582	-0.19063981479885406	0.16665809898733008	0.9674097058926936	0.022136681901848018	-0.9845029765588519	0.17396510127360998	0.9814104280716784	0.054579915616371814	0.18399620779645087
179														9.510422117096098	1.8622292216896514	1.554871449866766	-0.18941787911947355	0.16527939852764825	0.9678861438682853	0.024431458140560275	-0.98463274266792	0.1729204034212724	0.981592568697933	0.05640108588128751	0.18246902912112256
180														9.531784728957037	1.9695693168504074	1.4657721809367152	-0.18835681369826807	0.16380173477646798	0.9683443098493719	0.027052267880666975	-0.9847534517845065	0.17183950070054665	0.9817280099579259	0.058563050490221036	0.18105381404800958
181														9.534075868975282	1.9920586604327188	1.409011770446474	-0.18740029732475932	0.16207430834462058	0.9688204411227118	0.03006849362244371	-0.9848852897026887	0.17057799335942808	0.9818233111175708	0.061097337927808984	0.17969446581424336
182														9.494523887211919	2.1723383690863245	1.439587951613688	-0.18643976905595516	0.16036338494162639	0.969290357573223	0.033048912984680504	-0.985006783522135	0.16932042335734204	0.9819103736415529	0.06360205331152669	0.17834460168355137
183														9.500328667886672	2.2882909753756593	1.2740288735775287	-0.18524938668862684	0.15889571522745224	0.9697601850013458	0.03571921980654625	-0.9850999851020392	0.16823244838132184	0.9820421590073918	0.06580403509146596	0.17681353708860043
184														9.4432440545729	2.3156090946597208	1.3315070103548998	-0.183851302922035	0.1577351750620367	0.9702156012773753	0.03807250959326286	-0.9851572384379224	0.16737891016086082	0.9822164641397237	0.06771137350191067	0.1751170679041416
185														9.417015112233573	2.1950230001219384	1.280271145833183	-0.18218066210958983	0.15691335571444703	0.9706638991699148	0.040099033701981715	-0.9851774601849499	0.16678560921044305	0.982447084503526	0.06930779712242122	0.17318820805285362
186														9.389553474263224	2.1901771200003086	1.2742362635844926	-0.18018314270656088	0.15653855256814286	0.9710971715766953	0.04181131446424469	-0.9851443049592465	0.1665608369009188	0.9827440404638222	0.07061430426077428	0.17096131423982341
187														9.389072603246595	2.057480257150252	1.314033780162724	-0.17786964869588967	0.15649684198579175	0.9715303013911992	0.04324130975096321	-0.9850766891515979	0.1665956350603072	0.9831035434804524	0.07164254977734896	0.16844811621854977
188														9.422921508018044	1.9215953378689894	1.3023813338491546	-0.17519110256372078	0.1568348213940574	0.9719624048186235	0.04460659690939821	-0.9849522586742296	0.16697095449417484	0.9835234257986285	0.07260776081678502	0.16555900451048317
189														9.495762674222151	1.6891017268946042	1.40187695202835	-0.17234711245852968	0.15742798059742355	0.9723748781988475	0.04627762775952845	-0.9847621974787603	0.16763590184012747	0.9839486033305584	0.0738907662825306	0.16243552770875896
190														9.606095583783421	1.6718582169341218	1.5108127149937172	-0.16953775045697728	0.15819767903041274	0.9727437717710553	0.04826575736636924	-0.9845151131190748	0.16852420807108612	0.9843410830783398	0.07552143000186409	0.1592769467770997
191														9.581248456629755	1.6468131102448669	1.5386260379913792	-0.16679602108595687	0.15891782262755347	0.9731003098351221	0.05024943340217128	-0.9842731765363375	0.16935556794457218	0.9847101511575138	0.07714557409459927	0.1561873189633553
192														9.62759959069405	1.5489049225962226	1.5897186267921108	-0.16421023579156419	0.15952660246218245	0.973440425279406	0.052175527165451374	-0.984050292355126	0.1700668588549739	0.9850445232710474	0.07871648634602015	0.15326774595801523
193														9.629002249300424	1.3991625639483358	1.7037868466442767	-0.16183663744637866	0.15993528357612863	0.9737708189545793	0.054254183110663066	-0.9838444304180542	0.1706066245793767	0.9853250156141593	0.08044154276738513	0.15054491622821053
194														9.665642886026339	1.3075415644052175	1.7387529162021225	-0.15965869100670987	0.16019460275297687	0.9740876714314995	0.056635153106481886	-0.9836337056575211	0.17104734001749192	0.9855463265715266	0.08247679881803174	0.14797302402161222
195														9.689932227165528	1.2057744466221567	1.8661247005018702	-0.15778635579454625	0.16022763979851268	0.9743872789449148	0.059524641943812254	-0.9834103128671132	0.17135044075831238	0.9856775755420928	0.08503681550484496	0.14563123662956778
196														9.608396376769694	1.3463638229252985	1.9138902949794063	-0.15615446668026145	0.1600881871644083	0.9746730502410629	0.06265076076188582	-0.9831858740456223	0.1715238154108753	0.9857437114746211	0.08784821801015913	0.1434992190943194
197														9.601695317560981	1.3812638647010524	2.0288224384426585	-0.15464150983538744	0.1597809561330906	0.9749646401244654	0.06561747298608822	-0.9829956419831424	0.1715048543950606	0.9857892019467209	0.09049648556350873	0.14152750766512462
198														9.608691700002971	1.3506425773768336	2.0550712538820997	-0.15325630517733202	0.1594499358981713	0.9752375212559562	0.06815983726221377	-0.9828402022684336	0.17140412302314467	0.9858330190796923	0.09274079332749874	0.13975837629711207
199														9.58689880583728	1.3592508129046372	2.1430542746870227	-0.1520997745528448	0.15899890042077314	0.9754921876908904	0.07063959775932332	-0.9827026966818142	0.17118836748649563	0.9858375656310603	0.09494608785661234	0.13823724024787837
200														9.621752179976987	1.287095777455223	2.115077154323817	-0.15123547349872607	0.15846746628680977	0.9757130180971526	0.07322228789636706	-0.982558830681517	0.17092875944378494	0.9857820895668764	0.09729443138437359	0.13699439955981324
201														9.628136079335045	1.319552901528841	2.1173122022399173	-0.15098060020217408	0.15778315645935564	0.9758633787064219	0.0757700515324444	-0.9824284526351104	0.1705673906224544	0.9856286104072678	0.09969358550430775	0.13637239953866498
202														9.537890726964294	1.4309833638426996	2.2042928592897453	-0.15106177065369547	0.15699777905736634	0.9759774786428348	0.07799523871489761	-0.9823365896070202	0.17009282012200103	0.9854425828960187	0.10181611901022178	0.13614842534866095
203														9.477993136005459	1.4423179427214792	2.12517227534324	-0.1514416419966979	0.15601179299131843	0.9760767129262833	0.07994004223391599	-0.9822983812781312	0.16940920809095142	0.9852284094142758	0.10368322229752294	0.13628929047074362
204														9.427263236882483	1.5174178794642312	2.068191582464127	-0.15191556780682258	0.1549781183964548	0.9761677330644698	0.08144913623196748	-0.9823087344265349	0.16862855178292435	0.9850318261178153	0.10512532086816397	0.1366051552737615
205														9.446165194622058	1.4554164190236898	2.070023816619512	-0.1524843996859468	0.1540094156266291	0.9762323533620263	0.08274388401497382	-0.9823261600876189	0.16789510077911662	0.9848360053889849	0.10637864027076761	0.13704607759293824
206														9.35379405121668	1.537534543462756	2.0105955802337725	-0.1531831149588727	0.15304768437689942	0.9762742133224485	0.0839990455210008	-0.9823417948967512	0.1671788214774524	0.984621294530571	0.10761507471492104	0.13762231668971547
207														9.395951765183472	1.5899095002217347	1.9871939432790358	-0.15394270826471895	0.15215338031698628	0.9762945208441145	0.08516322798782625	-0.9823524260753287	0.16652608078799647	0.9844027972180991	0.1087798687351264	0.1382681199233992
208														9.387063461829234	1.5846576943536894	1.9403096944220677	-0.15485385032193388	0.15127017615307708	0.9762876721781802	0.08649322006013302	-0.9823376462931146	0.16592670538202564	0.9841438959441359	0.11013665367134212	0.1390349222101317
209														9.379193711322396	1.694989738438862	1.936418710521363	-0.15592197731952284	0.15050557564926154	0.9762358366128824	0.08783747485609165	-0.9822955730659843	0.16546898545006888	0.9838561454804639	0.11155034214852977	0.13994143834786843
210														9.34115232018536	1.732447326463331	1.9508933188035285	-0.15719486786304043	0.14977014277655776	0.9761448037305789	0.08885059749574833	-0.9822800437009533	0.1650196566215716	0.983562578000083	0.11267129217126419	0.14110221500135228
211														9.269233244704258	1.7508095499887701	1.861820178416831	-0.15852075237661856	0.14898917518669072	0.9760498945971667	0.08967479177891005	-0.9822913010841653	0.16450602278879298	0.9832749375354586	0.11360468956679268	0.14235298283869147
212														9.216709485091718	1.6891195249169797	1.8489721304379203	-0.1597747589195087	0.14829171779202038	0.9759516344811887	0.09019239725953283	-0.982324256512365	0.1640255667388688	0.9830245967872782	0.11423056290555639	0.14357583574365246
213														9.294680733806691	1.7021044412182689	1.8261969835864413	-0.16095628703879455	0.14760627494120163	0.9758613944924083	0.09076535207307229	-0.9823494017070336	0.16355825821059844	0.9827790822589463	0.11490013300173309	0.14471777676031244
214														9.24362683125009	1.755891669826633	1.8537053914568136	-0.16206865103865448	0.1470064364619149	0.9757678309871053	0.09116445188603783	-0.9823812287214353	0.16314461121373833	0.9825593086744583	0.11539596654360376	0.1458114393408088
215														9.278386681335286	1.7354472997485615	1.7821638524092775	-0.16314487500990726	0.14644900740135458	0.9756723005134256	0.09136403976653372	-0.9824297079633784	0.16274053320709797	0.9823626428135088	0.11569164681233168	0.14689819897571832
216														9.253643772804875	1.7565960649943102	1.7837332651451143	-0.16403866957180008	0.14596965459657224	0.9755942675221458	0.09137186360131175	-0.9824911067985032	0.1623650442794765	0.9822130611161399	0.11577601219082684	0.1478290146556231
217														9.286172999111532	1.7449116428839904	1.7439986427718865	-0.16485468686788685	0.14550971076647656	0.9755254257528853	0.09124891544856421	-0.9825660687037363	0.16198011008005203	0.9820878614702212	0.11571881741852241	0.14870301828848986
218														9.300203211449455	1.767709495488946	1.7823915507203782	-0.16557632367972508	0.14517273068190534	0.975453412164346	0.09105513702710956	-0.9826306969771246	0.1616968626140407	0.9819844413521431	0.11559321617036455	0.14948165545547765
219														9.409812074105474	1.7825830273509966	1.741075232325206	-0.16627198818346428	0.14495388578409144	0.9753676214338928	0.09084657107955099	-0.9826779342284231	0.1615270197324458	0.9818862085132906	0.1154662226655502	0.15022325038003798
220														9.441900654792173	1.7507010248039256	1.7785189684661515	-0.16715504327909453	0.1449230022310784	0.9752212646013703	0.09038050137791975	-0.9827206077571705	0.16152885828871028	0.9817792809369328	0.11514135014715281	0.15116849211806954
221														9.391342348007312	1.757613685893495	1.7290356703490855	-0.1682138315112463	0.1448526849977914	0.9750496431142559	0.08987816013516264	-0.9827705473529122	0.16150531751733851	0.9816445503434659	0.11480309623258814	0.15229650644839826
222														9.359273384172424	1.7078617374545224	1.6790334304864827	-0.1692174739277973	0.14488510917548375	0.9748711461812293	0.08919764878956671	-0.9828251845443872	0.16155010391734398	0.98153411859594	0.11429331460982171	0.15338778395814945
223														9.439670950544816	1.6933381915017935	1.7007573214185092	-0.17012880721286738	0.1448991200048789	0.9747104359645169	0.08850917097773499	-0.982885299967805	0.16156303339573652	0.9814389005990953	0.11375733879187533	0.1543922027235488
224														9.462231979272937	1.6201603909113043	1.6428837590434984	-0.17107372489220707	0.14496154604733463	0.9745357514319686	0.08775202784338194	-0.9829443730176255	0.16161664877840046	0.9813426324484631	0.1131658505051458	0.1554352856289949
225														9.496744942778772	1.581191087215022	1.6487721238089494	-0.171981088701052	0.14503424525457223	0.9743652153236163	0.08708078789709722	-0.9829922282037723	0.1616886380368243	0.9812438236791207	0.1126558786500687	0.15642637724232877
226														9.51405540003543	1.5493849477907806	1.5793350410349276	-0.1728630634989326	0.14523342626920338	0.9741794563487116	0.08642101094378227	-0.983017962494089	0.161886053387635	0.9811471704821955	0.11217369258465826	0.15737627695019324
227														9.56878673085276	1.5920811632733252	1.5480229758105195	-0.17385873682554437	0.14529003303507826	0.9739938120594466	0.08595066152684344	-0.9830433589878658	0.16198221548353012	0.9810125500790113	0.11187743584173113	0.15842290218574845
228														9.528765078672118	1.5924799621057795	1.519494198759954	-0.17483253853257053	0.14527110974676638	0.9738223083002359	0.0854404305902063	-0.9830861632374734	0.16199237164626984	0.9808840483415034	0.11152533489734978	0.15946342334597174
229														9.513052872033667	1.4949520802176695	1.5003752396447945	-0.1757830265308935	0.14519839927076203	0.9736620319355412	0.08494613391090333	-0.9831364253400008	0.1619472861868185	0.98075709628696	0.11117640945314247	0.16048465367092624
230														9.563607113807352	1.5033759336994752	1.4594180723437775	-0.17673908818892453	0.14506053237465874	0.9735094948963404	0.0847218870540448	-0.9831667474713477	0.16188066135463092	0.9806046586469742	0.11108820195588552	0.16147419244591116
231														9.561271035753332	1.576960276118109	1.4679039417398745	-0.17765566409411648	0.14493251606736743	0.9733617163221805	0.08439978379175975	-0.9832072422520326	0.16180295200971298	0.9804667977607314	0.11089672930044221	0.16244006254394816
232														9.584178973678833	1.5761003111564786	1.40858500406668	-0.17856812259318205	0.14475849040087563	0.97322063533939	0.08397453744830834	-0.983267068212325	0.16166060011481387	0.9803375452638183	0.11059318254756349	0.16342412710524828
233														9.51679635632458	1.4689969119005144	1.4390447460281932	-0.17939517162526752	0.14451717847941267	0.9731043918932287	0.08340995644642335	-0.9833552285329253	0.16141646038296092	0.9802347430912386	0.11012392855918196	0.16435500842854045
234														9.58807369417707	1.459757691532251	1.4389968198233318	-0.1801148970859845	0.14421256828400839	0.9730166283248376	0.08285871744618092	-0.9834541331163023	0.1610974891164861	0.980149507366544	0.10963896754982976	0.16518547152739615
235														9.566109962494238	1.4314432744349832	1.36177777604256	-0.1807469238086214	0.143820550358558	0.9729574496494088	0.08243934328851098	-0.9835541196601609	0.16070173732005777	0.9800685201616667	0.10925631786806334	0.165917909804919
236														9.637933604694297	1.420748008013475	1.3600454927008008	-0.18132197073370715	0.14336675878495123	0.972917424761599	0.08206570005960555	-0.9836599966773056	0.16024428791856885	0.9799936549809753	0.10889895964746374	0.16659367570447725
237														9.632988532403418	1.3840744393157476	1.3566350794643798	-0.1818954003547677	0.14279067673805013	0.9728951053255787	0.08197144329576225	-0.983754719446617	0.1597101576309973	0.979895272880622	0.1088001590219336	0.1672357006832379
238														9.644167448730908	1.395372801475716	1.3059914419296579	-0.18240320546939254	0.14211724609151793	0.9728986375763169	0.08218523458489263	-0.9838320600713661	0.15912279783851796	0.9797829646665208	0.10898241114553585	0.16777418219198287
239														9.672665671398109	1.3256098530497553	1.3308329476503684	-0.18291586063743026	0.14131092556504907	0.972919837521683	0.08268018424627947	-0.983899162413346	0.158450072058419	0.979645739571336	0.10942422272178154	0.16828714871155337
240														9.59927093173923	1.473302699074271	1.34254569573325	-0.18334495898503106	0.14043380654425772	0.9729660692923819	0.0830989954374683	-0.9839870067253096	0.15768363121468876	0.9795300827295003	0.10976300185060694	0.1687391491405677
241														9.577804544172002	1.343384532988304	1.3400125906701505	-0.18362981638074	0.13940831836739712	0.973059818976177	0.08359236430417005	-0.9840921633605078	0.15676393284960363	0.9794347385946727	0.11012690308190168	0.16905519232361593
242														9.683443352339188	1.3679484931081625	1.363284417790508	-0.1838621525005455	0.1381662679581703	0.9731930904380576	0.08426152259108556	-0.9842119227747687	0.15564988557215448	0.9793338065687808	0.11062085457319469	0.16931722252918624
243														9.697204969137037	1.1526554740479669	1.3138562084383858	-0.18430621768743505	0.13664859374230254	0.9733233686447703	0.08519354518701458	-0.984339953167091	0.15432730302016492	0.9791696880419759	0.11136434989376473	0.16977839554112661
244														9.674749664314412	1.107627352055638	1.4328985973843702	-0.18490047562270084	0.1347860168285296	0.9734703610187615	0.08651281994344157	-0.9844722227566047	0.15274152875398067	0.9789419523648643	0.11245964737704267	0.1703686638202535
245														9.786311237263513	0.9173434795289533	1.3544145097086135	-0.1858640089731678	0.1322278379402137	0.9736376990657657	0.08852984090482695	-0.9846198666435015	0.1506193396622721	0.978579091048745	0.11419070489575517	0.17129928627295077
246														9.720631455520014	0.8295063232562475	1.4306042895638889	-0.18722297694864465	0.12901816035635436	0.9738079231556652	0.09100965600890307	-0.984795284307302	0.14797124896155323	0.978092428871438	0.1163295418385324	0.17263440642006656
247														9.744379225202776	0.6695056356648512	1.5019361731608156	-0.18889269850661522	0.12472634469992533	0.9740446023610445	0.09450448543751691	-0.9849882139594954	0.14445456238234256	0.9774397427376686	0.11933799603931411	0.17426988270565152
248														9.696456208638557	0.4594927924876026	1.5094536135391194	-0.19082424079172272	0.1193159932766477	0.9743458333028728	0.0991160559729694	-0.9851705839949779	0.14005330370740068	0.9766074526515892	0.12329888150101434	0.17616829807310114
249														9.685364320838955	0.4197534278402456	1.512300037166793	-0.1929648526130428	0.11287131427060575	0.9746920703847204	0.10502424138035076	-0.9852790122558455	0.13488949822216445	0.9755687953079006	0.12839522741508597	0.17826999522780002
250														9.616687479944137	0.40700354403857397	1.5555875065741662	-0.19516019121315076	0.10534485530489639	0.9750974111474384	0.11225051963564729	-0.9852825199092108	0.12891150764335424	0.9743265985321212	0.13461358557792696	0.18046291023553995
251														9.397605630086781	0.6453815486121178	1.6151868210863025	-0.19703955348522745	0.09702352423883376	0.975582825856738	0.11993650271645123	-0.9852313103823127	0.12220679342204122	0.9730316796890471	0.1410875642522303	0.1824928752989658
252														9.374756119101404	0.7680618051172253	1.6850474646068623	-0.19814548220904404	0.08815105327060267	0.9762006759306353	0.12722544526343704	-0.9852092873587619	0.11478826673297757	0.9718806788683815	0.14694234212548943	0.18399971231773704
253														9.37404680205959	0.7873815869112321	1.7613150395525834	-0.1985297556863581	0.0788362858030831	0.9769190223083437	0.13409096878114066	-0.9852020310391671	0.10675471946305445	0.9708787505133949	0.15219000649541645	0.1850206845854674
254														9.405280013659723	0.6873769405779487	1.83465070973475	-0.19826271359267406	0.06941933623680843	0.9776875023008678	0.14052137469661136	-0.9851710502860266	0.09844666033797683	0.9700235253086613	0.15690429386975796	0.18556778522412992
255														9.391550661237877	0.46970127076578916	1.8262705565929267	-0.197380096502547	0.05997778496798095	0.9784905532579146	0.14719749652564174	-0.9849976857801028	0.09006917355247293	0.9692130800403124	0.1618092219812469	0.1855903584796222
256														9.234044900658342	0.30921041008832456	1.7809198150352898	-0.1958045082798896	0.050404818261001134	0.9793466949111259	0.15450895842483917	-0.9846185505216087	0.08156771257793938	0.9683943289299778	0.16728916362036558	0.1850047551590407
257														9.0516186441234	0.44593421476310524	1.8116577639277376	-0.19315813832506912	0.04112270951313175	0.9803054913449647	0.1618960182295457	-0.9840905348230592	0.07318127187391904	0.9677187674527206	0.17284311393273505	0.18342749272075742
258														9.044147616032078	0.5095006527683653	1.7631289800030896	-0.18924062115104967	0.032266996778474194	0.9814004423400587	0.169394737242583	-0.9834026888644243	0.0649967270617286	0.9672090830326613	0.17854409106189573	0.18063387624141924
259														9.077494551708472	0.3604527706545681	1.7253186666872526	-0.18419322442307456	0.024047752562417923	0.9825958282393265	0.17692993461451167	-0.9825591212605576	0.05721338536554284	0.966834346883651	0.1843889335735152	0.17672596544279023
260														9.255842534691896	0.1568950463660086	1.7669706085940566	-0.17826465867664193	0.016395891267190016	0.9838459667125011	0.18494092408156265	-0.9814836776730198	0.04986627178065936	0.9664463596427683	0.19084277615618409	0.17193158151498106
261														9.347269485398646	-0.14423000953076	1.7770385108066533	-0.17178784466806957	0.008992374497670264	0.9850929263908016	0.1941994609986628	-0.980027394969763	0.04281208306786119	0.965803036737889	0.19865911081466728	0.16661047961697278
262														9.351224981288981	-0.4751522501094774	1.700423499352122	-0.16476855860751088	0.0015574635761569644	0.986331027800308	0.20534608580703045	-0.9780326773653759	0.03584783186255501	0.9647198075804885	0.2084458114540162	0.1608292154713869
263														9.529452805360664	-0.7648327371810977	1.6228950337793548	-0.15735979235512582	-0.006170304345632899	0.9875220620797458	0.21928134100637858	-0.9752350769247962	0.028848539337902934	0.9628881499096327	0.22108476220619205	0.154815821813649
264														9.601909815815644	-1.2685794757494666	1.5572487260382726	-0.14973719032224736	-0.014661725547420165	0.9886171188272896	0.23712538984216275	-0.9712408631202216	0.021511283032152398	0.959869951257253	0.23764725878801796	0.14890754535596723
265														9.835732085268134	-1.8526605826146745	1.424163439294729	-0.14212582639574078	-0.02428122967196246	0.9895507421840203	0.2603334368598677	-0.9654215485026651	0.013701654624372839	0.955000916818438	0.25956050464647684	0.1435325513728828
266														9.874175598512855	-2.2271608981176443	1.1656792880689104	-0.13460366820639352	-0.03553016801582681	0.9902623186136847	0.28974766742674285	-0.9570897766718858	0.005044661626120384	0.9475907036933959	0.2876052269186489	0.1391225780487398
267														10.059456868677733	-2.359718948285166	0.840189713622355	-0.12704561059037245	-0.04865246840766005	0.9907029575748529	0.32589676515053834	-0.9453939995565652	-0.004635090814183701	0.9368301400436123	0.32227802115608584	0.1359638399927834
268														10.180774282248516	-2.306662558378111	0.40187813866984157	-0.11945233541259309	-0.06364461767030996	0.9907979118902492	0.3683596507700537	-0.9295574517289539	-0.0153007065110832	0.9219773897710519	0.363142267681379	0.13448191764763123
269														10.385457556072481	-2.1826611365836346	0.024221180367966604	-0.11163958338775787	-0.0805933916176973	0.9904752943150898	0.41671744551829104	-0.9086360514109912	-0.026964730240666784	0.9021547395107545	0.4097380032457305	0.13502442251120256
270														10.685207061401085	-1.8680837107308303	-0.3754915547670421	-0.10364260579794343	-0.09903017784555618	0.989672286233827	0.4695507697940449	-0.8820398509175105	-0.039086774991498846	0.8768011660856938	0.46065032863256894	0.1379166048069424
271														10.67470581494211	-1.5514080092222038	-0.7371583619919648	-0.09557731978730671	-0.11909757576276375	0.9882715939405059	0.5256568388148957	-0.8491368195768059	-0.05149319805681715	0.8453105132135802	0.5145701401037769	0.14376267653384084
272														10.83775081206362	-1.2180376511547237	-0.9976213503849352	-0.0873876959445738	-0.14002836538468424	0.9862836546781014	0.5831961975380489	-0.8098606899435761	-0.06330764615175899	0.8076172272646617	0.5696645677693221	0.15243586997006836
273														10.8674052022872	-0.8188575018826177	-1.2407429762302185	-0.07909019573044745	-0.16153008274622485	0.9836934346163528	0.6406928319228853	-0.7642249546507531	-0.07397914443738485	0.7637129277823917	0.624394307354777	0.1639338674008372
274														10.739008552256026	-0.39160128750971357	-1.347516191089411	-0.07073025478257378	-0.18264303214092448	0.9806318136124087	0.6963053579003586	-0.7129803629835727	-0.08257027648655973	0.7142521120848339	0.6769789692525039	0.17760460459169314
275														10.538809505071542	-0.02109136029519071	-1.4021003739907618	-0.062406589119194444	-0.20322238262913023	0.9771417915702142	0.7488327347370447	-0.6567870781308084	-0.0887708814118377	0.6598143322335058	0.7261758720853615	0.1931674138676553
276														10.273328715197115	0.38567870913691554	-1.345097434010175	-0.05399650148508539	-0.22223805754807868	0.9734960829939834	0.7967500795578788	-0.5972416627844449	-0.09215045826790985	0.6018917581690961	0.7706572792180248	0.20931715036371523
277														9.941183520380601	0.6753199060354815	-1.238789010875743	-0.04559130258893007	-0.24024484081221525	0.9696410931841527	0.83961867781405	-0.5351362323865245	-0.0931111628804131	0.5412595578777634	0.80988371341216	0.22611161349143305
278														9.819611263484607	0.9937547529643558	-1.1062496320456898	-0.036822309643456785	-0.2565263922154107	0.9658355593005814	0.8767624139397912	-0.4720516213548043	-0.09195072745101607	0.4795120301045553	0.8434224782831234	0.24229472984727152
279														9.52015328311528	1.2211583441448655	-0.9970170800790548	-0.028079217750341667	-0.27106133885645783	0.9621524349643737	0.9082386929220758	-0.40894281653992337	-0.0887031537184208	0.41750932230278176	0.8713733547554336	0.25767119049775966
280														9.422573060977072	1.4100280047805247	-0.7734043218537706	-0.018996831042857543	-0.2835460691974931	0.9587704350119373	0.9340737990884032	-0.3470295355139622	-0.08412276349193981	0.356574337644882	0.8939642767603266	0.2714454155249257
281														9.324868197702232	1.5172968370275193	-0.5153431010521982	-0.009638452599571523	-0.2941122746612649	0.9557222766709285	0.9547339457152352	-0.286874017239505	-0.07865361486852757	0.29730488245318865	0.9117024010752879	0.28356399408784405
282														9.373159159725143	1.5968400730038117	-0.30138635001263814	5.2988270242526614e-05	-0.30240917048352867	0.9531782051640225	0.9707037461951172	-0.22901362095150007	-0.07271174967945776	0.2402794920816354	0.9252575074140965	0.2935375796364829
283														9.335997717537127	1.5352121944462538	-0.003199490273772261	0.010064259061709824	-0.3083876864998177	0.9512075196847576	0.9825130914029172	-0.173817940616002	-0.06674839879648325	0.1859213164524745	0.9352456139086147	0.3012455904295973
284														9.341110772203928	1.4372059779835797	0.2951111358073645	0.02014140106225004	-0.3117919837108789	0.9499368836174771	0.9907406258295748	-0.12137160451333806	-0.060843618800002386	0.13426591635285456	0.9423665383021049	0.3064603909062889
285														9.135189545317218	1.2912580623147543	0.6272319343497288	0.03000750252048734	-0.31261485883279694	0.9494058667553271	0.9959138382174787	-0.07158985513032562	-0.055050154308131816	0.08517732467865541	0.9471783584306441	0.3091892311857214
286														8.669793075703618	0.9801492501956833	1.087341251349281	0.03941659548293186	-0.3103016789522663	0.9498206146636003	0.9984789231231506	-0.024441985175639447	-0.04942094130535496	0.03855090244557752	0.9503238697412997	0.30886626640109643
287														8.517303265160562	1.1887812610125659	1.467939508596218	0.04808863385902512	-0.30444852442043685	0.951314132803561	0.9988276075078599	0.019957110512455717	-0.04410356244248337	-0.005558216773123015	0.9523196993227706	0.30505130143648085
288														8.739014780253212	1.5293447441075894	1.7144923469862714	0.05574247595643883	-0.2954398521210243	0.9537337522353675	0.9973706509216119	0.060780950538281225	-0.03946467701455725	-0.04630940568012237	0.9534259120825123	0.2980511182921204
289														8.84618175532315	1.945422669076632	1.877445265954234	0.06207689946026623	-0.28397670253481017	0.9568195707503355	0.9946447053402436	0.09697345397191023	-0.03574995613113735	-0.08263394394569601	0.9539147664452072	0.2884757349687591
290														8.8594405708422	2.2573989342486085	2.0188266689813483	0.06681531971572757	-0.2705552620942198	0.9603830294233722	0.991282782074133	0.1275428875874547	-0.033034191214884545	-0.11355245050043061	0.9542183513111571	0.27671859172517727
291														8.816269961195214	2.373591811759227	2.1259082811240995	0.06973404463624527	-0.2556387936814329	0.9642541004236237	0.9879160502912192	0.15181795080757637	-0.031195951493511676	-0.1384161861765717	0.9547775222415378	0.2631365471131719
292														8.936947060296813	2.5467115357913133	2.3278276532004005	0.07066659046135565	-0.2393500284377017	0.9683582998453821	0.9850807795366905	0.1694571795581654	-0.030002034657307608	-0.15691427844512318	0.9560312903786483	0.24775407370411343
293														9.125834165900619	2.4579438522022317	2.4041545728668137	0.06951597342437019	-0.22230110219112054	0.9724966577852472	0.9831733972191641	0.18034957795354697	-0.029053411718868327	-0.16893075634528737	0.95815251901594	0.23109770631492368
294														9.368778705985086	2.1488586642737477	2.453387959337282	0.06644192141815816	-0.2049680506839453	0.976510916107489	0.9823242188186321	0.1850831035774111	-0.027988817276156208	-0.17499885771235202	0.9611099536312052	0.2136423572946035
295														9.576238457834657	1.706234795639472	2.4584163320936634	0.06161943787619292	-0.1878854061103865	0.9802561497111646	0.9824702335253181	0.18454252931179385	-0.02638740441787535	-0.17594114104588726	0.9646984653485984	0.19596322573771421
296														9.880488484011584	1.0746878711225425	2.3856515600589088	0.05568431576499355	-0.17165060958707828	0.9835829020505432	0.9833456397533671	0.18012199035219098	-0.024236777211627147	-0.173004652410926	0.9685515664227431	0.17882184828545147
297														10.09960460823395	0.47636053138726125	2.3496026133891847	0.04919451951218348	-0.15681293957877906	0.9864023526080155	0.9845905031194641	0.17354730096829882	-0.021514541444785373	-0.16781370747625496	0.9722607861614501	0.1629341071592839
298														10.373748171320159	-0.15797050169266563	2.2777184760367906	0.04270190054620976	-0.1437340108594909	0.9886946352701557	0.9859019286186617	0.16630902436558012	-0.018403683342557098	-0.16178360496584887	0.9755418199835482	0.1488093499328638
299														10.58475465617904	-0.7230992583310221	2.152922529811413	0.03682183503679953	-0.1329376996022359	0.990440165022092	0.9870015490604923	0.15998839647138602	-0.01522022163779907	-0.15643559255077427	0.9781264136189047	0.13710078177861662
300														10.683349341595836	-1.1033464580146277	2.1074299210557217	0.03193501219037587	-0.12463648695025187	0.9916884092884719	0.9876907265317898	0.1559423329837565	-0.012207272696549865	-0.15312473255325298	0.9798712848656616	0.12808232265309624
301														10.718131214252052	-1.3870962498793737	2.022524942216643	0.028424276954008426	-0.11900296224549894	0.9924869548041615	0.9878500123844469	0.15510767074600157	-0.009693477590504762	-0.1527887872577352	0.9807037806863731	0.12196590111897754
302														10.819939682262325	-1.6277490352494772	1.9211679726527446	0.026303357669229727	-0.1160599614416552	0.9928938607552602	0.9873681739001477	0.15825751736837876	-0.007658156794221493	-0.15624411203118077	0.9805532334078344	0.11875661627475345
303														10.787802213078127	-1.616577774657061	1.733569919655702	0.0255301560964237	-0.11594462888119783	0.9929275170742795	0.9860947000516436	0.16607739962570722	-0.00596153198620103	-0.16421161243880283	0.9792727609645664	0.11857236597573634
304														10.780198154866818	-1.230389703244993	1.5772979499559419	0.02587373961569847	-0.1181955764259468	0.9926531898460997	0.9839643361558472	0.1783106455957394	-0.004415749156498949	-0.17647870911722335	0.9768495889237854	0.12091379510936567
305														10.690799000170161	-0.9245780578817723	1.5056317291254173	0.027039060177852597	-0.1223691460486866	0.992116264013454	0.9809542029167435	0.19421927273542802	-0.0027795463834010548	-0.19234796854834352	0.9732957752879833	0.125290034726984
306														10.39817885567045	-0.6238990413039588	1.4998173946920068	0.02866522266682564	-0.12784217188082536	0.9913801914998375	0.9770119973413043	0.21318297520578522	-0.000759034626752364	-0.21124834214879978	0.9686120989184488	0.1310142731467857
307														10.135463455799352	-0.220189371317893	1.4252742347342997	0.03048464743531576	-0.133999516607691	0.9905124006390076	0.9721064944058615	0.23453291219264874	0.0018101470609644399	-0.2325503167159561	0.9628283557557602	0.13741145348175324
308														9.83830070459985	0.10659161273218513	1.5012824242158715	0.03216474287648585	-0.1400367671012276	0.9896237331306921	0.966308671828917	0.2573372786561592	0.005007570476572409	-0.25536832235797213	0.9561209279550782	0.14359592982531247
309														9.647811720482853	0.4023808172955145	1.507770227327874	0.03336401783979903	-0.14533418066479836	0.9888199119374961	0.9596896442897023	0.28092069440255707	0.008907867280676829	-0.2790745938932646	0.9486630273110032	0.1488483512049512
310														9.47979538986319	0.809220278068509	1.644239505403283	0.03387410019848727	-0.14951586127457744	0.9881789071636089	0.9524872403717668	0.3042840676200013	0.01338891786526658	-0.30268895299419046	0.9407742627325368	0.1527192990925933
311														9.264541575329723	1.1503258542044106	1.6991190056162173	0.033693831650934675	-0.15247507157886664	0.9877327969930416	0.9449870863514033	0.32660196147635945	0.018181457281509328	-0.3253676879128646	0.932782134963365	0.15509144513938442
312														9.102688217570098	1.5317331896024815	1.8898475882525467	0.03269520471306264	-0.15382496526274425	0.9875570381758645	0.9375481614154538	0.34709265200723516	0.023024681302594108	-0.3463155621904286	0.9251294887660317	0.1555665786736583
313														9.134184886041131	1.9458174019721284	2.017463405686351	0.03093525216613166	-0.15375690598313063	0.9876243334567614	0.9306680724530577	0.36481870703717545	0.02764507030617286	-0.36455445284611115	0.9182952275048684	0.1543824020147834
314														9.195340677818628	2.1899366192061738	2.080089827242885	0.028546755815269886	-0.15250170554377096	0.9878908403961772	0.9249016991917984	0.3788773930696675	0.03176110597661025	-0.379133129078096	0.9127952403617003	0.15186480701096683
315														9.25883786209183	2.401438801289423	2.01721617205791	0.02556364124367927	-0.1503569795762647	0.9883012086095351	0.9206344984044981	0.38882276386072	0.035340892054524675	-0.38958775724329847	0.9089607455750848	0.14836354811652108
316														9.426081693232408	2.4362770129890325	2.108143229871742	0.02211788562474734	-0.14760154939193548	0.9887995660155756	0.9182136759024854	0.3942284572228292	0.03830886191670846	-0.39546737478727134	0.907081973215656	0.14424926116294648
317														9.521648486519226	2.335209887091785	2.072201816066599	0.018405780437063313	-0.14448037557718102	0.9893364687100038	0.917628236480462	0.395354004148993	0.04066486219227056	-0.3970134089174583	0.9070946105431537	0.13985607124220356
318														9.611173391114756	2.0266816290153318	2.0836730638646355	0.014710616798681991	-0.14113825169383593	0.9898805946487736	0.9186717681999383	0.3927454954720814	0.042345697523927084	-0.3947477423188142	0.908752424863448	0.13543725572752244
319														9.748308082479744	1.7443903756884698	1.9669582052512866	0.011162461534573814	-0.1377275579633832	0.9904072491808263	0.9209958927034949	0.38714095482396216	0.04345626216418724	-0.3894123329785292	0.9116759297444641	0.13116796121303917
320														9.877084016403437	1.4622998484650573	1.963548029084083	0.008035937523989511	-0.13439103366009592	0.9908957936028805	0.924308332408396	0.3791108382038601	0.043921281820747504	-0.38156196134903364	0.9155402898988872	0.12726526322347725
321														9.933592763202494	1.0079738632789552	1.8676731305940666	0.005526993000328995	-0.1312913754246997	0.9913284153535924	0.9281215450429453	0.36969318544404584	0.043787512641506876	-0.37223628245439766	0.9198312472270795	0.12389764585820426
322														10.066996188656775	0.6364525748794855	1.9422313242647011	0.0037330942030062986	-0.12862105866810153	0.991686788897971	0.9320369845050478	0.3597842240304824	0.04315520424608771	-0.3623439298821071	0.9241276618551579	0.12122269206592548
323														10.236364213200261	0.3646615039783881	2.0760612568677153	0.0029151839780265087	-0.1268725073351183	0.9919147486477229	0.9357673113216416	0.3501042366258663	0.04203049557744992	-0.3526060702316976	0.9280788707750653	0.11974376333086983
324														10.334832802855058	0.11756066999701154	1.8992064182237154	0.0035222179241497786	-0.1266031480174486	0.9919471946091523	0.9391181499816275	0.34123258496190934	0.04021720198247891	-0.34357632973763047	0.9314139605311302	0.12009720967505313
325														10.356736993433186	-0.6224747946703564	1.394022802720073	0.006147067534324591	-0.12714428090721586	0.991865185089847	0.9416031206600128	0.33467847804103135	0.03706588053001403	-0.33666864529393714	0.9337155070837835	0.12177674288311083
326														10.303283234736346	-1.2810086210857081	1.1143183955967433	0.010510031814891768	-0.12856377527856672	0.9916455490332076	0.9427392758038966	0.33189037858698156	0.033036865137818616	-0.3333649607982133	0.934515988246061	0.12469029883873653
327														10.213457171822883	-1.5858737343701175	0.9248576304944078	0.016191511736983605	-0.13077581364012109	0.9912797392837378	0.9422612557951537	0.3336528682946225	0.0286267236356324	-0.3344870113696654	0.9335809820500498	0.12862732672124413
328														10.158026328108415	-1.5228935427413517	0.9784703901726008	0.022298575066252574	-0.1339540541754436	0.9907366375177499	0.9400907127992364	0.3400201527898586	0.024814258106684972	-0.34019439333804236	0.9308289891632748	0.1335109271731636
329														10.121441834505209	-1.293489177306555	0.9443187463138017	0.028381845489362872	-0.1378584171741562	0.9900452149578087	0.936082474581968	0.3510887298204296	0.02205231447209599	-0.3506338141524812	0.9261380893837123	0.1390113943731575
330														10.441161420321766	-0.17050392051696978	1.7699034586487925	0.03493415518403542	-0.14307205585522648	0.9890955422177055	0.9307079024573652	0.3652184705500888	0.01995667989584804	-0.3640912043774048	0.9198618676749313	0.14591689173155376
331														9.852015887719862	0.2589960871088243	1.7815555604273163	0.0421631699174419	-0.14898138859791665	0.9879406930347339	0.9248618662290206	0.37988568231704134	0.017815632626709155	-0.37795872194974783	0.9129575095380689	0.15380438966479681
332														9.701471122330254	0.8120977031760596	1.9875506912844805	0.04962628640022049	-0.15502796210842512	0.9866628414319819	0.919106510898575	0.39369898911278167	0.0156309819084281	-0.3908714025379333	0.9060725340369185	0.16202502813437925
333														9.335993290196333	0.7863156633187588	1.7882189181675792	0.057033198973150956	-0.16082815830047548	0.9853332013651859	0.9139150486561497	0.4056869756481134	0.013317718622727404	-0.4018787106263731	0.8997512885721053	0.1701209001214128
334														9.0959133508849	0.9102032525506168	1.7354915770945765	0.06381979277128574	-0.16546511577047568	0.9841485302095887	0.9093492313527962	0.41588938157279315	0.010954347679302423	-0.41110948601158487	0.8942356052842357	0.17700754998933727
335														9.088048889599579	1.191970273049935	1.803700132388527	0.07005495242282339	-0.1687058141773224	0.983173764857364	0.9057433042520806	0.42374785529760733	0.008174468374237687	-0.4179968545857245	0.8899303924428277	0.18248979742165278
336														8.967318441431724	1.3767873451758936	1.7979987000320217	0.07534088212889042	-0.1708882490523289	0.9824056991975721	0.9032614126935785	0.4290571781259982	0.005362670729889107	-0.42242463448388323	0.8869651313520648	0.1866823075354838
337														9.007318113921452	1.4283560997963707	1.7635218838519036	0.07949881169615194	-0.17214679713898873	0.981858146156403	0.9020382540938874	0.43164800288004757	0.002643815598482646	-0.42427223228742184	0.8854634277283591	0.18959849963908884
338														8.964918584958768	1.4516527284451712	1.675442309746465	0.08217445142676733	-0.17278069323546813	0.9815264599478613	0.9020657969093822	0.4315982998257388	0.0004534686016371414	-0.4237035019668245	0.8853641847469336	0.19132590725891357
339														8.982957782826164	1.3124495967291732	1.5689397371391818	0.08311560789708083	-0.17280078038681668	0.9814436744009333	0.9032759666035751	0.42905899516660306	-0.0009522725457246084	-0.42093268331204114	0.8865936323729894	0.19174829114073688
340														9.142990030538298	1.0337936594112607	1.4075854106260552	0.08236606402130905	-0.1722490317012904	0.9816038419727204	0.90537857442615	0.42460275513814894	-0.0014619504662650162	-0.41653987620359983	0.8888435022021937	0.190923440481332
341														9.383814560568737	0.7074195465763673	1.3063258778645315	0.08026710484017097	-0.17135800373639348	0.9819336161044978	0.9080816533518121	0.4187915906106887	-0.0011465075702931093	-0.41102907771399394	0.8917679284372407	0.18922224785774033
342														9.506279506240707	0.3371618156255351	1.3293319647872002	0.07726672740310736	-0.17038216649516336	0.9823440182425036	0.9110954362827693	0.41219543570804273	-0.00016960591710007966	-0.4048888227910523	0.8950222567745851	0.1870834066853727
343														9.579520257597698	0.007198305051347557	1.3129692074531218	0.07374599076879307	-0.16953766101295126	0.9827606577106078	0.9139845502354615	0.4057465356127205	0.001410946191756579	-0.3989909407197234	0.8981240061019038	0.1848769831186598
344														9.783540644110333	-0.32265983757757105	1.2659771257937698	0.0701870965786778	-0.1687133371451423	0.9831630492157469	0.916483882330887	0.4000586184238608	0.00322416694619837	-0.39386681111964805	0.9008267933926819	0.18270200711622778
345														9.890742829964315	-0.5382290893267824	1.1955379126620653	0.06698329903423536	-0.1681518998656477	0.9834826771336971	0.9183291824295541	0.3957843596169043	0.0051238053148366935	-0.3901086391619102	0.90281763344222	0.18092973884088895
346														10.058599628032127	-0.6706991772029176	1.1193750862423375	0.06446113484426966	-0.16784381431678458	0.9837038253916579	0.9194519446723473	0.39314308605771564	0.006829006022391115	-0.38788256410004723	0.9040281897599255	0.17966677095825065
347														9.979738735376994	-0.8116402103447774	1.2282031673855027	0.06318659722817535	-0.1678062151575358	0.983792929475114	0.9198697526545506	0.39214624609385906	0.007807677359482457	-0.3871008810142127	0.904468018134968	0.17913824853733237
348														9.974662698910105	-0.7263902275128892	1.2809183291653636	0.0625005599775687	-0.16846464776101694	0.9837242207332532	0.9194629554298062	0.39307596249050697	0.008897263874187045	-0.3881772193145493	0.9039418953488754	0.1794644706851644
349														9.924351687511649	-0.6456743596981314	1.2185455711897852	0.06252513543999741	-0.16951494990913418	0.9835422152584574	0.918373662671589	0.3955929728755999	0.009798751074261258	-0.3907434236802719	0.9026465983809768	0.18041256963380062
350														9.772325317333628	-0.28702182129874515	1.2516093022417354	0.0630804956548075	-0.17080269876266668	0.983283931101965	0.9167857365685983	0.39924040687636425	0.010536163512783858	-0.39436628189072764	0.9007960566146952	0.18177376074422374
351														9.650447372429552	0.11857374579216146	1.478881722507912	0.06401646910018105	-0.17209884818287746	0.982997394776849	0.9151816132491751	0.4028932895207242	0.010936728478256164	-0.39792525234594345	0.8989210108309276	0.18329350733760436
352														9.57496746410525	0.3181695351624922	1.5218545565772663	0.06514400352325395	-0.1733051645716951	0.9827113404951324	0.9140692671667728	0.4054115383001636	0.010902267392340736	-0.40029193549978165	0.8975560174974444	0.18482305545565997
353														9.495376753426491	0.5224719755102655	1.5404112129790886	0.06623209861512791	-0.17436752274394074	0.9824506481880796	0.9135009380731514	0.4066985617918102	0.01059792319022973	-0.40140919926243457	0.8967676660365353	0.18622139484730726
354														9.51944415253309	0.5021222683751903	1.5678686812287232	0.06718746336260148	-0.1750602963992074	0.982262560312425	0.9135022831674313	0.4067106726334505	0.010000370689934368	-0.4012473344644035	0.8966271919759448	0.18724383886938215
355														9.483642245591863	0.3446623070856271	1.5852833576975252	0.0679788481970465	-0.17555577496812186	0.982119669934955	0.9138464292048181	0.4059531945235203	0.009311696180201445	-0.40032933945366334	0.8968735550407821	0.18802724866652318
356														9.497627076118667	0.25026045951390974	1.5854460744693561	0.06842849833748532	-0.1758919410023863	0.9820282917032945	0.9142735837410263	0.4050009827864959	0.008832780723777744	-0.39927603820993146	0.897238111669576	0.1885269643287023
357														9.46244812259142	0.25058902387744064	1.6493392682067205	0.06867270434082826	-0.17607465948542134	0.981978499747123	0.9146469131747684	0.4041641845026207	0.008505068206636435	-0.39837806653778673	0.8975795375633431	0.1888011913341395
358														9.468326201654373	0.30125107454725125	1.7718861527605185	0.06863041676574558	-0.1761035449983192	0.9819762763598646	0.9149611677815637	0.40345431240240914	0.008407095556528743	-0.3976630827048916	0.8978931780801792	0.18881714278825
359														9.429203250785953	0.28344835779169786	1.9295129394904988	0.06836609203717961	-0.17601949842594983	0.9820097828603548	0.9153127903295022	0.40265503802593205	0.00845081129574865	-0.3968986940250433	0.8982683655379458	0.1886408496455705
360														9.203877619878318	0.48133554121548117	2.164223952479562	0.06761187432905885	-0.17546171002483185	0.9821618108870214	0.9158994420824464	0.40131470863010155	0.008643878192081234	-0.3956726506125668	0.8989770258200697	0.18783892196487684
361														9.446549419178224	0.7068838078567385	2.3430314246222093	0.06658741659274017	-0.17435364775711581	0.9824290923345529	0.9169287617195633	0.39895704437327506	0.008655788604737535	-0.39345617530156285	0.9002411245098334	0.1864353932555127
362														9.53547908193786	0.8549336751521537	2.234295379078194	0.06519459547520998	-0.1731662063110994	0.9827324812545097	0.9185014900840454	0.3953212318645135	0.008725614620832545	-0.390005996664425	0.9020723854707808	0.18482622632311477
363														9.611194091885668	0.8939806870218042	2.1429600332887935	0.06347833943178269	-0.17202669262301173	0.983044921378556	0.9206264941753387	0.39034389902812083	0.008859949997005512	-0.3852497354254881	0.904454784672353	0.18315071345173442
364														9.617288658221094	0.795172905524037	1.8580320539569852	0.06128007389398146	-0.17096264931066418	0.983369983823091	0.9232612197653458	0.3840617280355966	0.00923629447974239	-0.3792538366595034	0.9073413699369106	0.18137851521075052
365														9.573365576536343	0.7412672755553062	1.6213052044415366	0.05864594536017165	-0.16973016865743507	0.9837440332425552	0.9263472516339597	0.37654461391012184	0.00974284996733521	-0.372077172751864	0.9107172028587114	0.17931189010822335
366														9.55505801925904	0.5511692056326637	1.5361203345021623	0.05580785234903243	-0.1680205378121819	0.9842025109140367	0.9299402440219229	0.367574122505548	0.010020329970775455	-0.36345099554772925	0.9146903100708905	0.17676258228986994
367														9.515192636423372	0.2800919098396192	1.4710210120226719	0.05282718627801078	-0.1659569483241699	0.9847170048764657	0.9338126645152083	0.35761767118108867	0.010173929920257951	-0.3538406364183683	0.9190037500260506	0.17386463544119748
368														9.603450759782817	0.07199765969030152	1.4489792594102369	0.049715289837970855	-0.16360239537965615	0.9852728790453771	0.9377005921933586	0.3472901347201295	0.01035189481688481	-0.3438691456885193	0.9233763147017113	0.1706756927372346
369														9.66934681779241	-0.20589879756249338	1.5046544204481354	0.046741801024645285	-0.1611845697201464	0.9858167875021729	0.9414253293722488	0.33705883600025865	0.010473313253425931	-0.3339663953952944	0.9275833523507646	0.16749797368443556
370														9.75216153464375	-0.4735391988091825	1.5833116140464305	0.04393220463195416	-0.15881554394328118	0.9863303627072308	0.9447654858224865	0.32757359115683427	0.010663919317860093	-0.3247893751260635	0.9313823948189146	0.16443447456846247
371														9.858554575820227	-0.7611251557510678	1.5919095249177857	0.04153803833002612	-0.1566583629307488	0.9867789766181443	0.9475021704489748	0.3195652429819844	0.010848616148998846	-0.3170397898784572	0.9345245918656844	0.16170825220779747
372														9.943988098650346	-0.9109065566850453	1.5577330038970763	0.03970737791465129	-0.15490944539541762	0.9871303803786142	0.9494922344720953	0.3135969962878206	0.011019101435448597	-0.3112680851233083	0.9368350909560024	0.15953742989382808
373														9.990202942670772	-0.8741320014681694	1.5403124593479145	0.03856412845278981	-0.1537932541829553	0.9873502129257347	0.9506437582144515	0.31008336357459354	0.011169270440353651	-0.3078786334979745	0.9381875839095736	0.1581606918084789
374														10.044225422268248	-0.7170513060612116	1.585595751694012	0.03809220550169115	-0.15341993280200683	0.9874266089685073	0.9510123331598906	0.3089458254639221	0.01131455285009697	-0.30679720673076344	0.9386238869469731	0.15767267611973146
375														10.034208353757156	-0.5647834475572373	1.4906336422807926	0.03828453663824202	-0.15376128070736028	0.9873660733535599	0.9506600607106233	0.31002430357018507	0.011418413440394515	-0.3078631891345069	0.9382123425701956	0.15804384526098053
376														9.941759944462058	-0.20945907234969513	1.4318758338478996	0.03876948551125145	-0.1548271850128286	0.9871805659423184	0.9497231317329557	0.31286963479718555	0.011771349677175302	-0.3106813480795708	0.9370918495018933	0.15917275380096138
377														9.83135551910743	0.15542941200085655	1.4667554168411039	0.03942103967302166	-0.15631419674531477	0.9869203886469089	0.9484177153126125	0.31678504524155876	0.012291150983878618	-0.31456290136044807	0.9355282502453741	0.16073914918440502
378														9.711923934845714	0.39049466074801614	1.392469742488714	0.040167799475554766	-0.15804329719391835	0.9866148509410179	0.9469685403395707	0.3210681491132825	0.012877392287046152	-0.3188057896156139	0.9337759687618044	0.16255863148574756
379														9.559215685493104	0.5822382488061578	1.4146321729087703	0.04096732346619211	-0.15972558710102286	0.9863110134401067	0.9454921367201152	0.32536832709726815	0.013419058176965593	-0.3230577313862772	0.9319995646711212	0.1643487561388685
380														9.428291374818265	0.765627876831659	1.4244927932536637	0.04163665141539222	-0.16106811670429072	0.9860646282268957	0.9441102671293637	0.3293353306015713	0.013929950411791125	-0.32698959121023163	0.9303737430725818	0.165778483046742
381														9.352671352416701	0.8530997820145287	1.3766504178140972	0.042073066669841785	-0.16201082175740456	0.9858916526142646	0.9429298462984514	0.3326786799269605	0.014429167738782889	-0.33032281486535864	0.9290195851302305	0.16676165153859718
382														9.244542412828336	0.9388372320260742	1.3839831175085469	0.04204250275694718	-0.16243742630813768	0.9858227581549943	0.9420240127213793	0.33520739242106445	0.015058669349624132	-0.33290116764325545	0.928035606321578	0.16711291386693686
383														9.29609293114513	0.9614337009712872	1.4325363748176818	0.041637839913116176	-0.16252683461688966	0.9858251966331477	0.9414385619733386	0.3368157946579716	0.01576561126286158	-0.33460383189219806	0.9274374094774986	0.1670333116019808
384														9.324206781942985	0.8903851378868947	1.363788462178729	0.04086389706835336	-0.16237687423947705	0.9858822914671933	0.941185250005921	0.33748430590235307	0.016573124053677113	-0.3354108929174463	0.9272206285355302	0.16661764291484066
385														9.341090764561441	0.7204014658812329	1.3630563773350814	0.03988113276759506	-0.16214514493106774	0.985960672250398	0.9411891285779177	0.33743074859925826	0.017421657397740542	-0.3355182848905757	0.927280670495739	0.16606636814556788
386														9.390223769127848	0.5646306827779044	1.359944713323756	0.0386290152914294	-0.161927651722635	0.9860462640186851	0.9413738687807228	0.3368608081177644	0.018440041514595218	-0.33514629395896317	0.9275258657104063	0.16544706127257888
387														9.434715163770509	0.4190824481105677	1.3342915049263635	0.03731047813666674	-0.16171253243879968	0.9861323364911242	0.941614811602047	0.3361272402740728	0.019494227796391206	-0.33461840175467816	0.9278294752797877	0.1648119838154342
388														9.435800688799912	0.2114305033234016	1.4006090755040563	0.035988963905878496	-0.16152836118833835	0.9862116319577615	0.9418324154641903	0.3354525963003049	0.020573206271109312	-0.3341504087351538	0.9281056751077403	0.16420523796436978
389														9.426194673956816	0.032760895871556325	1.481709711194832	0.03478569759341679	-0.16137307221404734	0.9862802273224069	0.9419577885047776	0.3350360612468637	0.02159542403788528	-0.3339243625705192	0.9282831298846206	0.16366108533638865
390														9.381330592721428	-0.16162696253271785	1.4840416603016564	0.033672539930864165	-0.1611780116807231	0.9863507533353708	0.9419369486415126	0.3350290517782576	0.022590246755591847	-0.3340972086661625	0.9283195479010504	0.1631008036346492
391														9.346121521831632	-0.32454080722105383	1.5508883822772805	0.03272389452300714	-0.160755125278903	0.9864516898580549	0.9417008695148881	0.33563264499466816	0.023456341760545563	-0.3348561169848201	0.9281748312200929	0.16236644852740115
392														9.296016090985416	-0.5788901854261753	1.6640907857929046	0.0318680968263276	-0.1600960151685737	0.9865868893978935	0.9411730603687745	0.3370506265919676	0.02429291151832419	-0.3364189275899067	0.9277748331578659	0.16141921855265945
393														9.308570563975492	-0.7438051360564595	1.8509867197179024	0.03089703569264582	-0.15892511578738117	0.98680706359317	0.9401900716141263	0.33971150003589234	0.025273028737923642	-0.3392462268377223	0.9270053421180113	0.15991589433523248
394														9.54471417556411	-0.800086709522842	2.0780705346677326	0.02955448733350849	-0.15714296537157035	0.9871335374267673	0.9386965145195092	0.3437159316502594	0.02661225204147938	-0.3434754516808711	0.9258322994819439	0.15766790202383565
395														9.78165333092394	-0.7858461469159126	2.3785152707116666	0.027644109604257283	-0.1549429556478769	0.987536573347685	0.9366621586890529	0.3490687489098585	0.02854836272834821	-0.3491415238612431	0.9241989445079484	0.1547788980650876
396														9.905379590225115	-0.7645515165995173	2.5919584829889275	0.024937158095541867	-0.15256589237951196	0.9879786367268076	0.9341444057963455	0.3555181967684104	0.03132157221358489	-0.35602298699032187	0.922133645546556	0.15138418836030415
397														10.082051106289624	-0.5718756748512935	2.848835687398868	0.021467028903917384	-0.15008249481962366	0.9884403934576715	0.9312220589432018	0.36278132661470097	0.03485951802968629	-0.36381952065223594	0.9197091680571612	0.14754796706150153
398														10.192743092286708	-0.149854445928831	3.1400499421612293	0.0171723432313238	-0.14733615768686964	0.9889373929961476	0.9280751880801867	0.3703388000095109	0.03905916636901757	-0.3719967149019905	0.9171375195932105	0.14309861724189352
399														10.286747217699022	-0.002665066314986331	3.505717046339632	0.01191680437495976	-0.1443361480232736	0.9894569551765718	0.9249312066262314	0.37758641834917495	0.04394041063969811	-0.3799476974300967	0.914655986178435	0.13800063103305762
400														10.408670687392496	0.10015965463775994	3.835148387876463	0.005495724207318725	-0.14110687840974595	0.9899791138609413	0.9218263046241648	0.3844070019276211	0.04967414792399072	-0.38756426708146585	0.9123157927683129	0.1321886271474639
401														10.642360320376952	0.5443467148465255	4.185088806635031	-0.0017971411109189428	-0.13764008179348847	0.9904806803606567	0.9189142688027105	0.3904722460383598	0.05592845129751689	-0.39445321252920174	0.9102673414759208	0.1257777013931804
402														10.730197783853312	0.8844679443994283	4.60362380288855	-0.009774647378165635	-0.13388841690802467	0.9909482065610169	0.9164691918061697	0.3952036213611713	0.062436512820323364	-0.3999858456730425	0.9087837968850893	0.11884163319452529
403														10.795821145562291	1.1755838834910786	4.924231753967354	-0.018331979685966115	-0.12980492967835994	0.9913700715434122	0.9147478824968234	0.3980829774084528	0.06903806605924107	-0.403609031103582	0.9081192781396166	0.11144113550574808
404														10.889689730616585	1.5483266675592757	5.154069774498578	-0.02707736506647282	-0.12545002664304494	0.9917303600860045	0.9139572982011279	0.39874535083320706	0.07539364863035053	-0.4049060055938306	0.9084406617958938	0.10385899397686735
405														10.940974807632895	1.9077217058390916	5.477572103079793	-0.035435181402371424	-0.12081833719068752	0.9920419735663699	0.9144007665371667	0.3966303842795469	0.0809665142049521	-0.4032562288114379	0.9099930041845026	0.09642171052227252
406														10.998468148236245	2.2028978960718164	5.714330826877604	-0.04294491920356208	-0.11583651221036179	0.9923394763655924	0.9162432773626099	0.39142660189728773	0.08534325992698788	-0.39831393473292237	0.9128894334836397	0.08932464179327207
407														11.253638085625294	2.317791030956532	6.013581438684744	-0.049140896177894466	-0.11068431451326083	0.992639992567075	0.9194424717697447	0.3831948527901429	0.0882453732559556	-0.3901419144731512	0.9170118250687229	0.08293732124534842
408														11.662998759735066	2.182211380592731	6.25702700567983	-0.0536292149228893	-0.1055446631457404	0.9929673868703883	0.9237432360111912	0.37241457454219407	0.08947524010657826	-0.3792391609925428	0.9220453940831815	0.07752386741941764
409														12.158516841360049	2.0803320219742756	6.640700726262353	-0.05618999611212899	-0.10074461083111708	0.9933243215211262	0.9287777962106539	0.35978559799017606	0.08902880851124773	-0.366352957682888	0.9275801026689491	0.07335300627555688
410														12.374898370984779	1.9013263124996427	7.010100000435914	-0.05685494615197964	-0.09696407397261564	0.9936626607942397	0.9341405901850901	0.34608361079667993	0.08722093846424372	-0.35234765909071497	0.9331795661589279	0.07090151223160204
411														12.535281538410558	1.7277411420486595	7.2079163245321585	-0.055733675097729085	-0.09437337618092578	0.9939755647541413	0.9394855008078629	0.3320784042630064	0.08420764332252989	-0.3380247790205621	0.9385188326775062	0.07015446869409922
412														12.977154952630098	1.60357137642097	7.40493211379647	-0.05306235836022513	-0.093553723716499	0.9941992189214536	0.9445353891526553	0.318422269177934	0.08037510267376219	-0.3240945614531251	0.9433212386405558	0.07146856628024778
413														13.611906961844392	1.431295933558495	7.6259741309266795	-0.048928015201067654	-0.09537906450943434	0.9942378404495529	0.9490874083791001	0.3056994682795573	0.076032403288603	-0.31118987866691444	0.9473387298885771	0.07556580091794154
414														14.021898024804017	1.2849506197462133	7.696319925904956	-0.043219106894316406	-0.10079577473434953	0.9939679675899824	0.9530156184661007	0.29441194746597077	0.07129401201342578	-0.2998221802317728	0.950348260894393	0.08333572616873017
415														14.298759113886009	1.3396194511141468	7.780321642745186	-0.035991769567351645	-0.1101470664753113	0.9932634173623296	0.9562338770768506	0.2850035481152927	0.06625518766306665	-0.2903814127212429	0.9521767699899935	0.09506857439468525
416														14.53422173033044	1.5793403206917223	7.736179925176856	-0.027442221183180487	-0.1235806702813092	0.9919550102849198	0.9588195582871022	0.27737006362416367	0.06108111370344743	-0.2826870692880371	0.9527820662344297	0.11087991305638178
417														14.624078689544692	1.744811065557131	7.676572693653538	-0.017765823273251075	-0.14088352140887567	0.9898667632155649	0.9608935069567648	0.27122796445973274	0.0558485414613501	-0.2763476864599264	0.9521487408438165	0.13055547287563776
418														14.819306532621203	2.045066426506151	7.564405273107047	-0.007178381221712243	-0.16163907786196785	0.9868238340002575	0.9625759398354763	0.26624420666990845	0.05061207824778696	-0.2709170184630061	0.9502561922569319	0.15367868487357453
419														14.92363260353528	2.308926213437889	7.350725373811289	0.004032708764642928	-0.18545519393236276	0.9826444465337041	0.964074085164782	0.2617184801054758	0.0454378199847727	-0.2656028907480273	0.9471588083393353	0.17984798083799028
420														14.969080941455026	2.4172330809017004	7.021305831755978	0.015773821471552874	-0.2120732970510475	0.9771264520184081	0.9655555847411701	0.25707157399778835	0.04020719609022011	-0.2597183076552775	0.9428356816116998	0.20882355745576422
421														14.907575748972837	2.6165268095735295	6.864035225502199	0.027838838609159366	-0.24066767173209275	0.9702082615850818	0.9671436145861965	0.2518483844634719	0.034722039229939494	-0.2527018556125764	0.9373641037644831	0.23977136848207653
422														14.89963104801565	2.7116003179548342	6.550011608007296	0.03988181919962225	-0.2709549137856603	0.9617654990655123	0.9689431150379703	0.2455766496142146	0.029006016354749198	-0.24404647163571813	0.9307392459006242	0.27233394173788544
423														14.81624676050688	2.5489924264028403	6.370693965556693	0.051576877664078924	-0.30203395367834673	0.951900896373068	0.970953855070197	0.23816277231683192	0.02295877188969697	-0.23364168509653171	0.9230677032091343	0.30554472385800724
424														14.670768136351962	2.3698870121972484	6.202901749872214	0.06268338898863834	-0.3334986029401285	0.9406643793521055	0.9731043213654822	0.22976495162550503	0.016614654505998416	-0.2216726696837556	0.9143231096508018	0.3389313775290873
425														14.657707723016816	2.2128179653061775	6.152085623307535	0.0732416561564414	-0.3647063603630183	0.9282375399186471	0.9753001461353077	0.22066861903554486	0.00974605157965347	-0.20838734307032492	0.904596391372255	0.371860301678446
426														14.473721296481315	2.1364683572114136	6.208092856213644	0.08329333009715018	-0.39560529958304314	0.914635811732264	0.9774434057850966	0.21118465573119802	0.002330165428910125	-0.19407887481268504	0.8938106556343495	0.4042720646123549
427														14.39298014441012	2.0487246737207276	6.169696249228184	0.09294606633928981	-0.42578449337729324	0.9000381069440857	0.9795003247990695	0.20135628854171914	-0.0058956579972806455	-0.1787180530068781	0.8821355963026007	0.4357713245100979
428														14.36715697854903	2.0776318657885233	6.116807332837023	0.10222412027834138	-0.4555199332804306	0.8843369378339407	0.9814451178374716	0.19115683711629705	-0.01498480219038778	-0.16222117588746165	0.8694599783819181	0.4666086541051331
429														14.364854721579244	2.213481647546863	5.997349639197791	0.11121144921935411	-0.4848032722677995	0.8675239482348394	0.9832916675373247	0.18026874301749074	-0.025311595022059874	-0.14411630759285327	0.8558440088528558	0.4967509661756828
430														14.346792788510728	2.222139682202722	5.7881528368612525	0.11994188649752385	-0.5142063741284104	0.8492383344321714	0.9850081273850051	0.1684689137827001	-0.037110834999540376	-0.12398763183842593	0.8409578050619371	0.5267039370049444
431														14.134751274028261	1.9946488182374498	5.554968399493307	0.12836181664749585	-0.5435995846660557	0.8294713591064173	0.9864925540896807	0.1558115832703834	-0.050548899536938974	-0.10176288494620139	0.8247558681632213	0.5562572005626156
432														14.034618624929102	2.0302537291217444	5.280263973570839	0.13667770360202575	-0.5732330523603301	0.8079127880035915	0.987580258604715	0.14264360541892027	-0.06586375822359236	-0.0774883097784515	0.8068808273312428	0.5856098465129564
433														13.868398282735857	1.9116618205735916	5.101730504271777	0.14475561868636477	-0.602755758921508	0.7846854821810358	0.9881477926113302	0.1290076238463963	-0.08319238514949723	-0.05108572027566355	0.7874277922936576	0.6142863510671982
434														13.572979501616564	1.6408018933934574	5.014300159526131	0.15218260014028634	-0.6323106874650037	0.7596207282138085	0.9880842362559605	0.11523665239380804	-0.10202968199276391	-0.02302169144562577	0.7660964093784826	0.6423132360930914
435														12.950165414498677	1.2855334317207636	5.000983159100477	0.15878453465322812	-0.6614112152579179	0.7330229709129188	0.987294213785183	0.10175782974813008	-0.12204703810927903	0.006132453118862402	0.7430885199059358	0.6691650354006478
436														12.34659418385484	0.9457271671626032	4.941203664688951	0.1644406870966445	-0.6898949176356322	0.7049852927882314	0.9857475971640124	0.08920838589257407	-0.14263077708481509	0.035509648161592855	0.7183918613869219	0.694731745625946
437														12.11087836747391	0.8877023127683531	4.753184210144779	0.16926228967111462	-0.7175163128950297	0.6756630950590795	0.9834352055644571	0.07785058523858596	-0.16369020384373972	0.06484962414453221	0.6921774534810656	0.7188079709774937
438														11.90133550417045	0.885100407083716	4.663784868136115	0.1730716264906949	-0.7444432078423556	0.6448647318633949	0.9804071564889209	0.06768658573819969	-0.18498738772255116	0.09406391236374079	0.6642460661595883	0.7415720760535269
439														11.345299752477146	0.7105372103610561	4.486551768456255	0.17589610712003728	-0.7705505371985274	0.6126274798954718	0.9766656712385781	0.05869844537649266	-0.2065881389007615	0.12322632074404308	0.6346702782811271	0.7628950856719701
440														11.023109000223872	0.6278635313815069	4.332779299306014	0.1774283281267075	-0.7957412250977167	0.5790639783807552	0.9723034452305506	0.050779040312973256	-0.22813921069753973	0.15213546191129926	0.603504259922728	0.782711574901098
441														10.511511964893076	0.21621523728274908	4.209544383622098	0.17751152256146574	-0.8199472445470769	0.5442207047858134	0.9674145792217114	0.043931949606074716	-0.24935720505549785	0.18055107661598296	0.5707508212551835	0.8010273458311795
442														9.660255315201294	-0.3876385418557387	4.151524340477289	0.1760210276959091	-0.8429916686070766	0.5083125460461642	0.96228881845254	0.038556572013380086	-0.2692835320545851	0.2074049847281683	0.5365430433931977	0.8179882241794649
443														8.677506968501504	-0.5167185007135371	3.9748375515543852	0.17328579661832805	-0.8644177357628501	0.47196823069882515	0.9570740990305099	0.03474839832363291	-0.28775287623042173	0.2323385496539257	0.5015720555539056	0.8333332295259446
444														8.15244568695175	-0.4787860172569739	3.8378477261764363	0.16929708902658536	-0.8840294093109508	0.4356954201279325	0.9519475588663747	0.03219907465490757	-0.3045637285687798	0.25521430370469855	0.4663209442698224	0.8470008477680684
445														7.733883806455842	-0.4302505897079094	3.74000105255952	0.16448225161689434	-0.9016784117975494	0.3999020262530385	0.9467675790150365	0.030579604393021653	-0.3204622272923488	0.2767250263872847	0.4313246219420073	0.858709689171807
446														7.256263827085313	-0.3797597745754964	3.6985455179157998	0.15853048717843682	-0.9174480448564146	0.36490706984670657	0.9415605030483789	0.0292254572111445	-0.3355736755916392	0.2972068366209812	0.39678074252657636	0.868465968605453
447														6.672861577065792	-0.4951912131314161	3.6609245525627645	0.15161502261552479	-0.9314643931612494	0.33073700910245685	0.936165563974487	0.027946316392634063	-0.3504469149934306	0.3171859419104571	0.3627576155959066	0.8762419703378446
448														6.312694036687519	-0.5151407357002199	3.4777391487894036	0.14370272589242344	-0.9439353115230231	0.2972131461275237	0.9304664525738593	0.026596930004191444	-0.3654104321841001	0.3370188528935817	0.3290573369099766	0.8821221921140001
449														5.823277593235592	-0.49363049481456506	3.331794477485111	0.13478370104377013	-0.9549976605859678	0.2642211615451595	0.9243103615762587	0.025091521796201666	-0.38081592799765834	0.35704860931770976	0.2955501375558475	0.8860961611332091
450														5.395838407732962	-0.4410411941029739	3.2114206134094894	0.12488889272225018	-0.9646282771063435	0.23215307769111732	0.9175327557540474	0.02325202475231175	-0.39697983004593823	0.37753994039438316	0.2625864245382185	0.8879819609965287
451														5.119491674164353	-0.5487012003009846	2.9127427223718727	0.11380424714399417	-0.9729464085462853	0.20105690594673226	0.9099828604643729	0.020862494123204733	-0.4141206949671028	0.3987226943541911	0.23008703230700264	0.8877387963647247
452														4.1517532779839055	-0.9121660282101607	2.621032446490875	0.10176222386818196	-0.9799933141569481	0.17104839666329108	0.9016402856476251	0.018206586787320955	-0.4321033620498969	0.42034419835495596	0.1981959242901738	0.8854541944697607
453														3.1951150094984415	-0.9823826653192673	2.3519324913185993	0.08940073553529382	-0.9856786577298526	0.14298633564653987	0.8921982684027834	0.015443199882923031	-0.45137983720637276	0.44270730550198056	0.16792585052115286	0.880801425056706
454														2.7323661914797324	-1.7157560144579245	2.015976262215737	0.07630967514914555	-0.9901515422593103	0.11737443009506265	0.8817761623851563	0.012063190871997698	-0.47151381620827615	0.46545422216146903	0.13947904067455663	0.8740125652898629
455														1.9814167545413144	-2.8618562730667403	2.0003077487183423	0.06297551989241218	-0.9934917396970834	0.09491178561139105	0.8712173159368609	0.008334359582980067	-0.4908267788763292	0.48684132148581205	0.11359886268798577	0.8660720674920441
456														1.944671312331147	-3.6091009538828116	2.55038985635629	0.05066104671529448	-0.9957453444425686	0.07697186087566016	0.8613746694040094	0.004559709459350858	-0.5079496903816171	0.5054375700864007	0.09203487420862555	0.857940816533727
457														1.0301848512190488	-3.6677633374658996	2.7575864059924897	0.03894481542727385	-0.997329955019054	0.061775902850777886	0.8519383203770297	0.0008323775862573157	-0.5236414855802785	0.5221919183829855	0.07302237992045368	0.8496960235320933
458														-0.018662664486387617	-4.306712260246763	2.7178163332828587	0.028708848668975218	-0.9983580404750999	0.04956838737361374	0.8434657173716499	-0.002416063528889234	-0.5371775742301168	0.5364153107684662	0.0572309851019806	0.8420114184008594
459														0.5576991310732327	-4.555679999613446	3.058012541789829	0.02040080806563177	-0.9989808514808757	0.040262456517375866	0.8362868046601882	-0.005018855976766712	-0.5482692690967974	0.5479125727536476	0.04485609723581402	0.8353321154841646
460														0.931032087845394	-4.56107804127627	3.620027401842943	0.013472648391587572	-0.9993697410252879	0.03284217514668469	0.8304517708237055	-0.007110671099638699	-0.5570451460090864	0.5569275932121591	0.03477871589868764	0.8298325715705246
461														0.8727396751783576	-4.623195662087489	3.9354364294781865	0.00790583301927289	-0.9996162333258408	0.02654964925813974	0.8258230526580034	-0.008444868676882211	-0.5638660921634209	0.5638739074499624	0.026383143567230205	0.8254393655700114
462														1.125858949384306	-4.4556729234829655	4.038871987986222	0.0033950120425452757	-0.9997821189549402	0.020595837229918257	0.8221765281390575	-0.00893302544283514	-0.5691625054706639	0.5692224788871543	0.01886572750804949	0.8219670637289278
463														1.2065415672426294	-4.265923121975645	4.1729919629986	-0.0003135387190419392	-0.9999065548500637	0.013666867283633088	0.8190417066598622	-0.008097923111763827	-0.5736768309710412	0.5737338968939976	0.011013864405953977	0.8189677101972185
464														1.4085803237348393	-3.857014156353136	4.239262521155142	-0.003559704850103429	-0.999980804428892	0.005071417467120143	0.815978477534766	-0.005836301739401251	-0.578052819197391	0.5780713214659807	0.002080470079651009	0.8159835898734864
465														1.3475168905335617	-3.4774368868820265	4.2393562187637075	-0.006679272636160416	-0.999960748334047	-0.0058214352408723635	0.8123368873342031	-0.0020309259854607298	-0.5831849250587836	0.5831502111748132	-0.008624217695154313	0.8123185668664212
466														0.8142534891450495	-3.5210915490151384	4.078973394484222	-0.009972028398819555	-0.9997732414342879	-0.01881553511303624	0.8080134102161174	0.0030284452875611323	-0.5891563098449005	0.5890796954237459	-0.021078288144842583	0.8077999865117289
467														0.5908890084941435	-3.517006889657396	3.8641322191534195	-0.013450104624389336	-0.9993494294515248	-0.03346360023226924	0.8030755049630123	0.00914235020467613	-0.5958071422542182	0.5957254636273289	-0.034887466053687644	0.8024300821245157
468														0.36701822356500763	-3.358120853326264	3.5517574218794796	-0.01717090772090457	-0.9986385398729495	-0.04925674175647615	0.7976359518625319	0.016023867619692433	-0.6029263006063508	0.6028947239978082	-0.04964173996679183	0.7962748579659392
469														-0.2338462005267675	-3.1099977688733205	3.293292647574616	-0.0208429232484304	-0.9976516396442703	-0.06524399179662832	0.7915584846044232	0.02339749210383346	-0.6106453330813226	0.6107378635725875	-0.0643720690855088	0.789211947907811
470														-0.6784193067717915	-3.138064197788808	3.0422223838226197	-0.02430496446639202	-0.9964572899183122	-0.08051172629462527	0.7850125749265588	0.030843098978674155	-0.6187115325032871	0.6190028480624801	-0.07824047938276546	0.7814818625384046
471														-1.3100511656406952	-3.346301292194034	2.9048568543276954	-0.02742184939333986	-0.9951447574527796	-0.09452488503086187	0.778159283002837	0.0381050373291128	-0.6269099906738269	0.6274680648864608	-0.09074644810897886	0.7733362203487206
472														-1.7137149964526723	-3.5074724692608688	2.9462028285645157	-0.029999618549150564	-0.9938410367138572	-0.10667716077226402	0.7714780460243734	0.04483733747489371	-0.634674119269549	0.6355483045287122	-0.10133906902911871	0.7653814380418376
473														-1.7872393019362374	-3.8614672638120395	3.122553739182209	-0.03202461285187386	-0.992657261680728	-0.11664469556823648	0.7654556342019948	0.05068508673782324	-0.6414894340913198	0.6426912915545924	-0.10982979019782524	0.7582119235048946
474														-1.9973230287875883	-4.196791858642686	3.353427632801079	-0.03382208126445091	-0.9916781610116862	-0.12421953063597291	0.7608658324295453	0.05504068622111252	-0.6465707292335496	0.6480271999385798	-0.11638276432869926	0.7526724389181356
475														-1.8868838031201762	-4.459445963899092	3.5058374287625926	-0.035538223191139584	-0.9909970765029786	-0.12908070752426964	0.7580930499895732	0.057428235294277596	-0.6496129042348924	0.6511773661990434	-0.12094127564042967	0.7492270988135321
