// Start Time: 1748433505.005953
// Update Rate: 100Hz 
// Filter Profile: 46.1 human
// Option Flags: AHS Disabled ICC Disabled 
// Firmware Version: 4.0.2 
PacketCounter	SampleTimeFine	Year	Month	Day	Second	UTC_Nano	UTC_Year	UTC_Month	UTC_Day	UTC_Hour	UTC_Minute	UTC_Second	UTC_Valid	Acc_X	Acc_Y	Acc_Z	Mat[1][1]	Mat[2][1]	Mat[3][1]	Mat[1][2]	Mat[2][2]	Mat[3][2]	Mat[1][3]	Mat[2][3]	Mat[3][3]
0														9.452032669738395	-0.9276383553495195	-2.2615784713552913	0.25960377239483756	0.004654708810381991	0.9657039997039777	0.3494787468458988	-0.9326643771389511	-0.08945258587113397	0.9002613436449384	0.3607152523832378	-0.2437499124855379
1														9.464003851738362	-0.9306798237380384	-2.308866556825698	0.25959414754827786	0.004676063089666227	0.9657064838721261	0.34933122205241457	-0.9327258064471808	-0.08938829502134552	0.9003213736539026	0.36055610440185026	-0.24376365545444306
2														9.496110951630722	-0.9804722063296311	-2.221241470349736	0.25963238548197687	0.0047670926160642	0.9656957591482568	0.3490862815528103	-0.9328308609093023	-0.08924882613705235	0.9004053489626603	0.36028302730381234	-0.24385722830424794
3														9.474109021982503	-1.0252846535666853	-2.2738111590955175	0.25958400095294104	0.004835203739524591	0.965708427660265	0.34888980209400944	-0.9329175276506849	-0.08911112498973892	0.9004954483194609	0.36005764456116085	-0.24385741766245767
4														9.462507841328556	-1.0202643920900891	-2.225832616693661	0.2594511955146614	0.004890667297093171	0.9657438369046953	0.3487493731236069	-0.9329836692508253	-0.08896823959795103	0.9005881144518313	0.35988547384502245	-0.24376934553679924
5														9.443939708990706	-0.9746084434915057	-2.2335555147853317	0.2594357117691798	0.004995202566370094	0.9657474615085148	0.3485376188829376	-0.9330784461498535	-0.08880395010351425	0.9006745470380694	0.35963823667943906	-0.24381488682168817
6														9.549279683853255	-1.012599745584683	-2.255152771550742	0.259528178292294	0.005227333165226639	0.9657213882172557	0.34838126313040274	-0.9331587873670459	-0.08857298154251123	0.9007083990792741	0.3594264216048184	-0.24400210507372067
7														9.53364662663443	-1.022408334623739	-2.283912947989318	0.2594012604238466	0.005383180275284921	0.9657546310842329	0.3482010008368649	-0.9332496029669032	-0.0883246374366895	0.9008146585767378	0.35918825138392374	-0.24396055205920864
8														9.496640922623365	-1.0420429989249451	-2.3161115717861827	0.25923662800705016	0.005648233112653861	0.9657973225072848	0.34831445874629385	-0.9332345556357966	-0.08803579951096185	0.9008181883864309	0.359223275456871	-0.24389594060218855
9														9.44815543224743	-1.0214909797077176	-2.2531341214217586	0.2590599534143246	0.005922908990979581	0.9658430823306925	0.3482153272272991	-0.9333054670217803	-0.08767548751641888	0.9009073350911032	0.3590345726755869	-0.24384451850042815
10														9.433062442664156	-1.0297664340833277	-2.2804318719057415	0.258842635065995	0.00637710856254875	0.9658984536474189	0.3485591275942727	-0.9332173796260248	-0.08724595655190354	0.9008368469610981	0.35925569564074916	-0.24377924502891918
11														9.464936927572923	-1.0375892199339618	-2.2705131363994435	0.25858407673952116	0.006863712920274073	0.9659643703065438	0.3490238276922737	-0.9330850935818111	-0.08680193453176654	0.9007311713046261	0.35959018003884796	-0.24367654679887735
12														9.437831603296882	-1.0772396993283782	-2.2980319200297115	0.25828972171785136	0.0074725549381012835	0.966038602012162	0.349667553784195	-0.9328929855751956	-0.08627444172624518	0.9005659451064604	0.360076156371531	-0.24356957964247672
13														9.413964609365982	-1.0260464109758476	-2.2806550425391774	0.2578864407569089	0.008041737739054283	0.9661417670962527	0.35028228603758105	-0.9327120581352327	-0.08573527102321818	0.9004426154742009	0.36053231070637026	-0.24335067120249676
14														9.475117036245503	-1.0270445826734969	-2.161724643491739	0.2575800708361651	0.008676669038895746	0.9662179994817042	0.35107731785163204	-0.9324604469588627	-0.0852187288533642	0.9002206529502315	0.3611678699326236	-0.2432294096736476
15														9.54433427531842	-1.0482351444674043	-2.165931132298872	0.257300591757844	0.009165493235116368	0.9662879483957261	0.35179121517200007	-0.9322266555977385	-0.08483161863871277	0.9000218588505904	0.36175883724770774	-0.24308681014056616
16														9.532273104965299	-0.9666763501508203	-2.1480699808612593	0.25698731151139964	0.009557187963164515	0.9663675190528602	0.3527271307189832	-0.9318953623187052	-0.08458489784614664	0.8997450155332325	0.36260128770748523	-0.24285636326021454
17														9.551255676914481	-0.9344994659694074	-2.1682135656628465	0.2566745850757369	0.00975199915586028	0.9664486824910377	0.3535620611631113	-0.9315865527002113	-0.08450067298092467	0.8995065459919072	0.3633887633659039	-0.24256252879846973
18														9.620460343872425	-0.9236002269443843	-2.123355905863977	0.25646586921232356	0.00979072676716497	0.9665036986988399	0.35421759635774575	-0.9313322281951777	-0.08455870833655343	0.8993081520589638	0.36403903965697954	-0.24232297713158685
19														9.667707771838217	-0.9605710192286302	-2.130949025094253	0.2562934502119213	0.009655156608106535	0.9665507981111715	0.3546943011276996	-0.931133351752055	-0.0847504218427072	0.8991694056883844	0.36455103786144544	-0.24206800835331566
20														9.729586476156312	-0.9480412384505094	-2.1890890630721733	0.25606873906671374	0.00944423811585099	0.9666124390050003	0.3551482210098169	-0.9309386659879797	-0.08498788903181315	0.899054248633722	0.36505342969890403	-0.24173839471362796
21														9.694722470234145	-0.8446790921267407	-2.253231476557646	0.2557611240367027	0.00904506771202468	0.9666976953430522	0.3555609900786063	-0.9307467844122389	-0.08536278838346192	0.8989786592382518	0.36555247237074373	-0.2412649170058362
22														9.565126492119726	-0.8354918607510092	-2.3066282110319243	0.2552031858661744	0.008454262540626006	0.9668504844952239	0.3556456395224641	-0.9306801567423018	-0.08573578561360787	0.899103727615681	0.3657362045122401	-0.24051926263101764
23														9.421420369699607	-0.8408192494689575	-2.2591956700457736	0.25444086878246763	0.0076100611772236815	0.9670583908234819	0.3554257191227378	-0.9307220990697579	-0.08619125529465796	0.8994066947045191	0.36564800187073787	-0.2395185509488339
24														9.357997569915307	-0.8393900505777571	-2.2178252227575292	0.254026410558113	0.006935497352751341	0.967172415660947	0.35498837020515134	-0.930854585142715	-0.08656210682437881	0.8996965264788189	0.36532402082980353	-0.23892366991718045
25														9.433829695405839	-0.9086863139563254	-2.163265111811389	0.253927624122101	0.006396604288262664	0.9672020704905901	0.35428325035269675	-0.9310958955044922	-0.08685512013817104	0.9000023001233017	0.36471840758078977	-0.23869717833376136
26														9.440163907939498	-0.9135454835551556	-2.184592065858951	0.2538482070050323	0.006009128100235156	0.9672254019512749	0.3539083842559919	-0.9312157790325977	-0.08709780958224692	0.9001721742831443	0.36441880201244714	-0.2385141366589607
27														9.396632677468748	-0.8617694890449009	-2.2231222533333517	0.2536178752093668	0.005583640341441876	0.9672883728934321	0.353391119620752	-0.9313950685351335	-0.08728082768641202	0.9004402756138117	0.3639670991572881	-0.238191647174185
28														9.341680125576456	-0.8798310481911993	-2.1823717786389705	0.25340510694080187	0.005242169191690932	0.9673460453418342	0.35287214461017813	-0.931581605271881	-0.08738971493990785	0.9007036701016232	0.36349447365982135	-0.23791735179308637
29														9.360355384004142	-0.8504898758478701	-2.2035998985772736	0.25339003461209114	0.004998830863018139	0.9673512816186713	0.35223467565436706	-0.9318171765659781	-0.08744988692543801	0.9009573927916603	0.3628935947996492	-0.23787394818988056
30														9.416453265680962	-0.8724394859305072	-2.161866440213803	0.2534650875241069	0.004946695549115532	0.9673318870013232	0.35164887265567635	-0.9320454721780687	-0.08737452805224483	0.9011650901840285	0.36230755994804326	-0.2379804870952793
31														9.475327242186399	-0.8757338688242062	-2.17181296443605	0.253441223862241	0.004854152474261575	0.9673386083740098	0.3512034826199894	-0.9322169203251764	-0.08733686080363862	0.9013454719710973	0.3618674490240867	-0.23796699244643094
32														9.472118996789563	-0.8910641785647581	-2.247151406799489	0.2534256088973487	0.0048564152439171115	0.9673426879787673	0.3507485117355721	-0.9324002113036859	-0.08720852868913315	0.9015270058463526	0.36139488263092595	-0.23799747170482716
33														9.407295563103407	-0.9201898783411985	-2.2613946615856637	0.25334275701965764	0.004878593535059789	0.9673642782275962	0.3501808199231926	-0.9326325468949801	-0.08700532069996034	0.9017709469835447	0.36079458393565456	-0.23798409060081865
34														9.460229603126743	-0.9561904886356962	-2.2954127918325113	0.2533631533821395	0.005004087973460886	0.9673582953651721	0.3497775206140712	-0.932804332255639	-0.08678573499247555	0.901921725307319	0.36034849358456467	-0.23808856459310151
35														9.479165924465688	-0.9621418479687971	-2.2398388497912514	0.25333913802602237	0.0051317261450045115	0.967363916285389	0.3493009062784118	-0.9330068893030845	-0.0865275758707143	0.9021131625341204	0.359821914146088	-0.23815967770160662
36														9.523188978057277	-1.0499804546968734	-2.2471439648965847	0.2533512855931477	0.005345486756427847	0.9673595773339072	0.348975474515105	-0.9331552701010257	-0.08624013027377986	0.9022356921975854	0.3594338154014145	-0.2382815311154547
37														9.536056710821997	-1.0899532862427188	-2.2158967061779626	0.25335968868592257	0.005510178447287101	0.9673564524426611	0.34876260173953544	-0.9332544065090427	-0.08602825326207461	0.9023156408800866	0.35917384462810276	-0.23837079006922152
38														9.573351781468537	-1.065916574177638	-2.183140749049758	0.25335635142102714	0.005664938259537122	0.9673564325878755	0.3486964395048326	-0.9332946061514713	-0.08586018405071721	0.9023421481185937	0.35906696673891636	-0.2384314600165765
39														9.570096827661802	-1.0085228232692558	-2.1631582016775357	0.2532965193741501	0.005700244750599132	0.9673718935769862	0.34855221862507635	-0.9333572236961982	-0.08576505037404097	0.9024146630925705	0.3589036084854931	-0.23840296904949443
40														9.523512759818018	-1.0084870696542303	-2.200365155430476	0.2533319471879571	0.005678026642912282	0.9673627471364611	0.3485013849292338	-0.9333742203139201	-0.08578665138462907	0.9024243509770581	0.35885975654400737	-0.23843230883588656
41														9.547976316094793	-0.9803058654212067	-2.2466439369401776	0.2533344854969775	0.005621868526001189	0.9673624103986357	0.34838297014028174	-0.9334162307148262	-0.08581052589491842	0.9024693593547747	0.35875135516455303	-0.2384250838174949
42														9.54192886949716	-0.9788439447370136	-2.222569847344059	0.2533224995409677	0.005590294779850097	0.9673657321978029	0.34841105779440895	-0.933402686103831	-0.08584381387575121	0.9024618806536362	0.35878708753023425	-0.23839962203970594
43														9.517748829841468	-1.0080584367699743	-2.1745589776099123	0.25314673966331136	0.005472805533061231	0.967412412881617	0.34855923221472895	-0.9333395375561537	-0.08592886169584027	0.902453982115273	0.35895313905029647	-0.23817945782586758
44														9.512010879966486	-1.0070395068280575	-2.148866299606171	0.25303024091194276	0.005411986840173494	0.9674432322273414	0.34879727441314057	-0.9332435343456061	-0.08600562170047607	0.9023946800297573	0.3592035857289886	-0.23802652258399398
45														9.471731662901394	-0.9737306447438737	-2.160562149874129	0.25295052424691467	0.005384084113546267	0.9674642339236474	0.34901309896162547	-0.9331579360187439	-0.08605883567909353	0.9023335796901357	0.3594263180173328	-0.23792190500264876
46														9.484192790619122	-0.9420298581104727	-2.158573796927439	0.25286044226024174	0.005396002611294165	0.9674877156304225	0.34939568877126204	-0.9330097024864872	-0.08611357462172561	0.902210756646145	0.35981075334388635	-0.23780658605281457
47														9.450106301574106	-0.9110271159038117	-2.1935240872119515	0.25270999524379806	0.005244580535191112	0.9675278562805776	0.3496275259816467	-0.9329090651743583	-0.08626279146571944	0.902163095775832	0.3600738403307232	-0.2375890951404384
48														9.440999896099374	-0.8901524845428416	-2.1957916771365227	0.25261366312026506	0.005212163355744842	0.9675531874569556	0.3499491185683621	-0.9327811839172326	-0.08634163157592484	0.9020653810108157	0.3604054609507455	-0.2374572637311671
49														9.512907758863697	-0.9366723299766664	-2.172019099666881	0.2525624380382184	0.005208013780140991	0.9675665824555214	0.35014807649809687	-0.9327031254003569	-0.08637826342946095	0.9020025163029616	0.36060748253589014	-0.2373893513244721
50														9.519197220581052	-0.9027478200063497	-2.146744234467161	0.2524630912611715	0.005240909993073362	0.9675923317251425	0.3504817898153143	-0.9325761283771914	-0.08639606350327644	0.9019007165751158	0.36093530949943486	-0.23727789572111402
51														9.541259786825984	-0.892687808273801	-2.1400401053361673	0.2522634853618771	0.0052281502727362095	0.9676444597050119	0.35075150489711143	-0.9324741437612143	-0.08640227444461551	0.9018517149540107	0.36119888934147726	-0.23706295909102632
52														9.557329103632428	-0.9166585905651702	-2.1572862214959203	0.2521292915025817	0.005276435909170651	0.9676791718284027	0.35101863202831224	-0.9323762266529156	-0.08637413930942489	0.9017853072297083	0.3614508696857265	-0.23693148475467218
53														9.548261901255755	-0.8945347304835454	-2.1598909489037146	0.25198696455500175	0.005274278445290492	0.9677162557698606	0.35126243110566197	-0.9322833739421593	-0.08638527168889579	0.9017301559713398	0.3616903270173337	-0.23677591337380105
54														9.5238008855519	-0.8848955978956493	-2.1903726110224326	0.2517807976150889	0.005231233866403118	0.9677701504719729	0.35153136903176174	-0.9321790010136977	-0.08641762931115585	0.9016829412487326	0.3619598655394545	-0.23654371519804757
55														9.51824807169771	-0.883117767730626	-2.1640459733385486	0.2515216004888918	0.005184665353849538	0.9678377982558205	0.35175753492496215	-0.9320933189630711	-0.08642153301070277	0.9016670788661522	0.3621811204212259	-0.2362653484948758
56														9.54993393836569	-0.8948661442310221	-2.1523482953136304	0.2513409420189468	0.005206912280749626	0.9678846103381998	0.3519833002148133	-0.9320110718257519	-0.08638934172744825	0.9016293513605892	0.3623923979041418	-0.23608528693328018
57														9.544320912320254	-0.8925742600523104	-2.12639394116307	0.25109976367141373	0.005186732850157666	0.9679473159663713	0.35211475012799265	-0.9319650805170424	-0.0863498201455255	0.9016452248121	0.36251094673017037	-0.23584253660935317
58														9.517405451381293	-0.9365148598843965	-2.1522942064054233	0.25080202477584485	0.005210462986193765	0.9680243775049298	0.3523066457849291	-0.9319007019907177	-0.08626186274930944	0.901653132697996	0.36267607131526847	-0.23555826368695548
59														9.533766879159327	-0.9602660737178768	-2.1684981036234454	0.2505697579263127	0.005154133153520479	0.968084826512731	0.3524856242987615	-0.931832000664978	-0.08627286479198715	0.9016477588700927	0.362853355294036	-0.23530567667695285
60														9.503378599111876	-0.948517928399892	-2.174563530122514	0.25026882195257927	0.005068188953390451	0.9681631216996445	0.35260453397966135	-0.9317872756541052	-0.08627001533607248	0.9016848448185506	0.36296940145118717	-0.23498437019238727
61														9.482648551576297	-0.9590389019753988	-2.1753377336443127	0.2498691180397109	0.004912226445524609	0.9682671603857093	0.352810988066359	-0.9317045892698839	-0.08631897261365132	0.9017149386306608	0.36318373912495683	-0.23453729146026825
62														9.471350958834854	-0.9917373699281511	-2.1718056462380235	0.2495907587541511	0.004837276789280559	0.9683393278690023	0.3530207875895175	-0.9316233800686509	-0.08633771620293884	0.9017099182520975	0.36339300827441123	-0.23423224556638172
63														9.468952503510264	-1.01023659097138	-2.117482680476844	0.24938656197166664	0.004738460438085068	0.968392425466365	0.35316712157009933	-0.9315629219918509	-0.0863915887797877	0.9017091143766061	0.3635492667613043	-0.23399274280941995
64														9.500562091799486	-1.0227987262399085	-2.10550808071737	0.2491642996093934	0.004640008888002034	0.9684501133861676	0.35342717877535407	-0.9314572452801078	-0.0864675055618486	0.9016686648115568	0.36382120682103414	-0.23372579738709204
65														9.479403231262808	-0.9961258053930531	-2.186350682005577	0.2488809960453745	0.004465386059468918	0.9685237788174345	0.35380457836904655	-0.9312994912605042	-0.0866231949481659	0.9015988964792293	0.36422701424423015	-0.2333626190334902
66														9.45164880770894	-0.9312741370134722	-2.1964437276709647	0.24870813655348334	0.004347248936821618	0.968568719419936	0.35407349990321435	-0.9311864853666425	-0.08673918455235666	0.9015410248448942	0.3645172573379766	-0.23313290120533603
67														9.452485507515853	-1.0071921867694749	-2.1621961588032663	0.2486173225350316	0.004142279634602702	0.9685929322759597	0.3541300294280134	-0.9311485436725963	-0.08691554448841934	0.9015438698104643	0.36461655356803646	-0.2329665634191757
68														9.51175729587402	-1.012612819693296	-2.1693238890462836	0.2484828536758948	0.003975005356911532	0.968628138534854	0.35435268489181293	-0.9310483218026009	-0.0870815547548631	0.9014934531870141	0.36487425477960655	-0.23275809773234407
69														9.505902897774092	-1.0125332834007823	-2.143071388714882	0.24830454646964534	0.003721879025964381	0.9686748679608761	0.35451825723439534	-0.9309650006947083	-0.08729818307954537	0.9014774858475345	0.36508946177343826	-0.23248231634253463
70														9.50271280372603	-0.9585375209884699	-2.1210269383856186	0.2482331157389001	0.00350731598257889	0.9686939759207532	0.3548528573785309	-0.9308126568505877	-0.08756282006104324	0.9013655029236755	0.36547981692748643	-0.2323031070773724
71														9.481253310771912	-0.9716683022705456	-2.1238294799697046	0.24819606573889158	0.003220435304130659	0.9687044656386116	0.3550823148620862	-0.9306949571618877	-0.08788314050837415	0.9012853391817258	0.36578207379515504	-0.23213834639326097
72														9.450304442105185	-0.9632213654846197	-2.1311719265111986	0.24817101019118654	0.002896791474534033	0.9687119067606418	0.3553325808937817	-0.9305648386962042	-0.08824872768301595	0.9011936010958186	0.3661156778689764	-0.231968540458593
73														9.474885225860016	-0.9021800570802999	-2.1281726011284916	0.24808540593286887	0.0025544794819532535	0.9687347965246734	0.3555454636043213	-0.9304502461514675	-0.0885988868274433	0.9011332058433493	0.3664093531437894	-0.2317393606085033
74														9.453386659346378	-0.9158465536527671	-2.1309758989110574	0.24808844658254658	0.002259098127493253	0.9687347516982703	0.35578013714221357	-0.9303275988417936	-0.0889440995700704	0.9010397420132625	0.36672258630866095	-0.23160727105114853
75														9.437638932773773	-0.8954837530096371	-2.110598070172783	0.24817680741654125	0.001891124704818531	0.968712906855217	0.35598973377129217	-0.9302050702766417	-0.08938588636397485	0.9009326177411817	0.36703535371811213	-0.23152854556413305
76														9.38448290652815	-0.8616683494828397	-2.0763272506662367	0.24825916200157472	0.001480421127729753	0.9686925192420763	0.35613911664130204	-0.9301030872115275	-0.08985085841292156	0.900850885596628	0.3672955969146246	-0.23143384887889817
77														9.366092071494714	-0.9334479055886956	-2.099077004136394	0.24834299912452967	0.000942457045336853	0.9686717021574187	0.35625553738938603	-0.9300023594796181	-0.09043010251980535	0.9007817420803073	0.3675523406768898	-0.23129533068721037
78														9.477123415438419	-0.9820895437369449	-2.014096475900489	0.2486451310776252	0.0005097769341334824	0.9685945172872222	0.35622215568784354	-0.9299639263988004	-0.09095532636427195	0.9007115934573594	0.36765042598153336	-0.23141259621528976
79														9.63492716933865	-1.0654473313420014	-2.0670708807330884	0.249007835578051	0.00012822432974399223	0.968501461733154	0.3560789912998883	-0.9299724995042475	-0.091427031673772	0.9006680019716415	0.3676290708368206	-0.23161609723865811
80														9.75839419187701	-1.0056468520677428	-2.1419261595497336	0.24916212154535594	-0.00019085959125569874	0.968461770417209	0.3562259333760449	-0.9298763489484834	-0.09183169418346332	0.9005672221313544	0.36787217785374304	-0.23162197474281482
81														9.7117261781709	-0.8990966469000121	-2.162686136589396	0.2489776152795904	-0.0005820545012747702	0.9685090646464011	0.3564858345824863	-0.9297401260233003	-0.09220166920510137	0.900515406215639	0.3682159139346591	-0.23127698522236773
82														9.628355477720662	-0.8519656740008772	-2.135312480197796	0.24874114673130326	-0.0009549246980244119	0.9685695277271626	0.3564931677132306	-0.9297107985299722	-0.09246865669268603	0.9005778496590866	0.3682891787924055	-0.23091690602429443
83														9.607249712799696	-0.8645214770543511	-2.136702878889233	0.24853787096123658	-0.0012705686880425948	0.9686213462201132	0.35636101725258185	-0.9297426104193209	-0.09265799346722195	0.9006862672877614	0.3682079086954484	-0.23062346778540033
84														9.570441743317666	-0.8521892260982238	-2.1197319646558603	0.24835734396699854	-0.001535126387079172	0.9686672664463448	0.35621622336886005	-0.9297835283391926	-0.09280405507276382	0.9007933347369333	0.3681035639817928	-0.230371730638587
85														9.499644701115887	-0.8818640198239162	-2.107997730594945	0.2481440709178308	-0.001813522428356168	0.9687214414911693	0.3559917527824592	-0.9298568890911609	-0.09293028441031195	0.9009408371359351	0.3679169429995184	-0.23009287480208956
86														9.44776048238933	-0.9179656362984557	-2.1670175167305414	0.2480037560121946	-0.0020644768139427283	0.9687568709120613	0.35572667454155843	-0.929946505865034	-0.09304853168652469	0.9010841636736535	0.3676890454785112	-0.22989583687325288
87														9.453722085418216	-0.9222736836994206	-2.061820614604719	0.2479421833659446	-0.00224696731185578	0.9687722254718227	0.3555494322863083	-0.9300036881210874	-0.09315439486175442	0.9011710575182785	0.36754331883340663	-0.22978823701902723
88														9.479234725037786	-1.0059730613997817	-2.1219188012677597	0.24782265247973473	-0.0024258073518746703	0.9688023783912798	0.35518669288686977	-0.9301390343964117	-0.09318685469635715	0.9013469621150323	0.36719952634882735	-0.22964790818816488
89														9.46390247285084	-0.9822666826713807	-2.101363646568548	0.2477367732191753	-0.002608139265986159	0.9688238688247317	0.35493014310012594	-0.9302293304393356	-0.09326299539104588	0.9014716216908194	0.3669694679397121	-0.22952630543397334
90														9.488776806625793	-0.992583161762239	-2.0670286663887363	0.24765915464739507	-0.0027545127151683	0.9688433081665166	0.35455402360993143	-0.9303712993809382	-0.09327748726371793	0.9016409415401156	0.3666083168013607	-0.22943834594663393
91														9.507644935601933	-1.0373148887437924	-2.0563782425596733	0.24752230908071893	-0.002943906827682502	0.9688777218617108	0.3543538314729834	-0.9304397889748459	-0.09335502778565621	0.9017572115751364	0.36643298501231303	-0.22926142036374209
92														9.458773825159279	-1.018282063587727	-2.1204147799186153	0.24739534010277842	-0.003130620889942648	0.9689095648760387	0.35403005065084237	-0.9305582677165853	-0.09340253540707871	0.9019192141935958	0.3661304543426456	-0.22910744525496196
93														9.462019342650654	-1.0389654691104304	-2.0906320660920303	0.24728244481497608	-0.003300481067889577	0.9689378201469115	0.3539520236961855	-0.9305779759623789	-0.09350184797712136	0.9019807965847738	0.36607886783927074	-0.22894738503379852
94														9.483953810835045	-1.0296918127931882	-2.0840607912546267	0.24719249248699088	-0.0034720683206944103	0.968960172762351	0.3537213696882515	-0.93065851600343	-0.0935730688615091	0.9020959285375009	0.36587247960439695	-0.2288236534630848
95														9.493440435193566	-1.052891408287075	-2.07803145045031	0.24712141579145708	-0.0036970853950804294	0.968977470025391	0.3534910447125065	-0.9307329411187177	-0.09370311427355157	0.9022056789697606	0.3656809044455056	-0.22869715555430592
96														9.493594691505276	-1.0542266784548011	-2.0766493012892795	0.24707159582999194	-0.003906948763829299	0.9689893509659323	0.35326106307806915	-0.9308077727218749	-0.09382702997268838	0.9023093969625798	0.36548820226089396	-0.22859598894365207
97														9.537093623516565	-1.0355678336424876	-2.0652197788694284	0.24697714700806972	-0.004162784514134932	0.969012363223939	0.35306960832048356	-0.9308642164437153	-0.09398756420425197	0.9024101841935156	0.36534159600258626	-0.22843243573124283
98														9.515512027294303	-1.0472886722418784	-2.068953471132284	0.24698613720855728	-0.004381477867046818	0.9690091076344415	0.3527962300472768	-0.9309532714648554	-0.09413196276139368	0.902514635942944	0.3651120499252032	-0.22838678356724434
99														9.540462238347398	-1.0952371539936339	-2.0823026736649797	0.24692036662432398	-0.004655032359355382	0.9690245937125866	0.35234624728198694	-0.9311111847546023	-0.0942554170919769	0.9027083995246811	0.3647057612632614	-0.22827013192481987
100														9.586841399032071	-1.0964695875997625	-2.042878297922263	0.24684369751923874	-0.004826330846580379	0.9690432887779528	0.35225838758489236	-0.9311330199322005	-0.09436804315038441	0.9027636553224343	0.36464778310377866	-0.22814420200035168
101														9.559078112370372	-1.1057375157740712	-2.0222861937466576	0.24665927761031864	-0.0050773463376713734	0.9690889646069258	0.3520714933494419	-0.9311912869360481	-0.09449047944147979	0.9028869609975825	0.3644955523577128	-0.22789938124531223
102														9.56870855042241	-1.1290409329203919	-2.0152852430046324	0.24650448884286086	-0.005221217978165743	0.9691275849253002	0.3520904785897566	-0.9311756839721075	-0.09457346596966051	0.9029218304298311	0.3645333790778327	-0.22770064486369174
103														9.557060104853933	-1.08782856853023	-2.0452382843639354	0.24628887344904277	-0.005386126889861675	0.9691815002631489	0.352148564013681	-0.9311446307030123	-0.09466290496310234	0.9029580165646153	0.3646102938070691	-0.22743384526410942
104														9.504561638072976	-1.0501402910504734	-2.0098274290340896	0.24612874258339273	-0.0054793907436137546	0.9692216559442928	0.35227305298772893	-0.9310915598004521	-0.09472171560453324	0.9029531207172512	0.3647444085184037	-0.22723815313792955
105														9.474220036250179	-1.0388454715419073	-2.0162965346872004	0.24580969003290543	-0.005674180493676795	0.9693015010623122	0.35234273624747037	-0.9310569663964781	-0.09480253972459071	0.9030128418242854	0.3648297260371093	-0.22686356803179164
106														9.443604057354102	-0.9908172286131061	-1.9749690168083525	0.24554589288360723	-0.005753652207524496	0.969367891965825	0.3524963047763692	-0.9309975634692615	-0.09481504064917068	0.9030246782934547	0.364980043701808	-0.22657448685240184
107														9.456871468041024	-0.9953757647032567	-2.019746880222479	0.24548548089067668	-0.005775864982992013	0.9693830605367373	0.35264977615017623	-0.9309357355181893	-0.09485141915880049	0.9029811814501474	0.3651373655474144	-0.22649434921867273
108														9.478706286917607	-0.9855135246358774	-2.0138528649609904	0.24545625022413825	-0.005758838442108533	0.9693905637077881	0.35276810313562446	-0.9308907020059851	-0.09485339387126862	0.9029429077389107	0.3652524287374449	-0.22646140656941754
109														9.531863700104772	-1.0243368649915203	-2.045664805492302	0.24538667358039057	-0.005849498122663915	0.9694076355181366	0.3526992377179049	-0.9309124375030398	-0.09489616122561842	0.9029887198311838	0.36519558742386615	-0.22637039290458827
110														9.501609690539611	-1.0492990023346163	-2.101324871851453	0.24530886884294195	-0.005916830262214762	0.9694269183319829	0.3527101573827178	-0.9309045096762469	-0.09493333841957433	0.9030055945264434	0.3652147107991067	-0.22627220613648086
111														9.470494725877675	-1.0012270486361958	-2.062353257183935	0.24525367247095547	-0.00600091709846079	0.9694403669816354	0.3526809520929996	-0.9309102711533981	-0.09498533093000736	0.9030319939904043	0.36519865286592323	-0.22619275358558738
112														9.485786957895053	-0.9895489053811953	-2.033343332152682	0.24530511382760684	-0.006036554228164542	0.9694271303935512	0.352639680982751	-0.9309214298109612	-0.09502918980555064	0.9030341391810216	0.36516962022020155	-0.22623105874708133
113														9.566765314439044	-1.0205457273027696	-2.084869260082905	0.2453942073512715	-0.006066898231801537	0.9694043922658315	0.35239384783033345	-0.9310142987275414	-0.09503131892274219	0.9031058957895097	0.3649322790747745	-0.2263275782566453
114														9.538931541455243	-1.0653256420967558	-2.114319222743374	0.24547851392563708	-0.006088969473517669	0.9693829086855265	0.35233114036834895	-0.9310341319251426	-0.0950695151830239	0.9031074502669104	0.364881308977518	-0.22640354156075687
115														9.566132977938258	-1.0958126728330604	-2.053187687759705	0.2454861090195697	-0.006171901074503244	0.9693804608694971	0.3523197706968576	-0.931030287861744	-0.09514926305648405	0.9031098213697744	0.3648897240553711	-0.2263805199752167
116														9.522460309476427	-1.0799040872699277	-2.015198845274209	0.24544386807462243	-0.006238903992764888	0.969390728087254	0.3521760516218692	-0.9310834405076689	-0.09516120783403748	0.9031773559432266	0.36475293403805736	-0.22633152856381006
117														9.513270531184185	-1.0582182162923355	-2.019377031476394	0.24548227768913194	-0.006321770513236652	0.9693804653272804	0.352002866874516	-0.931143705292145	-0.09521229861177485	0.9032344286245286	0.3645976348145912	-0.2263539962866315
118														9.470644568412096	-1.0409506940541133	-2.1093794840665696	0.24560172411271186	-0.0063076159486146754	0.9693503015390815	0.35188531126552774	-0.9311878050688726	-0.09521554183313846	0.9032477627032497	0.3644852338189577	-0.2264817729962253
119														9.50140145193392	-1.0532542855380413	-2.10028736020901	0.24563262660498042	-0.006358867362777965	0.9693421364786536	0.3517365528653005	-0.9312415604754489	-0.09523945307322162	0.9032972988587831	0.3643469786468845	-0.22650666441699419
120														9.461653998739727	-1.0557072584551068	-2.16194104204777	0.24567945385522322	-0.006375910410077179	0.9693301572322207	0.3515602870810488	-0.9313091089786103	-0.09522976467973407	0.9033531814860064	0.3641739849301562	-0.22656199637008984
121														9.467248559599053	-1.0957629445617811	-2.105760635659828	0.24566699963949018	-0.006422030675945295	0.9693330092440512	0.3514502342838707	-0.9313494296684162	-0.09524165411272534	0.9033993901425564	0.36407004460448655	-0.22654479581695103
122														9.47608866184458	-1.08136311387443	-2.0536919876946707	0.24570862578753744	-0.006388515093680575	0.9693226800650535	0.35137944790566955	-0.9313795980433762	-0.09520781448004323	0.9034156046931595	0.3639934494238286	-0.22660320821523233
123														9.497664072974564	-1.0712268287544677	-2.0491599106348284	0.24579739378874244	-0.0063519967719721515	0.9693004143936347	0.35138882692712536	-0.9313758929058467	-0.09520944503890799	0.9033878090374264	0.36400356900839165	-0.22669774641957174
124														9.495004970008331	-1.0876714673037275	-2.1258488883562037	0.24599821939172944	-0.006232110805624497	0.9692502446999979	0.35141739453800647	-0.9313682078384702	-0.09517917967642056	0.9033220305473671	0.36402530437136327	-0.22692484858454504
125														9.509871344253398	-1.0753667828013398	-2.0991347096062163	0.24618980933078155	-0.006141542426257973	0.9692021766578428	0.3514868885875809	-0.931341509846563	-0.0951838178880523	0.9032427940109432	0.3640951434630115	-0.22712811709243336
126														9.552974505785803	-1.055073423986949	-2.0903140806749327	0.24627796728215334	-0.006054429178420168	0.9691803272449842	0.35149688198392104	-0.9313425455256474	-0.09513676917674643	0.9032148718809676	0.36409395323340865	-0.2272410359770356
127														9.522109467626795	-1.0428794011473344	-2.099799960823428	0.24621059994586075	-0.006069028161524215	0.9691973521277667	0.35160783915596777	-0.9312990434630684	-0.09515260946944798	0.9031900508300402	0.3642049677612166	-0.22716177834239798
128														9.515828664034961	-1.0406645111233999	-2.0757260637513326	0.24620245308045258	-0.006019946327746023	0.969199727787508	0.3516690429377982	-0.931279501753656	-0.09511768422683642	0.9031684429475941	0.36425574787458637	-0.2271662690716763
129														9.494129862879157	-1.0508546431627994	-2.0807869480488645	0.24627848462911367	-0.006046068649763259	0.9691802479738589	0.35160057899285735	-0.931301537661508	-0.0951550250969404	0.903174369023322	0.36419897172176946	-0.2272337301901523
130														9.484742391319985	-1.0291057259530545	-2.085908696793388	0.24638563252840928	-0.0060095216826439035	0.9691532416149276	0.3516479834648265	-0.9312817659430557	-0.09517335838933844	0.9031266886814371	0.3642501311888991	-0.22734121078276393
131														9.47853119613228	-1.063894261075693	-2.1104037046947877	0.2464816683387831	-0.006036956869361593	0.9691286510699634	0.3515774081767863	-0.9313037289575492	-0.0952191708084896	0.9031279606083641	0.36419351941175504	-0.22742683919418155
132														9.500033327207307	-1.0544289254213761	-2.105879295115141	0.24657740335584888	-0.006049827689783571	0.9691042171713067	0.351590083719043	-0.9312935578040842	-0.09527183331419423	0.9030968924676486	0.36421931411930253	-0.22750888782142453
133														9.51513397469813	-1.0427626040237699	-2.077856611237393	0.24665911600772794	-0.00606492213239801	0.9690833283107362	0.35158611092859343	-0.9312904351492428	-0.09531700793479195	0.9030761247493996	0.3642270474842064	-0.22757893309475008
134														9.527879371337638	-1.0474296146046793	-2.125001992784771	0.2467004078394372	-0.00603551189598639	0.9690730010520406	0.35165591414858877	-0.9312635335156055	-0.09532234359450292	0.9030376663330136	0.3642963131026466	-0.22762067007115755
135														9.499393915096007	-1.0187553255572448	-2.0592940880626913	0.2467175109955277	-0.0059637996236618085	0.9690690908610289	0.35183245811136477	-0.931198668826819	-0.09530456754256594	0.9029642247550491	0.3644632660079882	-0.2276447595340247
136														9.527433200255803	-1.0104841826533844	-2.0781799827875904	0.24679580599013007	-0.0058394728703489995	0.9690499113576552	0.35191389977217524	-0.9311749083388929	-0.095236008038947	0.9029110904695004	0.36452598074300746	-0.22775507035086417
137														9.48122982103838	-1.0102176554107745	-2.11659989458439	0.2467968381965298	-0.0057937518399843735	0.9690499229120307	0.35189398385764725	-0.9311873997448636	-0.09518745022950043	0.9029185704043249	0.3644947996830907	-0.2277753196090258
138														9.518609414613055	-1.0241834955204983	-2.130326462100745	0.24678125603254208	-0.005724746638543166	0.9690543013407065	0.35203394167024177	-0.9311382842396992	-0.09515040480870915	0.9028682714455709	0.3646213418041694	-0.2277721702004295
139														9.52745466030853	-1.009370834222858	-2.0786226113290134	0.24687133886882673	-0.005609907700270644	0.9690320278405185	0.3521475026278065	-0.9311001163058865	-0.09510367925671373	0.902799356689022	0.36472058119985395	-0.22788641734673176
140														9.517689394152672	-1.0610083310991705	-2.0518774062563057	0.24697771111411	-0.005477389825845946	0.9690056802792907	0.3522335779654038	-0.931074123181025	-0.095039379713755	0.9027366818549721	0.3647889463009827	-0.22802523520455747
141														9.53932386264921	-1.050506518416391	-2.047296786689996	0.24697583875972523	-0.005410811442458363	0.9690065315509825	0.3523450029345195	-0.931035692928812	-0.09500282837705892	0.9026937099459619	0.36488801242586966	-0.22803684880276404
142														9.536122097573733	-0.9937299815010057	-2.0281656777876074	0.24704245758484022	-0.005327900018132964	0.9689900090464503	0.35245180501032025	-0.9309980015193982	-0.09497603019633163	0.9026337847075137	0.36498538963674154	-0.22811820632362134
143														9.499088234857126	-1.0159573416493641	-2.0620845580986438	0.247115145216024	-0.005303483640913181	0.968971608493321	0.352358928899036	-0.9310350641304613	-0.0949573303369029	0.9026501483022019	0.3648911925778124	-0.22820413525866362
144														9.498899064625597	-1.01576580490709	-2.063050128634673	0.24726178681924676	-0.005197380170177318	0.9689347738719674	0.35236515965324655	-0.9310371329715292	-0.09491391515840872	0.9026075576026915	0.3648874405450565	-0.22837852940016562
145														9.461846554257054	-1.037887731924762	-2.097071282885978	0.2472736993743468	-0.0051776153338688735	0.9689318396549782	0.35233616880420593	-0.9310503164266342	-0.09489221482418642	0.9026156112931463	0.36485408121784785	-0.22839999489619262
146														9.424516276245514	-1.0234458120916374	-2.0833542752015046	0.24733833648534898	-0.005113431261311724	0.9689156826707865	0.3523357922116669	-0.9310541950325282	-0.09485555038535148	0.902598048320091	0.3648450886788346	-0.22848375092267692
147														9.507845859613408	-1.0371843310615758	-2.060149266926125	0.24747818642572872	-0.005011695642592767	0.9688805035453125	0.352401239979535	-0.9310321613575323	-0.09482869069436864	0.9025341618489122	0.3649027232355331	-0.22864402303793874
148														9.495402855888262	-0.9947535552101658	-2.0946311100072554	0.24771367141021422	-0.004847662263018054	0.9688211585050438	0.35243512293887636	-0.9310251948898955	-0.09477114855951824	0.902456326431108	0.36492271325695097	-0.22891918275595363
149														9.513560029796817	-1.038661458977161	-2.0870971463017223	0.24781686931844538	-0.004770610682787446	0.9687951489117389	0.35244050130852317	-0.9310264746479211	-0.09473856945332076	0.9024258929788097	0.36492046363334857	-0.22904270977924746
150														9.51344073679613	-1.038296899952879	-2.087822163577842	0.2478761585127749	-0.0046557598384128485	0.9687805396173463	0.35254564451544523	-0.9309928343003633	-0.09467793309196065	0.902368538111862	0.3650077620841829	-0.22912955951635205
151														9.504126456613324	-1.0158025861924884	-2.0929123624539754	0.2479513845584146	-0.00456839240689233	0.96876170479968	0.35271149291484677	-0.9309312944224734	-0.09466534651433517	0.9022830562862997	0.3651657909165586	-0.2292143788747535
152														9.519340127687492	-1.0032198904603145	-2.0649672241306773	0.24801092545477355	-0.004481558506712974	0.9687468691502534	0.3527769242589385	-0.9309109398898971	-0.0946216872799889	0.9022411111036066	0.36521875311470486	-0.22929509329218156
153														9.503527476466362	-0.9787101321270412	-2.047016225550527	0.2481709293708816	-0.004412226853894641	0.968706210400957	0.35272817288818514	-0.9309311189578049	-0.09460490371504196	0.9022161746866191	0.3651681585381721	-0.22947372425549073
154														9.512472151906586	-1.000840078333905	-2.043830661210118	0.2483408887147175	-0.004323295075936734	0.9686630539625593	0.35278544630931186	-0.9309099014110331	-0.09460012857941177	0.9021470123348662	0.3652233078194599	-0.2296577966468546
155														9.540451514600308	-1.0297433619905474	-2.111415842336319	0.2485601991997809	-0.0042684752134828086	0.9686070449326276	0.3526998356591786	-0.930941240058025	-0.0946109585894517	0.9021200880701825	0.3651440642795367	-0.22988944956580293
156														9.605283869834867	-1.0361627280616579	-2.1461708389383443	0.24881467618362174	-0.004143032030193339	0.9685422511182648	0.35269063673421874	-0.930947155047005	-0.09458704599414608	0.9020535303825657	0.3651304284710933	-0.2301721063223453
157														9.576881015039106	-1.043739217574637	-2.129390520958188	0.2489229086084132	-0.004041100527879288	0.9685148708597362	0.352720225444193	-0.930940852194922	-0.09453873426903059	0.9020120997705772	0.3651476403061046	-0.2303071267815186
158														9.549366539679692	-1.0135923650995617	-2.1909161268483155	0.24892826396142148	-0.003959934605872878	0.9685138296994371	0.35282341458616095	-0.9309067828485253	-0.09448915158033161	0.9019702642110299	0.36523537693455455	-0.23033185171521336
159														9.469239350372236	-0.9450581901411171	-2.218210050079506	0.2487710161001822	-0.003971938307638673	0.9685541829214117	0.3529242128656449	-0.930871002608554	-0.09446521304538957	0.9019742133351973	0.3653264296606888	-0.23017193197635094
160														9.447683916205554	-0.918183939679973	-2.1741234627356785	0.2486155921952572	-0.00399609406737278	0.9685939905603411	0.35282090016473056	-0.9309166199272696	-0.09440158446836033	0.902057481385943	0.3652099094704201	-0.23003048124163195
161														9.454354617984343	-0.9198863874264392	-2.196517056782709	0.2485890530025917	-0.003985225548303384	0.9686008469460495	0.35266429635678037	-0.930982111677455	-0.0943408809147134	0.9021260315512752	0.3650430463848289	-0.230026514740436
162														9.515528541711166	-0.8697277668713527	-2.083386541907301	0.24869609364496365	-0.0038450419407615177	0.9685739355662062	0.35246939152801476	-0.9310703826573616	-0.09419803912049052	0.90217270023073	0.36481935007719674	-0.23019830748214748
163														9.48769554847866	-0.9128236278463209	-2.1132823141081376	0.24874681676804422	-0.003764820856661494	0.9685612253604219	0.3519205191074467	-0.9312979365379785	-0.09400054059019261	0.9023729657846085	0.3642389044624701	-0.23033247946624735
164														9.435014169067486	-0.9094198287997916	-2.1287221387087594	0.2488141190078978	-0.003634310114350059	0.9685444367566811	0.3517055227375443	-0.9313947090202612	-0.09384626409705277	0.9024382302729836	0.3639927029475396	-0.23046594703493567
165														9.39764997527925	-0.8938201428999096	-2.1156270736887763	0.2488492514648623	-0.003563453697162877	0.9685356740167737	0.35128890695779175	-0.931568120610891	-0.09368532707896376	0.9025908009135579	0.3635493617918214	-0.23056822774827762
166														9.422669590769505	-0.9751527557083569	-2.1789122570978727	0.24904865795787895	-0.0033751485039029416	0.9684850924727527	0.35084777930043054	-0.9317561103733172	-0.09346863935001667	0.9027073732552183	0.3630690831709079	-0.23086844547512436
167														9.524421467334466	-0.9573556703923103	-2.1812662786138817	0.24936415487660712	-0.003197063190427618	0.9684045110642722	0.35039742535033225	-0.931942060347781	-0.09330402168498048	0.9027951941445712	0.3625931258886321	-0.2312727015619801
168														9.564015675101922	-0.9898821411622013	-2.1706833123830243	0.24961300640460987	-0.0030087571292633786	0.9683410011014658	0.34994451596944764	-0.9321323423258829	-0.09310280410906926	0.9029020892525174	0.36210529376218714	-0.231619458277665
169														9.557573785988076	-1.0227713062896033	-2.196967588671854	0.24974209705171585	-0.0029547635442436493	0.9683078819944664	0.3494120316552154	-0.9323459285167214	-0.09296398072838741	0.9030725979093743	0.3615554438128278	-0.23181359743234026
170														9.547954557925296	-1.0737576966112452	-2.1706278757239	0.24979149449532229	-0.002878068043447729	0.9682953712592716	0.3490604900005505	-0.9324920509102036	-0.09281890599364997	0.9031948757595832	0.361179030002601	-0.23192396316036729
171														9.51986297378754	-1.0805770908396635	-2.1529841642266363	0.2498424633094825	-0.00283366736354404	0.9682823523418789	0.3486611097056387	-0.932653956628005	-0.09269319157823677	0.9033350287165234	0.3607610947918303	-0.23202857233176616
172														9.513325272872425	-1.0775133978823537	-2.1308412184509185	0.24999247310635514	-0.002737871521577062	0.9682439090692488	0.3483933390983727	-0.9327642852644287	-0.0925897910518548	0.9033968367567239	0.36047647939175065	-0.23223019429711161
173														9.482176977811925	-1.0648394721993635	-2.1414754143723966	0.25006161555555717	-0.0027231056053241554	0.9682260960755017	0.34814606988265673	-0.9328616879088839	-0.09253856091947876	0.9034730225363704	0.3602244521512248	-0.2323248622540105
174														9.45742131146981	-1.0546827436773145	-2.175131217151652	0.25015770907754664	-0.0027208328891665523	0.9682012795165384	0.347937272948069	-0.9329414679980086	-0.09251957297340477	0.9035268533267475	0.3600177972796754	-0.23243582116222106
175														9.44462011701173	-1.0504380765119692	-2.128729414383491	0.25020517149994553	-0.002763421685510914	0.9681888946147188	0.34766401862255797	-0.9330444266940159	-0.09250852917676824	0.9036188921829249	0.3597505542953664	-0.2324917985097112
176														9.531227948264108	-1.1207474085418916	-2.1253141584983464	0.2503623019118948	-0.002719729054994152	0.9681483981576611	0.3474181327466457	-0.9331404828187808	-0.09246340012981988	0.9036699390929255	0.35950165840869286	-0.23267831609582412
177														9.558833225929192	-1.076034909691159	-2.0971746323941103	0.2503659814094229	-0.0027133835699177378	0.9681474644404641	0.3473266391388205	-0.9331773418276895	-0.0924351364143507	0.9037040893441993	0.3594060186599698	-0.23269343061969183
178														9.53438944717937	-1.0658274089998983	-2.1294252071270305	0.2502624858090525	-0.0027624263078102063	0.9681740841385745	0.347158225786643	-0.9332435472901248	-0.09239939236821151	0.9037974631881548	0.35923369892347023	-0.2325968509941989
179														9.580960775734187	-1.0654095501021654	-2.090432351377673	0.25017036998013104	-0.002825522444929729	0.9681977083255869	0.34684978561812413	-0.9333635519369223	-0.0923455799286253	0.9039413765287362	0.3589212954654627	-0.23251987325974605
180														9.590137908249627	-1.0508265535769012	-2.0378201794041075	0.2501467245867491	-0.002843689818198103	0.9682037645076266	0.3466408851726668	-0.9334456324216169	-0.09230031440747297	0.9040280487381084	0.35870763128378824	-0.23251262837433734
181														9.577881543405931	-1.083072615066851	-2.0376306142441427	0.2500726061968719	-0.0029814115556050236	0.9682224965445909	0.34626340767711383	-0.9335849937835778	-0.09230770220274004	0.9041932006677207	0.3583436487050566	-0.23243167877681814
182														9.578085647102851	-1.083436810055048	-2.0364773041072253	0.24998122593263478	-0.003113097387934055	0.9682456792084695	0.3459907036457306	-0.9336839187995261	-0.09232969601321359	0.90432285145956	0.3580846944506473	-0.2323263478993231
183														9.541502819104904	-1.0321077314404248	-2.100400702177607	0.24989556676674185	-0.00333508418639078	0.968267051450063	0.3457660364127171	-0.9337549050212288	-0.09245336885282193	0.9044324484303782	0.35789754757788717	-0.23218805237127416
184														9.532715273333437	-1.0477877728253868	-2.1508045458049923	0.2498252828511363	-0.0035826599834173634	0.9682843035987904	0.3455185330360554	-0.9338318105575141	-0.09260179760398296	0.9045464451187476	0.35769444242023096	-0.23205692078608214
185														9.502027144514175	-1.0374350848494385	-2.158307667005406	0.249689370024948	-0.003913195550195758	0.9683180806930803	0.34515189245868366	-0.933950219739487	-0.0927747712514217	0.904723930063052	0.3573816922411531	-0.2318467951517033
186														9.511359151048362	-1.0248936473724861	-2.103867259886441	0.24950844956166512	-0.004182199909991385	0.9683635901877182	0.344932830655967	-0.9340177832146255	-0.09290921899628274	0.904857378780212	0.3572020294493722	-0.2316027508995822
187														9.49642793461087	-1.0385856608548791	-2.129877468955549	0.2493708535598057	-0.004483045498126004	0.9683976867475038	0.34461510503401677	-0.9341194754467228	-0.09306575618095919	0.9050163571876745	0.3569323575892243	-0.23139724572377818
188														9.505866098931985	-1.0623081057323498	-2.1237807033465494	0.24934693874634595	-0.0046771044303869636	0.9684029269018001	0.3444485877859613	-0.934167378171014	-0.0932012871871983	0.9050863353902118	0.3568044762264635	-0.23132075400766816
189														9.475038843247217	-1.0517282449501473	-2.1320730062352182	0.24930594578737686	-0.004901400596846545	0.9684123717029077	0.34428806418064284	-0.9342105983396478	-0.09336105618844723	0.9051587011446153	0.3566882871949485	-0.23121676306039485
190														9.435348840841677	-1.05516603672677	-2.1921797170637953	0.2492442193335363	-0.005066144604989747	0.9684274125135329	0.3441885507992035	-0.9342362621881797	-0.09347110736158987	0.9052135442134962	0.3566187608518361	-0.2311092788724432
191														9.429212923978998	-1.0543575829922482	-2.1670291100654264	0.249117606925716	-0.005250861235261001	0.968459006037887	0.344189815289639	-0.9342227410907392	-0.09360150148255775	0.9052479157504247	0.3566515084577564	-0.2309240406374316
192														9.432621040583987	-1.0010763166133336	-2.1696250805539536	0.24911677125322257	-0.005338211877934318	0.9684587434549371	0.3441532836543929	-0.9342287194800845	-0.09367612848800108	0.9052620347889712	0.35663455131625676	-0.2308948790622774
193														9.497279481897362	-1.0464701073866187	-2.1222073445686354	0.24912988105430967	-0.005443403922615303	0.9684547855835092	0.34423060321350996	-0.9341875720149753	-0.09380230329809897	0.9052290285762651	0.3567407316896975	-0.23086025248268838
194														9.565707656273267	-1.1101877399384306	-2.1740881202846047	0.2492087408013544	-0.005484007599511731	0.968434266829118	0.34427405031257774	-0.9341635018673139	-0.09388253330822019	0.9051907985555175	0.3568031354117349	-0.230913708494708
195														9.574652368108861	-1.0969353507868989	-2.121476230564389	0.24913176193808556	-0.0055663680298618234	0.968453602781559	0.3444529641658602	-0.9340879130048214	-0.09397832864895245	0.9051439226283179	0.35699970073552445	-0.2307936156044364
196														9.544416909602887	-1.1221268840372844	-2.176403425166977	0.24895429158400367	-0.00567789772372343	0.9684985917281168	0.34466861777194957	-0.9339987975104527	-0.09407332338235902	0.905110658773324	0.35723102850461785	-0.2305660158142397
197														9.4983334335288	-1.0870825794880903	-2.1643450872975047	0.24880207715097918	-0.005841943689488371	0.9685367303821197	0.34490229578416415	-0.9338964274113783	-0.09423305805860854	0.9050634965394257	0.35749592244135175	-0.2303404711934834
198														9.464911340782384	-1.056779049936734	-2.199627503892432	0.24873950685055274	-0.0059907102925792766	0.968551892838961	0.34526532357514483	-0.9337408610652458	-0.09444501423412408	0.9049422711246803	0.3578995889454524	-0.23018985677996745
199														9.462298076554944	-1.038720279980186	-2.2258200853454295	0.24868743960235384	-0.006127826557935451	0.9685644052543443	0.3455351407675642	-0.933622726781397	-0.09462595062671131	0.9048535925102832	0.35820532349330747	-0.23006286606553805
200														9.506321881909855	-1.0566397089280188	-2.261153946575073	0.24853785157712316	-0.006207442065673446	0.9686022940280647	0.34593610033660604	-0.9334619058316228	-0.0947474793601222	0.9047414828653155	0.35862283533567196	-0.2298532383032138
201														9.518413190923612	-1.0637774842603664	-2.1786809609773363	0.24837244150788795	-0.006299000170203739	0.9686441311938385	0.3464005438896879	-0.9332751316025866	-0.09489042061822006	0.9046091937916279	0.35910701932575767	-0.22961784594981005
202														9.527655829184678	-1.0508280478225616	-2.124326479280928	0.24825294831611794	-0.006316013447550534	0.9686746521028028	0.347013435842942	-0.9330345770355408	-0.09501659539567936	0.9044070704040476	0.35973126918609705	-0.22943684310269025
203														9.549744787414271	-1.042045799320511	-2.1168562226410175	0.248072176550238	-0.006353559152974225	0.9687207169807603	0.3476827153300984	-0.9327714659631141	-0.09515314890067345	0.9041996044471146	0.3604122980297893	-0.22918562508710932
204														9.51937035852936	-1.0312454489235863	-2.1235088181950954	0.24786767838559148	-0.006370977838505515	0.9687729479362638	0.34846200507928826	-0.9324667711072063	-0.09528878106589281	0.9039556654105664	0.36119957284343907	-0.22890833001413052
205														9.550362876765849	-1.0080551293435152	-2.0636901773589305	0.24769434018044428	-0.006369623739567454	0.9688172901718836	0.34932072098466066	-0.9321301424664432	-0.09543810243422579	0.9036717035147953	0.3620674321157666	-0.22865831904342232
206														9.520366942144706	-1.0337535624651655	-2.1178138618404496	0.24750388054036232	-0.006371207803264861	0.9688659540042626	0.3500214764596814	-0.9318564423782659	-0.0955433766155788	0.9034527077464802	0.3627712481843748	-0.22840802603302712
207														9.533456140707818	-1.0025134702463967	-2.1141946483741636	0.24724541701913688	-0.0063785173385846605	0.9689318955837894	0.35082652309729956	-0.9315423142612305	-0.09565389397349178	0.9032111903948566	0.36357699495071666	-0.22808181490007823
208														9.502858196767205	-0.9547381794120208	-2.0729277532755637	0.24696588713925754	-0.00644605753613553	0.969002734223057	0.35143932991303106	-0.9312998573565077	-0.09576519763477953	0.9030494161339121	0.3641964085901857	-0.22773389732363364
209														9.466188203100401	-0.9418823118861613	-2.0554467184768703	0.2467192525901739	-0.006607436724030857	0.9690644726648915	0.3519602587725915	-0.931083477881323	-0.09595589331120291	0.9029139419934088	0.3647463488458225	-0.22739066462272628
210														9.463901861462249	-0.9237071671557437	-2.0807370293821865	0.2466185662571187	-0.0066715973760222425	0.9690896617783806	0.35246902471744296	-0.9308754610867203	-0.09610651674741469	0.9027429697272742	0.3652757393189955	-0.2272196401567072
211														9.48848265115913	-0.9350514476770079	-2.04607777248519	0.24660479625652282	-0.006752663196891523	0.9690926044517252	0.35289657312381995	-0.9306948449918255	-0.09628662515171008	0.9025796824329377	0.36573420272841706	-0.22713082092456288
212														9.54487256616676	-0.9211060836946268	-2.0817076985192813	0.24655618046249278	-0.0068298193398785845	0.9691044337136895	0.35326024098057984	-0.9305416825906945	-0.09643328835843759	0.9024506922918775	0.36612228903614097	-0.2270180993948437
213														9.560347072705696	-0.9103986841232815	-2.051262508180848	0.24639921214549942	-0.007021834086031797	0.9691429833105876	0.3535220077769291	-0.9304226579497359	-0.0966222934478271	0.9023910561787758	0.36642103026411754	-0.226773036996766
214														9.54780448039309	-0.9074666408693376	-2.0017070356156252	0.24622438470524294	-0.007199627578598239	0.9691861109917195	0.35372543563574177	-0.9303293730945534	-0.09677589442521164	0.9023590574493221	0.36665436438180365	-0.22652308606176613
215														9.535735599726285	-0.9409916878623562	-1.999388935035414	0.2460577092819332	-0.007332271735239121	0.9692274456979271	0.3539280735085054	-0.9302405251306533	-0.09688903027280504	0.9023250647552055	0.36687709549091113	-0.22629775588517714
216														9.539270909258198	-0.8879313198854974	-2.002170258426393	0.24602859890051398	-0.0074518861453181096	0.9692339232176757	0.3540480581539812	-0.9301809483219403	-0.09702255354447736	0.9022859308669537	0.36702571132248085	-0.22621278962026392
217														9.524230235072928	-0.9018452258054547	-2.029266621734767	0.245972681411957	-0.007648700700197436	0.969246582339402	0.3539800933742264	-0.9301911546084659	-0.09717257526145609	0.90232784147104	0.3669957946159168	-0.22609412473668106
218														9.493677434780126	-0.8912102286348637	-2.037011188176307	0.2458008867669914	-0.00786357633901208	0.9692884442887582	0.3538702567432247	-0.9302212737773932	-0.0972842392397052	0.9024177333458407	0.3669149029122754	-0.2258665282059975
219														9.49410351963353	-0.8925531756689739	-2.0344357009222644	0.24563768197638464	-0.008127754283956817	0.9693276374908377	0.3536682387911487	-0.9302835181928097	-0.0974235733751137	0.9025413597523586	0.36675129909668863	-0.2256381584467833
220														9.513279392143811	-0.9748181388991325	-2.069981047345212	0.2455622048408712	-0.008292571347101901	0.9693453650862234	0.3534266245822195	-0.9303681752772481	-0.09749194565554065	0.9026565374438438	0.3665327975662441	-0.22553244493454572
221														9.52217289383835	-0.9610481598429043	-2.0165536814703615	0.2454397543490186	-0.008529583801358015	0.9693743204692755	0.35309089090773726	-0.9304855862020547	-0.09758789181143329	0.9028212169322753	0.36622919063121556	-0.2253664353592411
222														9.525776449448182	-0.9077664782314318	-2.019344556998943	0.24534078743376136	-0.008725034039400614	0.9693976334829754	0.3527788650801026	-0.9305964573959804	-0.09765913083191902	0.9029700827680708	0.36594276500986106	-0.2252352600343936
223														9.491696528210545	-0.9508703502078579	-2.0237590837710746	0.24537504932788867	-0.008918515812229494	0.9693872008867471	0.35225248306554224	-0.9307887179741062	-0.09772691884163165	0.9031662490048525	0.3654487960957403	-0.22525075824662155
224														9.479654270334818	-1.0207921377637519	-2.070921677738567	0.24539831581495347	-0.00910651332613599	0.9693795634374722	0.35180673047492234	-0.9309490553332037	-0.09780532074872059	0.9033336542981938	0.3650355157916222	-0.22524959760899604
225														9.482837701596772	-1.0785763372080697	-2.089146400103367	0.2453493109885873	-0.009388374859457232	0.9693892788838365	0.35126936752873616	-0.9311395715420493	-0.0979230807544948	0.9035560563868674	0.3645421192756579	-0.22515660381304586
226														9.501312033056408	-1.0135063310275347	-2.064605986479849	0.2454454246755815	-0.009649368642974415	0.969362384864719	0.3507831449827705	-0.931305300876571	-0.09808986571097056	0.9037188327692525	0.3641116947366448	-0.22519978919658956
227														9.565778654767696	-1.0960047808086544	-2.064574745631771	0.24559579849712104	-0.009875570404408146	0.9693220191813193	0.35021996826097135	-0.9315029892578375	-0.09822502143037767	0.9038963865354516	0.3635995793629325	-0.22531459849564278
228														9.552454582175631	-1.0929214881444982	-2.0182516015525533	0.24567502648647277	-0.010087511192999749	0.9692997593514622	0.34982380635908394	-0.9316375382850137	-0.09836057016245006	0.9040282550149158	0.36324886699915704	-0.2253512253317379
229														9.512457585133907	-1.0603377307236503	-2.0320904771055304	0.24562848067680393	-0.010376398201169201	0.9693085060189948	0.34953255524566557	-0.931727075971184	-0.09854769771853217	0.9041535501804108	0.36301100019497784	-0.2252318170987418
230														9.488242764959438	-1.0520069952113236	-2.0641667694604324	0.24560869060337953	-0.01058867115203968	0.9693112251198412	0.3491600682115904	-0.9318557602009357	-0.0986513504561082	0.9043028352640343	0.36267440249288385	-0.2251747319524523
231														9.473055075668443	-1.0654585520924877	-2.092182661905044	0.24564522580590015	-0.010776245805675072	0.9692998997034425	0.34879613592441683	-0.931981048521543	-0.09875515561671297	0.9044333466889443	0.36234679206944986	-0.22517798221410296
232														9.475398772516884	-1.0864939852748732	-2.0645865866132973	0.24581103940853194	-0.010913417705026074	0.9692563284389184	0.34841983446957375	-0.9321109776798682	-0.0988571911237344	0.9045333337434789	0.3620083184164079	-0.22532071707730877
233														9.48813517750353	-1.0921012640970964	-2.1122901635642863	0.2459201684104388	-0.01106653269383015	0.9692269097704199	0.34798404361923385	-0.9322652009553586	-0.09893786168132107	0.9046714188894157	0.36160631485332423	-0.22541183842648999
234														9.533917787792133	-1.092919902930085	-2.074407227272848	0.24598002593640816	-0.011184185366435312	0.9692103697536532	0.3477103132687731	-0.9323601144593244	-0.09900583322172163	0.9047603908697903	0.36135789871412094	-0.22545310853935802
235														9.496491028184115	-1.0794521365962835	-2.060718980533929	0.24601874419467779	-0.011349059956929947	0.9691986258466153	0.3474424217659001	-0.9324486380554484	-0.09911256704366772	0.9048527731417525	0.36112426701432454	-0.22545669808423702
236														9.487255071836596	-1.058279483839917	-2.0654998294785067	0.24610674030106583	-0.011458712013413225	0.9691749946719512	0.3471732061240064	-0.9325412316309851	-0.0991847581926934	0.9049321727775852	0.3608816277218314	-0.2255265249252948
237														9.533457182520344	-1.0957429902327303	-2.0750347307942882	0.2462025523384871	-0.011557100255472602	0.9691494913870093	0.3469335743176749	-0.9326227803449425	-0.09925645869579958	0.9049980100713904	0.3606676905620374	-0.2256045627895623
238														9.505035139175323	-1.1040424640346418	-2.057323115330539	0.24628820857314176	-0.011593601752177135	0.969127291286467	0.3467365497109579	-0.9326940436201263	-0.09927530453279163	0.905050210437174	0.36048219012033034	-0.22569161967976786
239														9.530591561605494	-1.0770036660438427	-2.103841528861616	0.24630085879595082	-0.011746413777461245	0.9691222362115862	0.34641143078759806	-0.93280730109198	-0.09934616071688451	0.9051712586997368	0.36018406515678136	-0.2256821473468143
240														9.507457375718488	-1.1252922878918574	-2.0292104381290463	0.24634653188218075	-0.011804420513021663	0.9691099224989774	0.34627505401913405	-0.9328537468309632	-0.09938548177414894	0.9052110103139865	0.3600618595183134	-0.22571770893429438
241														9.502283515010838	-1.0858169774025506	-2.0853374985451314	0.2463621800240257	-0.01184700902946395	0.9691054249310883	0.34619438168258027	-0.9328808253230261	-0.09941235253249817	0.9052376076728282	0.3599902972604756	-0.22572518586344975
242														9.502676069071763	-1.122889178775417	-2.132551741674859	0.24640798589768786	-0.011889220820576779	0.9690932622375028	0.3461784433972751	-0.9328809630939519	-0.09946654726057941	0.9052312355486223	0.35998854860284246	-0.22575352724140207
243														9.46495663064685	-1.0723703931153619	-2.071211902544629	0.24639273198468747	-0.01194117684458798	0.9690965018617541	0.34621586667941384	-0.9328613683655513	-0.09952005361018498	0.9052210753647669	0.3600376031843313	-0.22571603622414083
244														9.50893668803421	-1.08938190667336	-2.107483547677433	0.2463374211634673	-0.01196619725510606	0.9691102543352763	0.3462164133019378	-0.9328608406594522	-0.09952309844695115	0.905235919578357	0.36003813976770804	-0.22565563989790732
245														9.509128031375674	-1.0895144221608377	-2.106551483285923	0.24626375477886692	-0.012019850505410934	0.9691283125964494	0.34607671430176973	-0.9329138883530611	-0.09951173165040983	0.9053093785553672	0.3598988748409746	-0.22558308666186627
246														9.512946076208058	-1.0351263719369908	-2.1095233840492686	0.24613320314108555	-0.012022319741818444	0.9691614468908342	0.34611131999876193	-0.9329052054965944	-0.09947276876649266	0.9053316522027849	0.3599212988771059	-0.22545788550058143
247														9.522463832953948	-1.0569942094975986	-2.1030549245881986	0.24593593735364894	-0.012067044153723894	0.9692109683466104	0.34604664803785484	-0.9329343692115295	-0.09942424314849346	0.905409980119364	0.3598442012722698	-0.22526632840035177
248														9.505322714864201	-1.0488099365920682	-2.1573538390037466	0.24569937116142493	-0.012093465629403694	0.9692706366644719	0.3460237884339177	-0.9329503844185856	-0.09935350044690203	0.905482941224582	0.35980179029888604	-0.2250406959840744
249														9.468781220852842	-1.0337205201984718	-2.140567295246047	0.2453343568293433	-0.012141034109275584	0.9693624959992468	0.3461689545016257	-0.9329026830989289	-0.09929571393605491	0.9055264260629747	0.3599238518875581	-0.2246702306582679
250														9.513571185091497	-1.049553385844491	-2.174030653567895	0.24499629769397524	-0.012193860037280957	0.9694473290971698	0.34600230055199654	-0.9329772427749852	-0.09917596723356048	0.9056816339801591	0.35972875092405054	-0.2243568666870961
251														9.529675301734693	-1.0363572747335836	-2.1416666049114066	0.2445855858543255	-0.012301422389696032	0.9695496718577583	0.3458518826751129	-0.9330426437829751	-0.09908531744187016	0.9058500794515483	0.3595554197751253	-0.22395431156366946
252														9.576692022614699	-1.0351408180591222	-2.0988094917244173	0.24410116114274305	-0.012395042178028143	0.9696705554249696	0.34554748929163215	-0.9331734529325533	-0.09891531421465732	0.9060968799046896	0.35921256892171793	-0.22350564770413772
253														9.562971494822902	-1.0456326400232012	-2.1219628941855198	0.2434586505448293	-0.012545722240516921	0.9698301347804961	0.3451095064177148	-0.9333575155037501	-0.09870753179362146	0.9064366023363204	0.3587288016122086	-0.222904313190339
254														9.572057526089852	-1.1033567841989942	-2.031290154500907	0.24273369477764856	-0.012630752026378339	0.9700107306225221	0.3448250166646927	-0.9334905289597988	-0.09844358904747963	0.9067392465873447	0.3583795424485091	-0.22223420585636994
255														9.543206075575988	-1.0885550171382237	-2.0335928375474577	0.2418802250941744	-0.012737271006056816	0.9702225098582852	0.34460192507945764	-0.9336020207242219	-0.09816710310069335	0.907052076751894	0.35808522564742673	-0.22143057881220496
256														9.488623642079444	-1.1014735515148069	-1.9890457065405134	0.24102269207249427	-0.012862878053298193	0.9704342369652433	0.34432251452958507	-0.9337337411933548	-0.09789436421513398	0.9073863939326795	0.3577371198593286	-0.220622041465945
257														9.470940709246404	-1.0709442088443375	-2.0651644052204428	0.24006547397009748	-0.012965628315825789	0.9706701090946853	0.34417871941518097	-0.9338180451590272	-0.09759542836167498	0.9076946498185602	0.357513287889763	-0.21971497826277753
258														9.516454137456305	-1.048051613845859	-2.04595809102463	0.23918408110546419	-0.013029775855344788	0.970886811264266	0.34400792524625734	-0.9339136688728098	-0.09728209732676071	0.9079920278909394	0.3572610866490884	-0.21889493656275483
259														9.543545532953367	-1.0915883377425804	-2.0512542028171312	0.23822260250622745	-0.013120871364504683	0.9711219461992384	0.34387059123319635	-0.933996390098897	-0.09697298472853763	0.9082967621543592	0.35704143459389315	-0.2179871689871739
260														9.574407267876497	-1.0805130651985797	-2.0594448467827666	0.2371168697293175	-0.013166736709566557	0.9713919019294899	0.3439097574828365	-0.93401973213944	-0.09660858493046273	0.908571223844266	0.35697867866105215	-0.21694366592169229
261														9.556851886552822	-1.0704323011470522	-1.9783823278285293	0.2359293810129045	-0.013227060161061982	0.9716801799225726	0.34393955521986397	-0.9340483313403874	-0.09622524136316696	0.9088690277097299	0.3569016105311564	-0.21582013546061185
262														9.538027560043977	-1.0762506560409417	-1.9725137310820064	0.23473110476344444	-0.013160864615198664	0.9719712444816012	0.34406092467073635	-0.9340536823896823	-0.09573817696714176	0.9091333172704926	0.3568900531772415	-0.21472331352672197
263														9.572643312996785	-1.0095605603172453	-1.9834390575983845	0.2335633663468018	-0.013095560457719535	0.9722533929984756	0.3443583977122753	-0.9339883571525485	-0.0953049979199326	0.9093214216248204	0.3570633767271325	-0.21363589860890358
264														9.535619066706232	-0.9706039800878763	-1.987245536435305	0.23235705586741223	-0.01299717407550921	0.9725437121562603	0.34447687870465	-0.9339977483631361	-0.09478336399650342	0.9095855532199981	0.357042405770859	-0.2125437410389382
265														9.542122198329258	-1.0220073965577534	-1.9947319943541224	0.23098551477686308	-0.012975823227723726	0.972870659427465	0.34446008102350334	-0.9340587029802088	-0.09424219844746776	0.9099411764199647	0.35688368889386535	-0.2112843772193242
266														9.490278112023987	-0.9418233117405762	-1.9030765808424752	0.22961469265216777	-0.01292867963363395	0.9731957368182319	0.34459108683454	-0.9340638011732832	-0.09371124912147746	0.9102384719360311	0.3568720563180142	-0.21001966485762952
267														9.46477714201726	-0.9445892373704474	-1.8728010531122932	0.22827046709640475	-0.012890228157719757	0.9735124220417689	0.3446009876441062	-0.9341141873317578	-0.09317104883082858	0.9105727610500415	0.3567415409558746	-0.20878869650949083
268														9.466991360610931	-0.955564620558415	-1.9367435409959588	0.227049795952592	-0.012745630228252897	0.9737997427951863	0.34451889828332904	-0.9342057107684194	-0.0925549495884131	0.9109089520273295	0.35650699695483845	-0.20772010552355147
269														9.492945282060525	-0.976105165289182	-1.9677104592145394	0.22579823573533686	-0.012651013674994466	0.9740919405229697	0.3442435086463419	-0.93436871805648	-0.09193206987959274	0.9113240716088132	0.35608292653606055	-0.20662377872802862
270														9.531966196417432	-0.9476067077578223	-1.9216578777991107	0.22441585979584022	-0.012464361920066697	0.9744137527529155	0.34433975926333593	-0.9343994355294063	-0.0912569179448629	0.9116291197973889	0.35600889674873737	-0.2054020773341526
271														9.39747674136111	-0.9630012814823405	-1.8711848764331933	0.22276486155144837	-0.012422370759617163	0.9747930555572678	0.34404909907927483	-0.9345768295264332	-0.0905337900181988	0.9121436476129751	0.3555444197523434	-0.20391697257037245
272														9.31905286360617	-1.0531276936453238	-1.8986554556278035	0.2211377916938992	-0.012363529205059953	0.975164201675975	0.343761747690221	-0.9347527750315354	-0.08980595968981583	0.9126477622334428	0.35508364185982944	-0.2024590560430674
273														9.417547518976532	-1.0281936901094941	-1.857700878430855	0.21969220936528544	-0.012241830751215765	0.9754924247394532	0.34377157235624156	-0.9348116973782046	-0.08915265831480951	0.9129931211043798	0.35493270915025343	-0.20116245373166597
274														9.517430539811237	-1.0237590796553968	-1.7905874407045803	0.21853459504261985	-0.012087215604435125	0.975754338954478	0.34366236902495817	-0.9349091725816694	-0.08854950671128528	0.9133119986541904	0.3546811783018523	-0.2001560762822303
275														9.612155190403977	-1.0702725152904946	-1.8233246791912268	0.2172056390899636	-0.012046380049127725	0.976051533001835	0.343381933477003	-0.9350683148719775	-0.08795506968944405	0.913734402388963	0.354262799698461	-0.19896560165187493
276														9.654792083494174	-1.0827113460136342	-1.7189767504454823	0.21564431182244814	-0.012145155711634853	0.976396449180026	0.34336365952828096	-0.9351208880093739	-0.08746611986310437	0.9141110042516553	0.3541206291665318	-0.19748329525489028
277														9.608397838445788	-1.113043298810801	-1.7669637710639683	0.21392786201202152	-0.012432055935727826	0.9767703485672445	0.3431575284035299	-0.9352344243577395	-0.08706022166424923	0.9145915922175023	0.35381070571911555	-0.1958065472950159
278														9.529322724547894	-1.0957248376576225	-1.7774074948611178	0.2122240697135297	-0.01267508786977034	0.9771388265654584	0.34334714749056283	-0.9351980732968452	-0.08670236451194871	0.9149173080362625	0.3538981574540375	-0.19411958583903044
279														9.489090683370971	-0.911394680114388	-1.713970118331716	0.21064918686214207	-0.012917389279803876	0.9774763736932535	0.34365636347943607	-0.9351109482513653	-0.08641653950791178	0.9151651347786411	0.3541195497492715	-0.1925412178494912
280														9.466471284756672	-0.9693834111627462	-1.8058131019381185	0.2094196215334478	-0.013094605533347098	0.977738182451066	0.34349535281355237	-0.935199538445086	-0.0860974209113819	0.9155077087126471	0.3538790112425778	-0.19135119725179356
281														9.55932174840987	-1.0889613167367453	-1.9094936402456264	0.20835310730273	-0.013163163068057204	0.9779650882395245	0.3434321066019608	-0.9352541651988965	-0.08575566822697572	0.9157747380400034	0.3537320703811847	-0.19034245861500282
282														9.634016602725097	-1.0611174137811832	-1.8007649725179142	0.207243242655896	-0.013257102534773468	0.9781996154189863	0.34368663723068615	-0.9351851440155006	-0.08548825534405882	0.9159310747881266	0.3539109996101997	-0.18925451273979477
283														9.633680730145793	-0.9314035593419739	-1.6991754984364824	0.20620567686594743	-0.013331781038622648	0.9784178465474737	0.34395939829340855	-0.9351082003908686	-0.08523254007354364	0.9160628532769429	0.35411144739487044	-0.18823902802027276
284														9.657320696303518	-0.9219491879834065	-1.5813070408670236	0.2055076063529404	-0.013274224142703572	0.9785654902480949	0.34384949948921056	-0.9351791208378035	-0.08489719459471151	0.9162609592425646	0.3539262732864603	-0.187622087307048
285														9.711842520899914	-1.0313755308518016	-1.5751974260007575	0.20516313302183525	-0.013096891524471743	0.9786401587310127	0.3439000230518503	-0.9351864876648348	-0.08461091793644276	0.9163191927454115	0.35391341415875555	-0.18736176847182978
286														9.839624069862182	-0.8691341100660203	-1.699834737167487	0.20484197380103386	-0.012830521539424267	0.9787109601339531	0.3444019685548191	-0.9350261946181635	-0.08434037842838435	0.9162025157272072	0.35434643090470663	-0.1871137543854915
287														9.94291779511471	-0.5808156992553066	-1.4562255427824538	0.20432352167476986	-0.012691658411795093	0.9788211380518803	0.3448349769180799	-0.9348878472577788	-0.08410440977512984	0.9161554110435233	0.3547162737406813	-0.18664304958717026
288														9.867439843695767	-0.8187942699362302	-1.661333258858828	0.20384629816468852	-0.012571335530566496	0.9789221870238363	0.3442557631701594	-0.9351379922354344	-0.08369531051386178	0.9164794903589955	0.3540605838000871	-0.18629666328320932
289														9.74714247751267	-0.8664639021290983	-1.5374077254724905	0.20334641176215568	-0.012465715420335477	0.9790274984710665	0.344537892362336	-0.9350544744207746	-0.08346718272595346	0.916484521173148	0.35428482299521036	-0.18584506085790203
290														9.586828407292579	-0.6986963742350466	-1.3416977533140286	0.2026912672522847	-0.01230085306999304	0.9791654299419545	0.3444712804691169	-0.9351157660871912	-0.08305444567951709	0.9166546716793784	0.354128780288916	-0.185302509047921
291														9.405423094438598	-0.8958898546605291	-1.5332061257096326	0.20207787092449908	-0.01206035903536079	0.9792951964666013	0.3440061725853543	-0.9353356174493516	-0.08250476321895223	0.9169647143188208	0.35355597926011395	-0.18486179222225713
292														9.394336419678977	-0.9229077752264151	-1.5315017146279772	0.20178498454878663	-0.011564394210328205	0.9793615700022099	0.344018342510236	-0.9353820411857672	-0.08192568000118666	0.917024645267048	0.3534497161035711	-0.18476768699951046
293														9.447871099876235	-0.844036954576015	-1.5461185456934452	0.20165125188606586	-0.010945496274165634	0.9793962266233697	0.343911116930456	-0.9354792085786447	-0.08126373095495396	0.917094278830933	0.35321218329551596	-0.1848762756742635
294														9.471487874620035	-0.933902688231792	-1.6599545750992666	0.20148256035435547	-0.010300126198962423	0.9794379435540259	0.34337966692504307	-0.9357423171428916	-0.0804780731037881	0.9173304651081311	0.3525340030526667	-0.18499890398638147
295														9.434096248932558	-0.9128394181871491	-1.647747846982256	0.20111691387463165	-0.009704143799554726	0.9795191762015999	0.3430183925292124	-0.935941251907256	-0.07970166475647189	0.9175458404571505	0.3520224461187034	-0.18490491634455092
296														9.471040314452413	-0.812351893718342	-1.5398695619667044	0.20082460976125766	-0.009075537352392221	0.9795851727828488	0.3427617021256054	-0.9360996459965059	-0.0789421834076943	0.9177057761996468	0.35161781437660633	-0.18488109947428916
297														9.511387359187129	-0.8389477195189596	-1.5247726751129353	0.2007804433746112	-0.008401463468516723	0.9796002393680203	0.3422993563126536	-0.9363320419318788	-0.07818860479393563	0.9178879911112459	0.35101527411676325	-0.18512134698757987
298														9.569876274070191	-0.9062547000273374	-1.605046871307031	0.20084923050108122	-0.0077701878533925905	0.9795913488735222	0.3420535071488442	-0.9364741002260073	-0.07756067207719292	0.9179645880175875	0.35065065775870613	-0.18543228240812765
299														9.650462670501696	-0.8893696905136412	-1.7106144516445354	0.20080996764521886	-0.007208022398091818	0.9796036960462301	0.3418829115702679	-0.9365847609175035	-0.07697441388759829	0.918036726754743	0.3503669933515592	-0.18561125585272564
300														9.678526411496632	-0.9458808294787502	-1.800738900975348	0.2007398870159543	-0.006651698504020337	0.979621994785659	0.34183079240797354	-0.936650293011287	-0.07640640001732621	0.9180714607929816	0.35020277484463536	-0.18574931862205807
301														9.704334796273278	-1.0571762483407365	-1.8858975496250294	0.2004896739807152	-0.006243443719608444	0.9796759209236627	0.3418118707358105	-0.9366966684384981	-0.07592098761412464	0.9181331796919181	0.35008623330079486	-0.18566392649642355
302														9.729992167243909	-1.0825082281768228	-1.8218347824738044	0.20011709264610067	-0.005892651421660122	0.9797542681152736	0.34203659358867455	-0.9366490527130753	-0.07549517003063994	0.9181307738427726	0.3502196863554677	-0.1854239828391948
303														9.668346776109573	-1.0393763580631665	-1.7646306891515844	0.19958685386009595	-0.00566227677711123	0.9798637795060745	0.34235130426843957	-0.9365622289789551	-0.07514503121078875	0.9181288973950923	0.3504556032818872	-0.1849870208863355
304														9.617773660346149	-1.0348386912252978	-1.7769455943312387	0.1990362416052066	-0.005439770847109809	0.9799770320884081	0.34271702501352896	-0.9364556839501886	-0.07480503167074182	0.9181119840703257	0.35074372537582976	-0.184524317681802
305														9.55966117575761	-1.0287321810966619	-1.7656519038637117	0.19842637620632453	-0.005248952434382337	0.9801017404963468	0.3432741280322532	-0.9362749974597313	-0.07451175850479544	0.918035863269689	0.35122866857664437	-0.18397982530852475
306														9.54810967601135	-0.963804320210973	-1.8208870472171352	0.19780784865231527	-0.00502302360983245	0.9802279450440893	0.3439849110367553	-0.9360379068946544	-0.07421197905533763	0.917903282481645	0.3518633343928995	-0.18342780029028394
307														9.626585972867195	-0.9178802923577364	-1.7673008073248153	0.19720581459390785	-0.0049127099192338985	0.9803498008219331	0.3447780011917768	-0.9357593534622947	-0.07404432660260074	0.9177352540817845	0.3526050165398657	-0.18284339125701188
308														9.710869626666133	-0.8548301511233879	-1.7644513856421598	0.19658317325084496	-0.004883632886925199	0.9804749900555618	0.34563027900726684	-0.9354517599913703	-0.07395752133763259	0.9175482364584366	0.3534206486028699	-0.1822061440049143
309														9.802720778164725	-0.798664479936455	-1.6803164717245904	0.19593857611886328	-0.005093414630830462	0.9806029428448144	0.34641252515629206	-0.9351530226687788	-0.07407554662834182	0.9173911035122115	0.35420739873814716	-0.18146812909103766
310														9.764001598342613	-0.7667949062210344	-1.6884128939024985	0.19525706368333828	-0.005402155762525479	0.9807372205615928	0.347246771625076	-0.9348270751533707	-0.07428337065694182	0.9172209977304943	0.3550621864875386	-0.1806557085977777
311														9.70797071457988	-0.7149507644576127	-1.5744847099621817	0.19452404612003427	-0.005801670028300759	0.9808805921752012	0.34793042797085694	-0.9345533877697081	-0.07452773108164357	0.9171176657185854	0.3557756400219725	-0.1797745287682565
312														9.705160827648502	-0.7520692446006342	-1.5897728399547075	0.19383286431481256	-0.00626442607589528	0.9810145654767083	0.34855992103338673	-0.9342941495240877	-0.0748359780737877	0.9170249735752644	0.3564480314590065	-0.17891338325649214
313														9.654628194829801	-0.753969457946131	-1.5986550198990834	0.19318532416527717	-0.00670378636823149	0.9811393834596017	0.34916505356616306	-0.9340443844483768	-0.07513223841063857	0.9169314019572549	0.35709403121416583	-0.1781029392680566
314														9.63274979948291	-0.8185054995808104	-1.6959345740447846	0.19252558226124078	-0.0071748547194492585	0.9812657242738715	0.3496052610369278	-0.9338564149387507	-0.07542120214532544	0.916902427540833	0.3575761705392283	-0.17728288307738266
315														9.603565321557886	-0.810324881098672	-1.6980833211490065	0.19174179364951432	-0.007772414833559088	0.9814146290613985	0.3501737710652528	-0.9336120355313249	-0.07580829221791072	0.9168497230331736	0.3582012795604048	-0.1762907504529994
316														9.555897388509116	-0.7586073027158858	-1.7093460805521379	0.19085646029915415	-0.008403246708481055	0.9815819869001435	0.35065408102138085	-0.9334022042778878	-0.0761711264996826	0.9168508750201027	0.3587334811443395	-0.17519920799174715
317														9.507528208728989	-0.7099344922240414	-1.616681313692298	0.18996980296088006	-0.009110616532298499	0.9817476613821934	0.35081540759711316	-0.9333110365978241	-0.07654448874456182	0.9169732950067171	0.3589533474298525	-0.1741047690714641
318														9.49319748981118	-0.7093251587285383	-1.5608339787491963	0.1892929190363281	-0.009697038340203357	0.9818727810924053	0.35110997618713685	-0.9331705612837666	-0.07690570963984189	0.9170005318562111	0.35930303505643824	-0.1732378526034583
319														9.62103262352797	-0.7211170203720033	-1.586820603255361	0.1888127951237023	-0.010187784345650264	0.9819602524785318	0.35129232188849224	-0.9330753447179042	-0.07722762240129347	0.9170296794432378	0.3595366603417395	-0.17259767347951682
320														9.673426295721248	-0.7247408339896132	-1.5630127565125276	0.18838330491227867	-0.010539541150250437	0.9820390259570495	0.3514469658956343	-0.9330002629265182	-0.07743086943720576	0.9170587552567617	0.35972131915052086	-0.17205758325493464
321														9.735046929308629	-0.7269377853930699	-1.664969223081368	0.18772701248833312	-0.010960375769100361	0.9821600882469242	0.35146994706352447	-0.9329783522498326	-0.07759040239843598	0.9171845207445278	0.3597655686640788	-0.1712929960927866
322														9.683580793000102	-0.7303747087370323	-1.570522582328877	0.18690332139969068	-0.011460127796678682	0.9823114648219521	0.35142500412118705	-0.9329820059517648	-0.07774987491080737	0.9173699444216542	0.35974052043258387	-0.1703500602603536
323														9.655870871784497	-0.7403610195511899	-1.5445841684749928	0.18612336925171485	-0.01197003595890686	0.9824534643725026	0.35122232126109065	-0.933045281279582	-0.0779062521873373	0.9176061096496476	0.3595597604307915	-0.1694573876011039
324														9.6621513359536	-0.7275917623456434	-1.4845477588620584	0.1856087600205345	-0.012433563481631826	0.9825450598841703	0.35111092956298146	-0.9330681226838546	-0.07813445829239551	0.9177529642256999	0.35948474923197404	-0.16882005723422222
325														9.660302715731904	-0.6905143422707299	-1.5351069243917472	0.18521992047527258	-0.012892686723770141	0.9826125175714878	0.3510264182378317	-0.9330767798105513	-0.07841030976531121	0.9178638432568599	0.35944610389795006	-0.16829873331172618
326														9.694168906299604	-0.7212714058303694	-1.5936802733371063	0.18486824465926227	-0.013277799758187131	0.9826736142535754	0.35075260482785753	-0.9331641933309114	-0.07859515564932851	0.9180394012911842	0.35920507835865967	-0.16785520354839517
327														9.686977670294164	-0.7207941565385194	-1.5649955467308259	0.18430646657934197	-0.01371363165514869	0.9827731491467727	0.3504099070341976	-0.9332809019874805	-0.07873788819697727	0.9182831934808143	0.35888534978773046	-0.16720431297791177
328														9.661312169096194	-0.7698195872964608	-1.4849731487464572	0.18367762769789425	-0.01411675121046374	0.9828851644106427	0.3499790715657724	-0.9334365300933182	-0.07880922378317237	0.9185734475529075	0.35846472856141376	-0.16651083997193156
329														9.654248459570656	-0.7684651931630785	-1.4552544327439187	0.1831086907970832	-0.014498472090560044	0.9829857586260426	0.3494766598445402	-0.9336196001070975	-0.07887018777564814	0.9188782680956606	0.3579723964259	-0.1658869850790488
330														9.673528829632497	-0.812870691538067	-1.4389831153366082	0.18265751805573838	-0.014759700047125457	0.9830658077424094	0.34902435487891753	-0.9337888029163028	-0.07886996417834263	0.919139940813733	0.3575201012567776	-0.16541205034177664
331														9.677357886603884	-0.8301183872908263	-1.508970328230976	0.18214713347702605	-0.015104238728969127	0.9831552693946777	0.3485171159373527	-0.9339742045999954	-0.07891771056307023	0.9194336526714764	0.35702107376767683	-0.1648566383891249
332														9.635978972809477	-0.8518006087343911	-1.5159840724361324	0.1816081005341177	-0.015503684298951437	0.9832487648573727	0.3480351265675681	-0.9341459277264397	-0.07901225466474746	0.9197228106856365	0.3565543738131234	-0.16425264082883073
333														9.611435132438524	-0.8267374366912503	-1.4692921004962842	0.18108203157980063	-0.015932546164926537	0.9833389302837734	0.34750496169056133	-0.9343331777097574	-0.0791316285136961	0.9200269558221512	0.35604447335057815	-0.1636543111474179
334														9.635465594014843	-0.857431863090821	-1.4008229456346901	0.18065474331379971	-0.016342399412769854	0.9834107939715016	0.3468953537620688	-0.934549154644019	-0.07925585841083818	0.920340957067822	0.35545858202550573	-0.1631616352207299
335														9.614964096283478	-0.8695654050514696	-1.4020942714993738	0.18020681840841002	-0.016828642045426362	0.9834847733473179	0.34634626239036304	-0.9347357518165091	-0.07945653405637174	0.9206355245846992	0.35494488457073503	-0.16261721861390765
336														9.559183308592287	-0.9280462763729272	-1.3075123971803253	0.1797614609129038	-0.01731336889572105	0.9835578602339261	0.34575061722993533	-0.9349398461834246	-0.07964919775888085	0.9209464305026527	0.3543835934069116	-0.16208004463359293
337														9.54569769538114	-0.922692567251477	-1.3599938895789336	0.17937011636160877	-0.017790066328351006	0.9836207983244638	0.3451863888846807	-0.9351303147071603	-0.07986019937641564	0.921234344933566	0.35385704466029744	-0.16159354460838865
338														9.554307115852868	-0.9263484603756524	-1.3786616005907284	0.17906185454960794	-0.01812048015819051	0.9836709309744243	0.3445271276588546	-0.9353660415461569	-0.07994639847680021	0.9215410520168883	0.3532166707859479	-0.16124538110128
339														9.593151344718343	-0.9411491672118801	-1.3861619090857047	0.1787699534960961	-0.01846022449147533	0.9837177053599918	0.34382385481537203	-0.9356167514965759	-0.08004030971262269	0.9218603259642436	0.3525344159521435	-0.16091309760979527
340														9.583413860053687	-0.8999851228107997	-1.4162438863032705	0.17850854529531585	-0.018690506357944475	0.9837608267402369	0.34333694581623697	-0.9357921917493631	-0.08007943243119306	0.9220924253534073	0.35205630065801585	-0.16062976147919844
341														9.65535565126988	-0.8712199885332409	-1.416115836811378	0.17818179195756279	-0.018894829038016953	0.9838161588683203	0.34269746109859056	-0.936029599127157	-0.08004398612284366	0.9223934622336456	0.35141368071473555	-0.1603082213585756
342														9.674180223237771	-0.9153105721269388	-1.4020244459286675	0.17781860225925944	-0.019129698432528985	0.9838773294107572	0.3421719719802998	-0.9362217605775099	-0.08004471632943944	0.9226585968177374	0.35088868556712965	-0.1599319982345489
343														9.622499181348703	-0.8937815816205595	-1.4446320069028118	0.17739947415795987	-0.019303615749045572	0.9839495906739798	0.3417384677975782	-0.9363853057018414	-0.07998361640381477	0.9228999112557347	0.3504424769982689	-0.15951747277171502
344														9.66522505132803	-0.8729188561319916	-1.4278767368648284	0.1771453634657043	-0.019470502656088545	0.9839920831637431	0.3412900956422279	-0.936549704401642	-0.07997325679072917	0.9231146141293195	0.34999364381587883	-0.15926034807622802
345														9.704067311591649	-0.8866763070507027	-1.4362337901468205	0.17691195472842164	-0.019639738661210826	0.9840307113802335	0.3408509028200827	-0.9367095317977654	-0.07997446521200333	0.9233216245279342	0.3495561953456564	-0.1590208916292632
346														9.730935388278843	-0.9328901529221073	-1.4461282206770427	0.17667718471278976	-0.019811802634627562	0.9840694410855004	0.34046033601013426	-0.9368505319595803	-0.07998650117937273	0.9235106561409181	0.34916840241267233	-0.15877498150134645
347														9.697457594044014	-0.955937365436836	-1.4789737364234852	0.17629648599619535	-0.020071477614676037	0.9841324528800769	0.34010600858740997	-0.9369750002390278	-0.08003594098787342	0.9237139448704527	0.34881941561994123	-0.1583589698704458
348														9.633048974040621	-0.9474201152368584	-1.5507898726566973	0.1758880717269815	-0.020339658207518624	0.9842000226215021	0.33987151311144626	-0.9370542390292238	-0.08010435501705329	0.9238780984521172	0.34859095143357266	-0.1579037927952851
349														9.596163682561683	-0.9544383229067043	-1.5068457185053419	0.1754173157392958	-0.020612966714839698	0.9842783503369528	0.33952322011955577	-0.9371777751890833	-0.08013613848500531	0.9240956380908136	0.3482426213071186	-0.15739862885895467
350														9.630733040229549	-0.9323985988713018	-1.4658726199334113	0.17505375494169717	-0.020811444108044613	0.9843388982839958	0.3394354065853449	-0.9372058535704979	-0.0801797529893716	0.9241968338168307	0.34815524098788564	-0.15699726282841164
351														9.675151302684878	-0.9522430201071295	-1.3921601971383513	0.17470963032402148	-0.02095264745504291	0.9843970396322154	0.3394962461669978	-0.9371819915634589	-0.08020108183601415	0.9242396030849153	0.348211001052199	-0.15662137413413452
352														9.689437741996809	-1.0106297266081832	-1.4302952199193484	0.174354667559739	-0.02108311121592016	0.9844571866371795	0.3395080339609654	-0.9371778166724511	-0.08019996766220105	0.9243023016178707	0.3482143626539768	-0.15624344103158988
353														9.65609853541606	-0.9827988569718883	-1.3622391241247347	0.17387710818135327	-0.021279373145301372	0.9845374241383785	0.33937588913249445	-0.9372262500190987	-0.08019327995952805	0.9244407807566796	0.3480720393161183	-0.15574048388360606
354														9.669606264922109	-0.9707329102501656	-1.327129274781675	0.1733701562208107	-0.021471806314910552	0.9846226436892188	0.3394851824884506	-0.93718496915786	-0.08021311897292177	0.9244958625125127	0.3481713588423891	-0.15519054442551966
355														9.579818875933231	-0.935953042258673	-1.3575360053917018	0.17289514734804162	-0.021694504381333607	0.9847012828787964	0.33965386246895657	-0.937117861984518	-0.08028303967517167	0.9245228616607695	0.34833814208210734	-0.15465450862282532
356														9.584036244934357	-0.9023931896463445	-1.3284457290269551	0.17258149904855807	-0.021875060621919157	0.98475230789724	0.3398111758791904	-0.9370534900089758	-0.08036866061843223	0.9245236562326327	0.3484999836223614	-0.15428470592206905
357														9.588405230344113	-0.9195543127449816	-1.4003117034213923	0.1723569376889813	-0.022043513759596206	0.9847878804755914	0.339911706027896	-0.9370087467623291	-0.08046515143896193	0.9245285923840767	0.34860965562075347	-0.1540071098108715
358														9.635614638695722	-0.9362140968288513	-1.4309442884528165	0.17213512868771602	-0.022195658767090093	0.9848232583583509	0.3400571308461734	-0.9369483002899242	-0.08055451784035239	0.9245164385949731	0.34876243392274636	-0.15373392420656545
359														9.66618454924968	-0.9488941228623224	-1.4154380360050498	0.1718456086500088	-0.02237264395741287	0.9848698145389891	0.3403220802735909	-0.9368427670433527	-0.08066295008744612	0.9244728056930411	0.34903451783585693	-0.15337841077911624
360														9.660445761758824	-1.0077830301389095	-1.3045008426724665	0.17155695446146424	-0.02250502325757031	0.9849171210330767	0.34052880279030906	-0.9367627807805036	-0.08071943393370609	0.9244502938752883	0.34924062832459135	-0.1530445610968868
361														9.695684534786727	-1.0565538649121902	-1.3367122216227798	0.17141300642488722	-0.022582957131074416	0.9849403998596046	0.34098130062457455	-0.9365897818899174	-0.08081666340409555	0.9243101935242061	0.3496992858251406	-0.1528433042060774
362														9.687435626212176	-1.0552067116591137	-1.3124176046596197	0.17143005624296054	-0.022551739369229717	0.9849381477371854	0.3414915854282912	-0.9363985937997159	-0.08087750374230596	0.9241186249060277	0.3502129246349097	-0.1528256343695505
363														9.694559675550266	-1.0176515921110152	-1.3900422638441374	0.17127163343658025	-0.0225614535785488	0.9849654858889164	0.341997258373521	-0.9362109428018217	-0.08091319943692521	0.9239609855643046	0.3507136316006943	-0.15263042214608347
364														9.60096366694303	-1.017169096626603	-1.4477168200772907	0.17098105621840182	-0.022610829027335966	0.9850148368553322	0.3424696014860033	-0.9360365343093182	-0.08093317302700542	0.9238398402712769	0.35117567804291017	-0.15230099368895972
365														9.599590581795864	-0.9267798887814692	-1.4004263783986766	0.17064428144193733	-0.022703596407623594	0.9850711019623533	0.34315378389530743	-0.9357790889452806	-0.08101220458099864	0.9236482067375533	0.3518551454830534	-0.1518945252061501
366														9.598173091545206	-0.836469322820989	-1.3531983516037969	0.1703598246324503	-0.022752014520063535	0.9851192191742475	0.34380276273198634	-0.9355365560947587	-0.08106178229111013	0.9234593604967432	0.3524963801879909	-0.1515556381838335
367														9.610639412749709	-0.8047248888164514	-1.347826040581441	0.170030685651122	-0.0228619741097639	0.9851735360213522	0.344463589773634	-0.9352853501584806	-0.0811550928727846	0.9232737412367317	0.35315526885313947	-0.15115209169573496
368														9.648438348726536	-0.7794370870931158	-1.410254666567168	0.16961841520643006	-0.023016653697003647	0.985240999388196	0.3449463650114738	-0.9351008095526907	-0.08123103618244112	0.9231693227616643	0.35363358102207176	-0.15067080634706775
369														9.65201603787361	-0.7262730268036207	-1.4088705567464992	0.1691619817800627	-0.023280356059622226	0.9853132745183018	0.3454781541126555	-0.9348896097342083	-0.08140185895869459	0.9230542069408239	0.35417431108531316	-0.1501049246896644
370														9.664650724226535	-0.6639303870302594	-1.2735346268854089	0.16858246721818682	-0.023572232039221652	0.9854056533343606	0.34572200386897833	-0.9347902731964826	-0.08150730751327445	0.9230689290553805	0.3544171200914742	-0.14943981129076178
371														9.577783671752751	-0.7409892745888089	-1.3185434671040872	0.168057582261604	-0.02391707582436578	0.9854869976455276	0.3456990265878238	-0.9347872304015251	-0.08163955471753545	0.9231732405462236	0.3544020419837588	-0.1488299720389908
372														9.597092309318851	-0.8061422122128623	-1.2743429869361702	0.16774219801884704	-0.02415677227786478	0.985534882871693	0.3457177071790362	-0.9347702254772432	-0.08175507632003276	0.9232236034388832	0.35443063625248256	-0.1484489883393766
373														9.631999282629327	-0.8356655530519607	-1.3334364220491668	0.16744905300593538	-0.024384934728662017	0.9855791138237935	0.3456610428288618	-0.9347823787406859	-0.08185565262319017	0.9232980332037315	0.354382955789614	-0.14809950211914047
374														9.664645579762013	-0.9389999131534095	-1.3600861414065328	0.1670684024259333	-0.0245646592885288	0.9856392476078077	0.34562424804074565	-0.9347937058912297	-0.08188166212535447	0.9233807600752335	0.3543406622731578	-0.14768434914609047
375														9.611900928992743	-1.0121456194541258	-1.3416335955971441	0.16649813186213824	-0.024775804786835415	0.9857304558466187	0.34581583637675983	-0.9347208113769947	-0.08190489661659078	0.923412031217625	0.35451821430766706	-0.1470614032526648
376														9.57756393096783	-0.9638654790144291	-1.3013835266761196	0.16607243181565245	-0.02487881394281191	0.9857996713367451	0.3460976755128715	-0.9346175906107239	-0.0818923581635824	0.9233830983916821	0.35478303783834475	-0.14660371641528436
377														9.565644949230338	-0.9762697164295674	-1.3268794186469794	0.16576588054754143	-0.02494077995373431	0.9858496996710997	0.3463479431481661	-0.9345260383059683	-0.08187909382245576	0.9233443426605985	0.3550197758202368	-0.14627434379690735
378														9.650625519698798	-0.954835732241666	-1.2680088493261616	0.1655682847017228	-0.02499139041550305	0.9858816224608455	0.3466949875593275	-0.9343946411870105	-0.08190995130163167	0.9232495484440635	0.3553619069710453	-0.14604172818662198
379														9.701503945446536	-0.9368238483514779	-1.2741680823880164	0.16531348206944774	-0.025122790580502402	0.9859210404690237	0.34681335643326916	-0.9343463048291392	-0.08196022481437631	0.9232507505794751	0.3554797153785024	-0.1457471217858326
380														9.735281501447659	-0.9147639885787305	-1.2347450092343648	0.16512927474717892	-0.0252435251885344	0.9859488257802866	0.34710590627419424	-0.9342294719947137	-0.08205354036266987	0.9231737715354789	0.3557781023229702	-0.14550645846980542
381														9.713540656098731	-0.8868921104659075	-1.2952096289140596	0.16492867320096888	-0.025484283949166714	0.985976208651997	0.3473810318556293	-0.9341097782688959	-0.08225169207592309	0.9231061431184857	0.3560750951892486	-0.14520872949957692
382														9.726296504744353	-0.8762502813986037	-1.261983875313181	0.16465669341449607	-0.025776602621784633	0.9860140668728229	0.3474716044794455	-0.9340591856093403	-0.08244344643024218	0.9231206082599851	0.35618675513850173	-0.14484245948485042
383														9.714747212198752	-0.9104961310456549	-1.2586836339807308	0.1642355741930383	-0.02613310296711266	0.98607491454696	0.34747523636065647	-0.9340415446427439	-0.08262779797080386	0.9231942570692205	0.3562070378455602	-0.14432224327421855
384														9.689945566905083	-0.9174769286048426	-1.3412217754679885	0.1638720605190288	-0.026406789703529415	0.9861280998119879	0.3475956920294603	-0.9339838717088389	-0.08277295615313188	0.9232135087095557	0.3563380541639095	-0.14387497520719295
385														9.6609480345566	-0.9271840039946682	-1.3200287779439155	0.16339732989207062	-0.026750195521527992	0.9861976169225425	0.34775056816343153	-0.9339106253841266	-0.08294869581036321	0.92323932700365	0.3565043770196793	-0.14329610685450583
386														9.670276224363368	-0.9306065491502201	-1.3365862289702488	0.16284727118417552	-0.027021286798437683	0.9862812055025806	0.3478442435818477	-0.9338695132847312	-0.08301875911088466	0.9233012230441587	0.35659161826534214	-0.14267890281350182
387														9.653559426518541	-0.9070768964728749	-1.3123989919295593	0.16216187793259595	-0.027344123229835732	0.9863852311699347	0.347841454953536	-0.9338656940722829	-0.0830733871387247	0.9234228974642015	0.3565770104194672	-0.14192599507889359
388														9.709299911729733	-0.8938139479928113	-1.232610427201278	0.16140808924898814	-0.02759824605108091	0.98650178182297	0.3478976746089313	-0.9338470962549397	-0.08304702774883269	0.9235337767113279	0.3566061379605253	-0.14112910983276955
389														9.736640060217754	-0.9198304342869974	-1.264562907047604	0.1606758067164447	-0.027802158669492788	0.9866155913573105	0.34777506245154044	-0.9339010517354571	-0.08295379137950223	0.9237076328973612	0.3564489662500414	-0.14038640741336034
390														9.821884048463046	-0.897043872068114	-1.201300332165378	0.16004994635360276	-0.027844882548814648	0.9867161076966626	0.3478892952427569	-0.933873665023744	-0.08278294528837701	0.9237732692212453	0.35651737726366606	-0.13977949342206825
391														9.924471728197023	-0.8777026947181191	-1.1835491509213811	0.15930870243223205	-0.02785005669714774	0.9868359091922649	0.34791263956671675	-0.9338881817414441	-0.08252065943374182	0.9238925979566448	0.35647894516454326	-0.13908712771243847
392														9.908223190101126	-0.8701470087976633	-1.130700765364443	0.15851032455529823	-0.02777992978471594	0.9869664394043653	0.34789441252812453	-0.9339267601112271	-0.08216011489681696	0.9240367713143702	0.35638333609935147	-0.1383725515035824
393														9.796900297598363	-0.8103559190445343	-1.0403427032284152	0.15766064262540458	-0.027750408911456748	0.9871033565803492	0.3479695126323557	-0.9339274717422703	-0.081833341637089	0.924153850852414	0.35638377113771413	-0.13758730909613748
394														9.646859207897943	-0.757355955867442	-0.9124256067947233	0.15703355028430227	-0.027776718642195386	0.9872025719104365	0.34800111591371896	-0.9339331281977259	-0.08163415570468693	0.9242487151237564	0.35636689795249366	-0.13699250576510796
395														9.456534933460567	-0.7781749741327477	-0.9006854895827934	0.15678394115628475	-0.027839405943430817	0.9872404789473638	0.3477873491614504	-0.9340182899761105	-0.08157078982916857	0.9243715462727932	0.3561387390706322	-0.13675687541921272
396														9.246978531583428	-0.8623598971281614	-0.9986062334275481	0.1568839245578763	-0.02790898149924298	0.9872226309029765	0.3476356225523138	-0.9340677990353002	-0.08165060157779591	0.9244116551342182	0.3560034207097253	-0.1368380659575052
397														9.257821848134776	-0.9373717835664674	-1.093443160540461	0.15717916488132322	-0.028029167336325073	0.9871722625285024	0.34758136916051774	-0.9340693227891208	-0.08186386282587424	0.9243819026461466	0.35598998019987294	-0.1370738197380681
398														9.443666702207874	-1.0384213917242213	-1.2517789855239154	0.1577757997832711	-0.028091622899999613	0.9870753049922758	0.34742434372064074	-0.9341055179000202	-0.08211703123602374	0.9243392896512796	0.3558900703188841	-0.13761953151856215
399														9.636262237973032	-1.1295335638424937	-1.2796733416182378	0.15853282970146093	-0.02801244322446786	0.9869562527951494	0.3471527509079383	-0.9341923835854045	-0.08227732365646492	0.924311803150808	0.35566823512314905	-0.13837556533032042
400														9.81729664739504	-1.1068811687773092	-1.2716023580710858	0.15925567373467053	-0.027829745807205597	0.9868450413472336	0.34730093178094634	-0.9341273731687995	-0.08239000837993296	0.9241318591886134	0.355853278676852	-0.13909978751792573
401														9.724286655672607	-0.9813828503693025	-1.2716128954369728	0.1595302916055299	-0.02767968130212059	0.9868049053907607	0.3474854723515405	-0.9340599861503835	-0.08237589925076735	0.9240151149006611	0.35604181989726835	-0.13939257483582024
402														9.664026694932632	-0.9574088376909029	-1.299920892325933	0.15984644907311474	-0.027356029584543362	0.9867627680268886	0.3477884630152349	-0.933960008646515	-0.08223069525732751	0.9238464686906683	0.35632899109442734	-0.13977607947503323
403														9.713618268998585	-0.9171782071453575	-1.3435073257082482	0.16069912633382927	-0.026678939292265252	0.986642805170029	0.3482605545020234	-0.9338067262345027	-0.0819730700727013	0.9235206424187211	0.35678177116753096	-0.14077070287908783
404														9.788771568430276	-0.9028250041349246	-1.4321636524483423	0.16194376872530547	-0.025860948276083595	0.9864610621435126	0.34860843077792186	-0.9337001848360937	-0.08170756897374762	0.9231719112720014	0.35712067455036345	-0.1421915821949168
405														9.810961198006115	-0.8359932957752042	-1.4423861331698156	0.16306965746262947	-0.02517376652389383	0.9862933479923817	0.3491329799318943	-0.9335178656127082	-0.0815509466883684	0.9227754055775956	0.35764602061381034	-0.14343944645811246
406														9.77793406856922	-0.77125759867334	-1.3670665262406692	0.16406536190557275	-0.024625038078712663	0.9861420610248888	0.34937787383099383	-0.933436341375977	-0.0814352373114044	0.9225061833397799	0.35789691825755154	-0.14454112771671568
407														9.708723790133234	-0.7841268208209946	-1.3241279496668865	0.1652519114860545	-0.02401296401261724	0.9859590170537182	0.3495823369914599	-0.9333694868396567	-0.08132398600822158	0.9222168917417393	0.3581128014969652	-0.14584658374538845
408														9.687017267833165	-0.8328241444925892	-1.287901575769719	0.1666527971243929	-0.02332757794432333	0.9857396559527614	0.3497314896759045	-0.9333231834474549	-0.08121404046457595	0.9219082006033408	0.35827874531816783	-0.14738253055756217
409														9.669775258932386	-0.8986157685374508	-1.327964654935928	0.16806240596194066	-0.022563954762388927	0.9855180848912746	0.3502274431314628	-0.933147986174834	-0.08108991290814532	0.921463925381717	0.358783644893874	-0.1489245794917169
410														9.531129747159438	-0.8657572231486396	-1.318405949591039	0.16947980754013842	-0.021678460323267285	0.985295204085644	0.3507746998964043	-0.9329620602009213	-0.08086349076215171	0.9209960394859176	0.3593213583739013	-0.15051397499099312
411														9.574842492433739	-0.8082048857927207	-1.2954748464178723	0.1708037164589446	-0.020864913805409835	0.9850841313388949	0.3514010321222846	-0.9327417308520346	-0.08068567500209553	0.9205125773541638	0.3599409936351283	-0.15198380187951271
412														9.617887061702382	-0.8966902837472861	-1.3105400056654823	0.1722386790413632	-0.020090633961588084	0.9848503459252618	0.35177636825498626	-0.9326122692470137	-0.08054652064036	0.9201017466451298	0.36032030428072903	-0.1535644950619261
413														9.714086636886382	-0.9131189734048047	-1.3395557112511165	0.17359561293520975	-0.019443925574808646	0.9846250539814078	0.3523162931788171	-0.9324099996512509	-0.08052839319825117	0.9196400343234229	0.36087882496566026	-0.15501187361301627
414														9.759260431713885	-0.7638909824683411	-1.3755541184140316	0.17455875315727282	-0.01894456958309018	0.9844644965561175	0.35306609818842094	-0.9321252710885372	-0.08054073073995091	0.9191700452071873	0.361640128140438	-0.1560219398430392
415														9.79475702624125	-0.6862866808482607	-1.351576460498438	0.17507360063702276	-0.01865250319861933	0.9843786458900932	0.3535514372166259	-0.9319414686685535	-0.08053868770943143	0.9188855291068883	0.36212868306766943	-0.15656372918919942
416														9.790393201165124	-0.6685642251825229	-1.2803918657354234	0.17533635399742503	-0.018452935441896606	0.9843356399828599	0.3539207275386611	-0.9318036940341154	-0.0805108340714526	0.918693246728958	0.3624932619483476	-0.15684818601645384
417														9.808309194387373	-0.6600304900417951	-1.171718478854501	0.17539269377099775	-0.018376192706490213	0.9843270383939309	0.3544429209238189	-0.9316019356923508	-0.08054842780126983	0.9184811477535859	0.3630153563637203	-0.15688286160500975
418														9.745185445646102	-0.6920218946455459	-1.1906985555643281	0.17530923475049437	-0.018469529870001944	0.9843401590291726	0.35475087935201577	-0.9314752188119424	-0.08065810770291612	0.9183781823465577	0.36333564813492325	-0.15674412583636937
419														9.727081356130167	-0.649655498054237	-1.1993795579091437	0.17509389489362492	-0.018713517103400523	0.9843738782843643	0.3551311924427424	-0.9313116391211833	-0.08087315371376605	0.9182722712383162	0.3637422646806875	-0.1564212286097657
420														9.687547132819354	-0.6511022172050693	-1.3403272648879139	0.17473187336408802	-0.019030025920928534	0.9844321360785239	0.35529239861479234	-0.9312335315685791	-0.08106430267916956	0.9182788704512502	0.3639257723709072	-0.1559549559552852
421														9.700542244436505	-0.6733570750439077	-1.431680275918466	0.17406056094236672	-0.01958245908879211	0.9845402218398518	0.3549963602667384	-0.9313271721650577	-0.08128519289763195	0.9185208246533101	0.3636567415614248	-0.1551556283063245
422														9.728390681154591	-0.7222850148290063	-1.4334875820021435	0.1731259373532822	-0.02028521568897898	0.9846907737152809	0.3547984326722916	-0.9313779788112317	-0.08156673806638162	0.9187739014517294	0.3634880611656399	-0.1540485228790308
423														9.714335411811334	-0.792529779202195	-1.4469282737063822	0.1721907719656025	-0.02106763637696546	0.9848383079203299	0.35437473052511487	-0.9315112338081251	-0.08188633374695439	0.919113098815996	0.36310188100139795	-0.15293180048016375
424														9.72117247189901	-0.8525984221614286	-1.4545832420016491	0.17142254578225652	-0.02179999355496698	0.984956380292312	0.3539732330662432	-0.9316339971041635	-0.08222557821232121	0.9194113666200572	0.36274351230686797	-0.15198645732142008
425														9.676008698458004	-0.892121477514907	-1.5106802444135945	0.1706665854618728	-0.022550139902839134	0.9850707628374461	0.3535186369991695	-0.9317753994904401	-0.08257831554761128	0.9197268561377531	0.36233423257373	-0.15105103112581358
426														9.681388086730363	-0.9126327745606128	-1.5769309706784682	0.16997779014342124	-0.0232025195983466	0.9851747022443518	0.35283150284458686	-0.932013786917834	-0.08282651505109048	0.9201181888531436	0.3616793387510082	-0.1502350640238293
427														9.709435767765857	-0.9811427938018211	-1.5531015176206036	0.1695629040997162	-0.02378363777791348	0.9852323381453332	0.3521662891784526	-0.9322397776173099	-0.08311378823220517	0.9204495240476522	0.36105863180663383	-0.14969748855065235
428														9.772016695885679	-0.9137894317909225	-1.5838272975680858	0.16909304557674654	-0.024418015423943423	0.98529757051377	0.35154464611556224	-0.932445333106269	-0.0834389750405905	0.9207735355260084	0.36048503615420185	-0.14908599861770822
429														9.709533944018109	-0.9155690081460317	-1.4687750762706766	0.16829945097332094	-0.02519146419621987	0.9854139662769799	0.35073175666434464	-0.932723868289038	-0.08374616642614599	0.9212288150450034	0.35971040526454523	-0.14814146845227
430														9.745691826907876	-0.9668918204733384	-1.4940621725158647	0.16757928465696326	-0.02586133311902769	0.9855193426834239	0.3498452631665143	-0.933036405897177	-0.08397235920486887	0.9216970625936776	0.35885130168328194	-0.14731010856828974
431														9.81902762063288	-0.9794542205382176	-1.4333428081252404	0.16726123322578668	-0.026282808421755482	0.9855622222068243	0.3491662836604712	-0.9332750745720333	-0.08414595377854098	0.9220122484080804	0.3581994544440712	-0.14692366937102175
432														9.784706670265791	-0.9447085620054283	-1.550014643895547	0.16677246365956488	-0.026646140048040473	0.9856352918729417	0.34861487596680973	-0.9334742674998406	-0.08422268204160699	0.9223093914839883	0.357653149204891	-0.14638856254591426
433														9.79093492310429	-0.9823004788484078	-1.5891146009662767	0.1658704194830623	-0.027158766048601818	0.9857735061195502	0.3478578363102037	-0.933753490586431	-0.08425760817421796	0.9227577849349725	0.356884883743167	-0.1454346935828233
434														9.779088520848351	-0.9627540949205596	-1.4823298080321052	0.16509200121797435	-0.027468535254832616	0.9858955881353758	0.347393536704351	-0.9339321422701701	-0.08419313683842441	0.923072240829442	0.3563933686330386	-0.1446423347589078
435														9.79381839165278	-1.0081062601061064	-1.360807143266019	0.16452119303532198	-0.02755148609955524	0.9859886878945119	0.34710191833135395	-0.9340563821568817	-0.08401745796375934	0.9232838324875667	0.35606121744119223	-0.14410889667667137
436														9.746889552570291	-0.9501843865457451	-1.3788237397029948	0.16389612890083216	-0.027520753530331094	0.9860936401054645	0.34693611086307696	-0.9341434095246293	-0.08373425476412943	0.9234573048660806	0.35583521265724133	-0.14355454546147695
437														9.760772300111753	-0.9543868134042365	-1.31469700540485	0.16318595426224075	-0.027466889047686127	0.9862129153167507	0.34690274901211193	-0.9341840139080548	-0.08341888806784459	0.9235955971416072	0.3557327622874762	-0.14291737044866332
438														9.759297265035627	-1.0243702694336432	-1.2762733555695984	0.16253182923027298	-0.027193162612547644	0.9863285134245028	0.3467513862673399	-0.9342865999952429	-0.08289767904475892	0.9237677633522074	0.3554842907590396	-0.14242204328966512
439														9.813849976156032	-1.11156989063224	-1.293922038937324	0.16183193062105589	-0.02688553673589844	0.9864520232357399	0.34670666724477056	-0.9343521242387913	-0.08234436725412653	0.9239074158807721	0.35533544130142886	-0.14188661330665792
440														9.762934088610894	-1.0724275702305373	-1.1801429505401235	0.16107417454906664	-0.02645380844967371	0.9865877083725727	0.3469726557521934	-0.9343099364078584	-0.08170017680405064	0.923939979897832	0.35547874584572736	-0.1413144536073438
441														9.729728649507326	-1.0568614436077337	-1.0825545997455301	0.16013302061288115	-0.026068620294198097	0.9867511554314755	0.3469638201530531	-0.9343749362902052	-0.0809912707486134	0.9241068786748613	0.3553363272571949	-0.14057941284972453
442														9.736347594421982	-1.0672688338197147	-1.15106664933836	0.15938583286098934	-0.025625065254265916	0.9868837379924361	0.34710179295394206	-0.9343816195450422	-0.08032019910671848	0.9241842357513829	0.3553510167244478	-0.14003268654686923
443														9.710552168641918	-0.995233217964766	-1.1623713720730318	0.15868080891904235	-0.025230549764139354	0.9870075076915057	0.34747975102924894	-0.9342902207620085	-0.0797471379619889	0.9241635263877543	0.3556194633974308	-0.13948682284529212
444														9.643142580107572	-0.964239459279714	-1.1592105162912545	0.1579085631115381	-0.024910064921270514	0.9871394908328144	0.3474372518753719	-0.9343562783697326	-0.07915618156753701	0.924311766508108	0.3554684708053326	-0.1388881728513255
445														9.63352185587913	-1.0503821589401898	-1.0693393969811704	0.15712568869935206	-0.02464818947072492	0.9872709783572946	0.347337635361857	-0.9344395475391079	-0.078608517707316	0.9244826039531453	0.35526778456640706	-0.13826321360828076
446														9.629387357065935	-1.0279266966420515	-0.9882020859915978	0.15640737882557265	-0.024314637412095774	0.9873933006945271	0.3473912240183067	-0.9344673120517462	-0.07803960649470074	0.9245842683736173	0.3552177376121629	-0.1377108912240428
447														9.663740102145622	-1.1447553944026352	-0.9849372581366878	0.1558339442687966	-0.0239291180699151	0.9874933818117598	0.34718798882341356	-0.9345930381594887	-0.07743612490672774	0.9247574180456101	0.35491301798076264	-0.13733341704553914
448														9.607556679602022	-1.1882206886062938	-1.0772515458017615	0.15531309817975847	-0.023613678218317863	0.9875830272614079	0.3474402630598603	-0.9345364896466607	-0.07698579819546161	0.9247502933974663	0.3550830096187355	-0.13694141499707546
449														9.552310855552463	-1.1662668373799594	-1.0162073763797275	0.1545270039758313	-0.02355128224021294	0.9877078222567116	0.34738551219471037	-0.9345858280890491	-0.076633125033016	0.9249025413304218	0.3549572749500269	-0.13623737372901346
450														9.416174861557536	-1.238891388650467	-1.0813694840942958	0.15376235205326172	-0.023556519358969685	0.9878270240718967	0.34729447839402416	-0.9346430665084592	-0.07634712505842525	0.9250641514879234	0.3548061845900584	-0.13553186713306176
451														9.398445287820843	-1.0473274511882347	-1.047893639977679	0.15314672771981325	-0.02357727423019032	0.98792215884076	0.3475519733496456	-0.9345609070801744	-0.07618094760666028	0.9250695679836628	0.35502115866150274	-0.13493061658928068
452														9.430761108056815	-0.7313677685168763	-0.9300703470054882	0.15283415771258535	-0.023517304723279092	0.987971991816993	0.34751940176046503	-0.9345872628777758	-0.07600600941159455	0.9251334961162808	0.3549557499818524	-0.13466413746238293
453														9.539877959764238	-0.5096675078747817	-0.9859694456770971	0.15270923049444157	-0.023507628020704413	0.9879915396128836	0.34721699140099704	-0.9347076588166883	-0.07590753211550036	0.9252676649511944	0.35463923073211456	-0.13457623943883484
454														9.657617923124478	-0.20457384161083508	-0.9437832911116883	0.15297941386231073	-0.0234587108441619	0.9879509035472734	0.34663643629633306	-0.9349257853584311	-0.07587461303821846	0.9254406950021824	0.3540670342709854	-0.13489275472176698
455														9.787851480651538	-0.03391841727485031	-0.9115064138883934	0.15326985068963178	-0.02373243720779869	0.9878993492728684	0.34507237544909675	-0.9354931637791299	-0.07601050075109611	0.9259770021828276	0.35254689325917005	-0.13519348905110667
456														9.84028964942164	-0.47347500481849436	-1.007779677859293	0.1532631162016297	-0.024238985130337537	0.9878880952881341	0.342688591440911	-0.936358485884854	-0.07614010249315833	0.9268629599398235	0.350207449251548	-0.13520279575627991
457														9.788333791402396	-0.9657174849196933	-1.1384274447458709	0.15297443547719208	-0.02502497622962946	0.9879132414615873	0.34032980229966775	-0.9371940661258316	-0.07643891734711708	0.9277793098345658	0.347909518385509	-0.13484998798538977
458														9.755902163691797	-1.137656996933408	-1.2113975894066484	0.1526986489378931	-0.025803644273422605	0.987935875730177	0.33858843754056733	-0.9377928514206958	-0.07682732448860369	0.9284616268733881	0.34623509320467577	-0.1344628857981639
459														9.687154470730635	-1.0113576088067566	-1.1147761274998818	0.15240959167792856	-0.026580467621143355	0.9879599157382895	0.3369068672174115	-0.9383660631541457	-0.07721977947610736	0.929120594533517	0.3446195152071782	-0.13406084645433547
460														9.434149509980761	-1.1086739581400296	-1.0698451612482907	0.15189688267635187	-0.027334228727723675	0.9880183080151232	0.33490271530555354	-0.9390628142068043	-0.07746742705785617	0.9299287651826744	0.3426570748049096	-0.13348640669359818
461														9.225718473211984	-1.0893102603989233	-1.0688871849292219	0.15117224086597963	-0.027982250066801162	0.9881113030791409	0.33328989383495805	-0.9396255385366874	-0.07759957472256548	0.9306260259948897	0.34105841290142613	-0.1327190970814664
462														9.190024693894625	-0.8971002497670855	-0.9899605851971227	0.1509711142478694	-0.028189875015976057	0.9881361513523027	0.33201241929899994	-0.9400821857648228	-0.07754506714716625	0.9311151787474964	0.3397805393989142	-0.13256586646569707
463														9.294133857343965	-0.7640978436561942	-1.0651159203604286	0.15100617267678385	-0.028192453470368473	0.9881307207960041	0.3306343948739324	-0.940582691075042	-0.07736341626622281	0.9315997170136207	0.3383923563222926	-0.13271239747208508
464														9.419335646419123	-0.8052025256873077	-1.1193978991568039	0.1511626798492064	-0.028106527619649158	0.9881092385591652	0.32938905841951055	-0.9410363866630997	-0.07715806613417892	0.9320153927990222	0.33713579175344754	-0.13299159937552985
465														9.50262196803542	-0.7417611578949835	-1.120107324265988	0.15125211734041594	-0.027949226413962858	0.9881000140385092	0.32826029381307237	-0.9414536535235898	-0.07687781066627644	0.9323990435997864	0.33598193256475184	-0.13322223719881782
466														9.595052299500802	-0.7205970498351548	-1.0869988456477298	0.15131218599799406	-0.027871853738876073	0.9880930027774041	0.327092028482596	-0.9418781278830681	-0.07665766183903108	0.9327997787690824	0.3347965829942793	-0.13340097729666606
467														9.597782902113217	-0.6445046663776379	-1.119241551205113	0.1513769099923295	-0.027884611375030316	0.9880827291121115	0.32603118009290344	-0.942255417701487	-0.0765401686660371	0.9331605975009893	0.3337321924247947	-0.1335444608021497
468														9.531970912755458	-0.5638919209044975	-1.125515093759823	0.15136914554496506	-0.02794267953910287	0.9880822781717938	0.32494006071904036	-0.9426406415822246	-0.07643675671663575	0.9335423604298273	0.3326376820169759	-0.13360701248617013
469														9.49596175677913	-0.4952617538069841	-1.1195401620736751	0.1515481335909329	-0.027979673746789196	0.9880537946195684	0.323708094255832	-0.94307092978013	-0.07635634300369917	0.9339412363304034	0.3314126721485834	-0.13386339238557132
470														9.432993590284173	-0.5253168151695585	-1.145136487732755	0.15197953040463769	-0.027906987923858095	0.9879895861612124	0.32238923266655095	-0.9435317299640651	-0.0762434076605405	0.9343272472740257	0.33010464185775473	-0.1344005968190068
