// Start Time: 1748433505.005953
// Update Rate: 100Hz 
// Filter Profile: 46.1 human
// Option Flags: AHS Disabled ICC Disabled 
// Firmware Version: 4.0.2 
PacketCounter	SampleTimeFine	Year	Month	Day	Second	UTC_Nano	UTC_Year	UTC_Month	UTC_Day	UTC_Hour	UTC_Minute	UTC_Second	UTC_Valid	Acc_X	Acc_Y	Acc_Z	Mat[1][1]	Mat[2][1]	Mat[3][1]	Mat[1][2]	Mat[2][2]	Mat[3][2]	Mat[1][3]	Mat[2][3]	Mat[3][3]
0														9.453234574483202	-2.455194985250021	1.100911277515297	0.14552347057729503	-0.22452043302408564	0.9635421602949281	0.8020177690729556	-0.54348671784559	-0.24776942026139553	0.5793016637317547	0.8088341997468367	0.10097930341171768
1														9.508398543159013	-2.402874330793752	1.1094178063018103	0.14548272072437873	-0.2245613755666241	0.963538772740494	0.8012343446099857	-0.5445830984718079	-0.24789670001081449	0.5803949543095968	0.8080850434592082	0.10069885575065007
2														9.524564173897817	-2.512884909448432	1.0519220323364014	0.14547272847448478	-0.2246610763357918	0.9635170398336674	0.8001340843929806	-0.5460899129562804	-0.24813555561428408	0.5819133374161451	0.8070397807710883	0.10031779498253623
3														9.540635521668381	-2.6143781114426075	1.0614788885371	0.14555446006818606	-0.22478669345906815	0.9634753975053014	0.7988792396159354	-0.5477648993761911	-0.24848657010401393	0.5836144786285931	0.8058688214933811	0.0998477985733549
4														9.529717897201854	-2.802899854114821	0.9603277371115633	0.1456392801572189	-0.22502403141415456	0.9634071752698382	0.7975848160778407	-0.5494568194701228	-0.2489089486134518	0.585361137450518	0.8046498547964193	0.0994532550434491
5														9.488624173962796	-2.894819351314351	0.9859064657076155	0.14575725913743987	-0.22533028786056436	0.9633177475690025	0.7964983169151065	-0.5508264881657065	-0.24936040400680548	0.5868093834970123	0.8036270536185987	0.09918823585560121
6														9.50241729684312	-2.9342084763996015	1.0233794106983838	0.14585073307902124	-0.22578820352233242	0.9631963718839842	0.7956001261752239	-0.5519028574969259	-0.24984730360101182	0.5880034038084136	0.80275956739044	0.0991416868569116
7														9.416808219198296	-2.968896727724443	1.0452181030870245	0.14594931801674665	-0.22646578087354263	0.9630223500333646	0.794893200951158	-0.5526558892165956	-0.25043216086564674	0.5889342880594317	0.8020503214933286	0.09935635933537296
8														9.344841012765194	-2.994227425052238	1.2245453915616495	0.14616472460571445	-0.2273048922586457	0.9627919605170281	0.7944113564917931	-0.5530166672284015	-0.2511636168804354	0.5895307201137243	0.8015641282660286	0.09974205892860233
9														9.329712604765236	-3.0914951629439322	1.3972941442308555	0.14649830468436892	-0.22835260367812849	0.9624932909470205	0.7940414122181565	-0.5531270242747653	-0.2520887357648872	0.589946169075791	0.8011901044136548	0.10028925257691129
10														9.269371647500384	-3.1001295657732184	1.577086842737914	0.14688188990271278	-0.22957753195126496	0.9621433714586265	0.7936691665581022	-0.5531740323466731	-0.2531555727063669	0.5903515600670282	0.8008074966934856	0.10095736112804299
11														9.306323370815187	-3.0978483724491843	1.6868636743020258	0.14731413553932932	-0.23107992045634507	0.9617175343270966	0.7931318256446288	-0.5533513306416113	-0.2544488397041283	0.5909656949603074	0.8002526946152999	0.10176036625835
12														9.495529429466467	-3.000186128526359	1.5248113382488016	0.14772440681160093	-0.2329689989678645	0.9611987022213837	0.7922375919704985	-0.5539116880240456	-0.25601062427004645	0.5920617345352992	0.7993167628607973	0.10274052320671379
13														9.697991864836231	-2.900398492661234	1.4862717677700121	0.14807525516141412	-0.23531736759386435	0.9605724622940102	0.7908566947537882	-0.555017202221024	-0.25787902900752074	0.5938176548166927	0.7978606656224145	0.1039180017155934
14														9.79126807455012	-3.071949340260512	1.3265352327197122	0.14830701309018135	-0.23802482210579673	0.9598693733679456	0.789035056985161	-0.5566432281848005	-0.25994613935280514	0.5961784202037949	0.7959224212054263	0.10525583454516607
15														9.75671115106979	-3.167751182909605	1.0705281583713582	0.14851008570481466	-0.24097232373563193	0.9591022331521274	0.7870855225721033	-0.5583615755020316	-0.2621616508192751	0.5986995361626289	0.7938291316123	0.10674350192079185
16														9.806672270376787	-3.3092414101607823	0.9256073243173472	0.14878521219928809	-0.2439041193888662	0.9583181836822019	0.7853251421905421	-0.5597835622712296	-0.26439891159824647	0.6009387503516626	0.7919300120314131	0.10825652114172202
17														9.953481868301724	-3.215308914973174	0.8073524532461244	0.14901249681166467	-0.24677143019289216	0.9575485037503364	0.7839103642018747	-0.560766002651962	-0.26650709402682715	0.6027269835429951	0.790345083814845	0.10988553953486213
18														10.086239569116467	-3.1004298962918355	0.7764211267695079	0.14909921505687512	-0.24961789619096975	0.9567969115599294	0.7827897356695152	-0.5614053243211496	-0.2684479308065471	0.6041602881685254	0.7889961772563037	0.11169323379267576
19														9.980031421196514	-2.9934782730174225	0.7632701919585283	0.14908619279234386	-0.25249072343605067	0.9560448429322888	0.7820149629926427	-0.5616113132612638	-0.27026899650639713	0.6051660142260968	0.7879347481839465	0.11372303122059846
20														9.7730730259198	-2.7984149624032795	0.8962041283811181	0.1490271693834328	-0.25528890946526317	0.9553106696198881	0.7814909257170227	-0.5615208210128366	-0.27196746237559644	0.6058571084071831	0.7870971606308254	0.11582410767789347
21														9.583787997822569	-2.570025632445857	0.8689019121390815	0.14899295293780895	-0.2580290482057465	0.9545795463223112	0.7810029593160153	-0.5613839964221246	-0.2736464618823922	0.6064944167216211	0.7863008449971052	0.11787919087922194
22														9.450127927727262	-2.340962012422002	0.9274803564814293	0.14905110529533028	-0.26053396347818264	0.953889837394544	0.7804154862497537	-0.5614026265902053	-0.27527942109641845	0.6072358988332304	0.7854611032584413	0.11964705778342977
23														9.30426786074864	-2.2572405365894	0.9291767230157907	0.14921940225186192	-0.2627377575124941	0.9532588529716901	0.7796768528091398	-0.5616558313795701	-0.2768514624685203	0.6081427259987837	0.7845454721395244	0.12104060046174031
24														9.158769270270026	-2.2318225822736406	0.933770329876029	0.1494436714729276	-0.26468467717035443	0.9526849483055336	0.7787122216229774	-0.5622469191721318	-0.27836249348009096	0.6093224638495606	0.7834669256277969	0.12208894911346152
25														9.058856556855135	-2.2168486814372756	0.8334252199636805	0.1497349212920574	-0.2663982549076451	0.9521614480369507	0.7776497846381396	-0.5629989208848609	-0.2798089125362829	0.6106064737602415	0.7823453105021104	0.12286394645069854
26														8.971959286922731	-2.1418377860020037	0.8106654730518277	0.15015277222496126	-0.26777038498898054	0.9517106524128081	0.7764760380071534	-0.5639382274376836	-0.2811736794850432	0.6119960027597184	0.7811995241660719	0.1232403994184948
27														8.969835766316852	-2.157359484613172	0.7791568902580616	0.15069582652364666	-0.2687809181098302	0.951339889801953	0.7752182069721638	-0.5650365525815146	-0.28243658726457704	0.6134553768997536	0.7800580185517192	0.12321521109809119
28														8.969347264070382	-2.20680448118617	0.6962033616531276	0.15132643485626274	-0.26949590505648047	0.9510374689103902	0.774051272408069	-0.5660669705470734	-0.2835715298458356	0.6147722649869154	0.7790636315561437	0.12294275167495927
29														8.983441917556323	-2.140424437561561	0.6513561319972865	0.15199388935214914	-0.26989568472320596	0.9508176360203878	0.7728912242007426	-0.5671629364402541	-0.28454412501744974	0.6160657539200539	0.77812757494916	0.1223947055662763
30														9.050239730968134	-2.1932198382933343	0.7050298560347609	0.15264622854777837	-0.2700404741257001	0.9506720103401101	0.7717244633996014	-0.5683442730575321	-0.2853526587808536	0.6173657599031035	0.7772148542177203	0.12164123019186895
31														9.190788080390224	-2.401203090719139	0.6007640433886063	0.1532458197944821	-0.2698879228932543	0.95061886568271	0.7706294407983894	-0.5695401070451811	-0.28592714359033133	0.6185838534024949	0.7763920243944608	0.12070393848749145
32														9.218291855488827	-2.424727468703816	0.5958158475645396	0.15362875725615593	-0.26959306661335747	0.9506407225539708	0.7697811677059543	-0.5705477903315378	-0.2862030272255309	0.6195443154361013	0.7757543408720355	0.11987511763917935
33														9.188825279493315	-2.430171123907934	0.6400179917828197	0.15392984451317493	-0.26905864815900066	0.9507434179730101	0.7691834172725165	-0.571343141712057	-0.28622348787542023	0.6202116361058734	0.7753544081705142	0.11900868947025789
34														9.245412239491118	-2.3750563829641087	0.6807390558730873	0.15408569880142675	-0.268382238140034	0.9509093393567144	0.7687285432626323	-0.5720564022121801	-0.2860208024975956	0.6207366786312761	0.7750628664431056	0.11816737647425929
35														9.272906579848536	-2.3854929370510844	0.7444896506850398	0.15412256103849126	-0.2675612075358408	0.9511347099127965	0.768372117814155	-0.5727341518233067	-0.2856219177532209	0.6211686765643667	0.774846172835099	0.11731531740601059
36														9.317115820100323	-2.3493616731659825	0.7521306677674076	0.1539794413372974	-0.2665861783240249	0.9514316271661587	0.7680183039783941	-0.5735212061065726	-0.2849935278216206	0.621641549769322	0.7746000488462758	0.11643258962911635
37														9.360194929018654	-2.367636300939905	0.7991916838582336	0.15377496720541123	-0.2654511344793915	0.9517819890419126	0.7677274621866481	-0.5742990771834464	-0.2842096299401049	0.6220512866841643	0.7744134975256092	0.11548130404844742
38														9.459901149532902	-2.550377548807301	0.7928211648867858	0.1535287365940392	-0.26420264730722537	0.9521690439179863	0.7674233102771566	-0.575141030714797	-0.283327121242517	0.6224872608199218	0.7742155745941661	0.11445459437146271
39														9.530763651676843	-2.705176563872374	0.8523582491866972	0.1531806033536287	-0.26286752972105193	0.952594543640982	0.7673680084262713	-0.5757348070135415	-0.28226897037573684	0.6226411827048679	0.7742287089816757	0.11352472765195798
40														9.477014804996404	-2.800786553960152	0.8699549433746904	0.15265261098425714	-0.26147655747895493	0.9530620075570342	0.7674859035852303	-0.5761934217607878	-0.28100983704767013	0.6226255440934401	0.7743585413802512	0.11272214171935352
41														9.495363495138648	-2.859057306199517	0.8525272745360032	0.15206398760445133	-0.2600854375045821	0.9535366321604446	0.7678544653918233	-0.5763592890587926	-0.2796595964623422	0.6223150839017726	0.7747035143289934	0.11206427278413278
42														9.511244800904699	-2.9350249389754373	0.9597814036687208	0.15134445906563032	-0.25872700359587397	0.9540205408273099	0.768404474181309	-0.5763335163446192	-0.2781982063133998	0.6218114012852114	0.7751774090801069	0.11158210288202419
43														9.487660986419753	-2.9602837992773514	0.9591296734449556	0.15064034948398503	-0.25741585238170145	0.9544865447191726	0.7691723170665081	-0.5760120173457649	-0.27673832862796877	0.6210325529035352	0.7758525857505822	0.11122649602614226
44														9.477674071334032	-2.9940766233328557	0.9785656479335889	0.14988621488410098	-0.25622978942104874	0.9549242994085771	0.7700612437108325	-0.5755157413594215	-0.27529495524262904	0.6201127345267494	0.7766131124702701	0.11105075423875654
45														9.451971112069737	-2.950384068428051	1.0782657386925782	0.14912097220598292	-0.25508284724113184	0.9553510750984167	0.7709619406287046	-0.5749918965520178	-0.27386493934334866	0.6191773750310687	0.777378324847607	0.11091581630571956
46														9.413386147745095	-2.933290969797482	1.1111985253907435	0.1483444814261366	-0.2540005677031222	0.9557602348062527	0.771810581638053	-0.5745136067855823	-0.2724748459761975	0.61830602528355	0.7780860024603411	0.11081440282447569
47														9.389745703616123	-2.991246709166543	1.0997963218102949	0.1475934332060131	-0.252990153428459	0.956144424625646	0.7725638542061136	-0.5741210361999072	-0.2711643910378727	0.6175445487158459	0.7787047053029732	0.11071455320034823
48														9.405591539560568	-2.949298525547303	1.2011850087479339	0.1469299351483268	-0.252147333082088	0.9564691926961888	0.7732842236060744	-0.5736872333399494	-0.2700267909387978	0.6168007001287039	0.7792975559581495	0.11068972670666288
49														9.423033502972295	-2.978466438586418	1.2056275888350876	0.14639320680295925	-0.2513879753628771	0.956751333861051	0.7739589792441584	-0.5732391101506814	-0.2690435300114019	0.616081591552034	0.7798724308735431	0.11064566920627494
50														9.439893857290672	-3.037097116765946	1.2300244863538239	0.1459746337081692	-0.2506979422936514	0.9569963155851209	0.774579379582146	-0.572795653225936	-0.26820127585754033	0.6154008376984101	0.78042019539169	0.11057182093504947
51														9.413991480388814	-3.0100437153691226	1.227549855631401	0.14571822839475618	-0.25013012847213656	0.9571839513614957	0.7752234863994588	-0.5722280391587393	-0.26755114900746085	0.6146500988759067	0.7810185593384174	0.11052269414369759
52														9.431836653275289	-3.082341015913659	1.1492558652702312	0.14555625338104405	-0.2496660999396123	0.9573297319328468	0.7758281069676145	-0.5716461261261356	-0.26704204710874546	0.6139251791063146	0.7815929535416278	0.1104913093114287
53														9.447631804720288	-3.0896941379681184	1.1337354830797004	0.1455941736809977	-0.249247519144231	0.9574330320135158	0.7765573366040044	-0.5708197991531907	-0.2666898195679892	0.6129935069449293	0.7823301292262479	0.11044695264333776
54														9.51974173634285	-3.1095079575439795	1.103427709985373	0.1456510838060182	-0.24893326665215787	0.9575061308106688	0.7772797966146215	-0.5699638771204036	-0.26641564622335867	0.6120636237850315	0.7830538982290829	0.11047494244113565
55														9.561627777593056	-3.0163770131837953	1.1134425606368485	0.14582700337282006	-0.2487638970396478	0.9575233723606706	0.7780311253031129	-0.5689858232661456	-0.2663131633654613	0.6110663246709607	0.7838186374741255	0.11057255718002584
56														9.561198829976865	-2.983988509631861	1.1293391364223762	0.14597616696779347	-0.24865249480832285	0.9575295794402323	0.7787178095001757	-0.568081672767814	-0.26623633529736473	0.6101553341933834	0.7845094963675836	0.1107037409685932
57														9.518718760169778	-2.956763263427565	1.1102227662842812	0.14626623811249778	-0.24868585389911013	0.9574766491454969	0.779283816296811	-0.5672400623104449	-0.2663746334918567	0.6093627173090723	0.7851076727306348	0.11082879126468215
58														9.489477479623266	-2.9668825055177015	1.129899513450415	0.14659806297451372	-0.24879175885976912	0.957398385550959	0.7797861874504047	-0.566443612718048	-0.2665992038106793	0.6086398851485849	0.7856489638091484	0.11096484070158846
59														9.502366590354393	-2.9498144574688143	1.1298314435507744	0.14705506411492086	-0.24893343347824926	0.9572914675347767	0.7803143382935988	-0.5655571350770771	-0.2669356859185971	0.607852236626287	0.786242502450827	0.11107828666432312
60														9.515741038827347	-2.9095326467252294	1.0752973057616944	0.14747644541295984	-0.24919256572175286	0.9571592151974344	0.7807781515598624	-0.5647321065717353	-0.26732587950629666	0.6071541617209941	0.786753273266823	0.11127942715891742
61														9.498032012135148	-2.7757370600768807	1.1492744468275695	0.14794833288863063	-0.24953787932484145	0.9569964146105963	0.781222907595666	-0.5638876444251115	-0.26780868752240405	0.6064668659071561	0.7872493704327493	0.11151847071221693
62														9.383600513447318	-2.7338920945306535	1.127222138047091	0.14847455825890293	-0.249910255020943	0.956817730806234	0.7815503343149172	-0.5631664772181546	-0.26837025518848934	0.6059161497122063	0.7876473724789926	0.11170154942915628
63														9.382397307211756	-2.8030583127365367	1.101376936285257	0.1490710928244039	-0.2502736681320948	0.9566299704294469	0.7817864019519039	-0.5625394643997653	-0.2689969752913996	0.6054649709167613	0.7879799756545414	0.1118021777973674
64														9.42465113430498	-2.7929393497914146	0.9801862495273055	0.14965952947501837	-0.25063988553597616	0.9564421953342652	0.7820639896496826	-0.5618591091828756	-0.2696113082224974	0.6049611072875158	0.7883489006821398	0.11192885893604321
65														9.4789961949616	-2.7195774616680235	0.97375814770614	0.15022554612408762	-0.2509770847839896	0.9562650198585376	0.782368022636877	-0.5611591691720241	-0.2701863505239047	0.6044274666550011	0.7887400647662658	0.11205600289821116
66														9.476882736758677	-2.7530545928044217	0.9961013356445597	0.15072987072410216	-0.2513388733460321	0.9560906216549991	0.7826404268475445	-0.5605148818242087	-0.27073424149428676	0.6039490610435527	0.7890829094580243	0.11222162744262115
67														9.47569895888174	-2.7622797300839306	0.9639515459854212	0.15116653123783208	-0.25168836065508043	0.9559297301288832	0.7829147101840375	-0.559895439774779	-0.2712225158368146	0.6034842470280113	0.7894112145328089	0.11241306845233401
68														9.515219562464175	-2.699702352078462	1.028929737977526	0.15152671634360265	-0.2520664321969677	0.9557730734822036	0.7831753192394899	-0.5593131164916817	-0.2716712297143121	0.6030556139928136	0.7897033313085712	0.1126613285555279
69														9.429093139702946	-2.704158311833237	1.030371574225645	0.15184171289713477	-0.25244284139200956	0.9556237261885	0.7834184908042438	-0.5587700391561412	-0.2720873234964208	0.6026604039510689	0.7899675026046158	0.11292378995659563
70														9.400850531233168	-2.787381168997096	0.9545387785869405	0.1521899720013309	-0.252674690455296	0.9555070450946734	0.7836693274598633	-0.5582448705794587	-0.2724427456738917	0.6022462931565786	0.7902646172485793	0.11305413351185656
71														9.413242799710721	-2.7671047831849944	0.9879220155589359	0.15262301359646818	-0.25278436730817416	0.9554089592239225	0.7840156895903576	-0.5575965041293999	-0.2727737836721639	0.6016856440009921	0.790687170900906	0.11308485122169587
72														9.412908222272216	-2.6826689254044283	0.9611888359030917	0.1528920729864754	-0.2528410346933288	0.9553509434721386	0.7843856671208786	-0.5569927224954315	-0.2729436430885717	0.6011348760746067	0.7910945065302466	0.11316511169275278
73														9.382407296924365	-2.561477810394655	1.0686782668002222	0.1531931103406144	-0.252882968489827	0.9552916178800809	0.784723383849558	-0.5564226969882308	-0.2731354849082106	0.6006172506545814	0.7914821454234564	0.11320305513551798
74														9.325502045496293	-2.491863394750392	1.0765313567319363	0.1534769724876498	-0.25282355369655146	0.9552617806718072	0.784899125929567	-0.5561009784024256	-0.27328568190607155	0.6003150681359136	0.7917271957663901	0.11309229174820601
75														9.297663017968542	-2.5688810592157574	1.0312569205341466	0.1538199459421209	-0.25266709078885824	0.9552480125405429	0.7849126734241128	-0.5559984166228967	-0.27345540004001284	0.6002095628433246	0.7918491661580038	0.11279795532853698
76														9.311639723552835	-2.6417666877518116	1.0200592382580667	0.1541305781174977	-0.25248464212820276	0.9552461831269253	0.7849218083521325	-0.5559212435161573	-0.273586048220057	0.6001179214640936	0.7919615372584976	0.11249623922946644
77														9.297548387850101	-2.694680268903189	1.0057028287846288	0.15451272783310743	-0.2522422307669047	0.9552484880675332	0.7849812302844084	-0.5557677378917076	-0.27372740019937897	0.5999419013860834	0.7921465006780437	0.11213222741380519
78														9.36755734851321	-2.743442620664152	1.0267558448688943	0.15487058716092023	-0.2519643700899404	0.9552638679640364	0.7851274533788766	-0.5555187522455273	-0.2738134362195786	0.5996582219758457	0.7924095355993344	0.111790628891761
79														9.452508462884987	-2.716915334507198	1.0046610964382605	0.15522384227807257	-0.2517180893650086	0.9552714599917984	0.7853711380238404	-0.555133263161574	-0.27389639590677517	0.5992476402519833	0.7927578846142197	0.11152220422147963
80														9.480348367012104	-2.674067448209146	1.0325243538364846	0.15553281812513864	-0.2514962228530058	0.9552796409307193	0.7856482941106138	-0.5547127277370625	-0.27395355016423956	0.5988040584758384	0.7931225879882497	0.11131154466489857
81														9.4523235162186	-2.6868016044456366	1.0143662013022998	0.1558669471268342	-0.2512847347123714	0.9552808366621279	0.785913346469199	-0.5542951051889242	-0.2740385888979606	0.598369205954774	0.7934815174054994	0.11109174092127955
82														9.508682286764655	-2.758766554300227	1.004823328708216	0.15609636026635515	-0.25105057068933295	0.9553049446476013	0.7862064798495672	-0.5538860081744239	-0.274024927682053	0.5979241568578314	0.7938412315476957	0.11091799556739712
83														9.466461074101757	-2.7267246624376162	1.0166172494982817	0.15631576097049443	-0.25081022189191615	0.9553322016276558	0.7866020802281353	-0.5533457056962365	-0.2739811989321619	0.597346256582383	0.7942938767119274	0.11079118721699904
84														9.452611593386052	-2.777819788721452	1.0044452121622185	0.15652233363307705	-0.2505470603296016	0.9553674317424947	0.7870131461470162	-0.5527953108695266	-0.27391175964612824	0.5967504225937597	0.7947600360114102	0.11065901812916545
85														9.396325274821518	-2.765052412962083	1.018788220065197	0.15675784886246874	-0.2502579523454922	0.9554045918394222	0.7875416777022559	-0.5520835687345345	-0.27382811947507624	0.5959908411225189	0.7953456421086256	0.11054513502135965
86														9.395293350467451	-2.719510051145054	1.134387670301923	0.15695837032905086	-0.24995036140114746	0.9554521897086659	0.7881163888312889	-0.551327175611055	-0.2736985624519532	0.5951778117833169	0.7959668097780037	0.11045456121251829
87														9.38119693333404	-2.6108218029937924	1.18954164512572	0.15716214925643518	-0.24963863156238308	0.9555001896769874	0.7885962172657497	-0.5506960411144617	-0.2735870545457329	0.594488069649214	0.7965013646771235	0.11031550712493438
88														9.381089804958567	-2.541706644851916	1.2493777067837197	0.15727784971688974	-0.24936148205345854	0.9555535198284469	0.7888704482901266	-0.55036336631138	-0.27346586777318355	0.5940935059424283	0.7968180572066048	0.11015393731739942
89														9.338967786667753	-2.568395985321195	1.267638421870943	0.157449646243839	-0.24907120120232296	0.9556009342970117	0.7888500028488897	-0.5504079165321362	-0.27343518139416406	0.5940751483634005	0.7968780723237305	0.10981828603023558
90														9.367635540828362	-2.651915530113645	1.2407382698719833	0.15756059928000482	-0.24886055191708245	0.9556375271273363	0.7885968641507274	-0.5507650493959156	-0.27344624008304375	0.5943817320595954	0.7966971106157217	0.10947177960732846
91														9.312043503763473	-2.7399178083650906	1.178186659920669	0.15769973250178393	-0.24863644859283796	0.9556729099435681	0.7882603586439293	-0.5512266582973219	-0.2734863400115476	0.5947910568925949	0.7964477934011173	0.10906195957840337
92														9.327324495225634	-2.761041241148264	1.0904843871430845	0.1578008521166256	-0.24844791515526504	0.9557052498162126	0.7879253343072203	-0.5516902625622349	-0.2735169496591898	0.5952079961056658	0.796185586185165	0.10870121306987851
93														9.384509394695932	-2.8097529181645773	1.0243966988773674	0.15794526770972833	-0.24826457275136865	0.9557290381298895	0.7876761548762758	-0.5520206663664003	-0.27356801520594726	0.5954994269077245	0.7960137472562749	0.10836303212625575
94														9.398759270599205	-2.758616535007734	1.0329914315248723	0.15805935553853634	-0.24811187515049488	0.9557498299953018	0.7875503768806944	-0.5521888319273522	-0.2735907486918791	0.595635495921641	0.7959447162360034	0.10812198987333349
95														9.441275535093798	-2.7906913783120673	1.0180275104282206	0.15818748298390667	-0.24793204840736371	0.9557752976509412	0.7875292283411339	-0.552219556892596	-0.2735896114507337	0.5956294441476467	0.7959794346324998	0.10789951300395978
96														9.4420280736965	-2.735539161520033	0.9748086883904281	0.15827241204264236	-0.24777762528386282	0.9558012826915926	0.7875423577745562	-0.5522137223569918	-0.27356359324940926	0.5955895216481709	0.7960315654855182	0.10773517741934668
97														9.441309090405182	-2.722279432116491	1.0760072759003632	0.15834033175474005	-0.24754105175221597	0.9558513310328162	0.7875544916294895	-0.5522392233493529	-0.2734771707267731	0.5955554231589332	0.796087475025145	0.10751032533702903
98														9.470423775914812	-2.840824489752916	1.002541939606549	0.15831971117523513	-0.24735010866437757	0.9559041755307438	0.7875153190673035	-0.5523540835391078	-0.2733579862231866	0.5956127024230708	0.7960671392171601	0.10734346077378626
99														9.526881604745332	-2.906678136141189	1.0282406597951044	0.15822285244544076	-0.2472106345915407	0.9559562914217764	0.7876322428672092	-0.5522746672320883	-0.2731815182797987	0.5954838192260122	0.7961655569531592	0.10732859340114365
100														9.456524645031312	-2.8808371710217093	1.0604029212537198	0.15804705791217344	-0.24719646181656568	0.9559890358945952	0.7878204165653262	-0.5520942236047162	-0.2730035888136673	0.5952815457648107	0.7962950945018292	0.10748955179077041
101														9.400409994284715	-2.807757776120709	1.0706796430617833	0.15787975838217794	-0.24722568251941163	0.9560091232807333	0.7881054407335271	-0.5517683681073328	-0.27283966398305093	0.5949485659949088	0.7965118516751538	0.10772684884289363
102														9.442919767983726	-2.8380605267412036	1.0606317197921247	0.15767777809847255	-0.24728718739095606	0.9560265504922965	0.7883904201947838	-0.5514463190669556	-0.2726673844312845	0.5946244727885166	0.7967157611970381	0.10800801924488324
103														9.386381689455495	-2.824524660813796	1.0797496197710483	0.15747960546259443	-0.24744965153175513	0.9560171775758836	0.788776400618992	-0.5509582945167569	-0.272537607551204	0.594164929703776	0.7970029031691162	0.1084177506227989
104														9.372272492664475	-2.815637282051303	1.0661786497851704	0.1572262446148171	-0.24770590595841968	0.9559925167895617	0.7891555321508059	-0.5504733439464323	-0.27241997665408313	0.5937284346231871	0.7972583532066324	0.1089296294042561
105														9.314897941528894	-2.798589274422349	1.1210560147591084	0.15708614879878346	-0.2480074404138402	0.9559373679038508	0.7895524456080638	-0.5499077623580728	-0.2724121666384652	0.5932376231240666	0.7975548648197897	0.10943198852435743
106														9.357249396205201	-2.898616311035857	1.0525500769802703	0.1569596301077132	-0.2483146277527597	0.9558784023925104	0.7899200160034061	-0.5493742799152033	-0.27242295954054696	0.5927816147904963	0.7978268898775349	0.10991911096215828
107														9.384588571339396	-2.886724113903648	1.0743494005686474	0.15682047975844166	-0.24865181570219624	0.9558135862584991	0.7903753167910177	-0.5487183741325264	-0.2724243096657405	0.5922112762653466	0.7981731769718635	0.11047797892255024
108														9.41136098286623	-2.715355239679786	1.162906405497829	0.15663828278729758	-0.24899544659358697	0.9557540038844234	0.7907530890525726	-0.5481810256862097	-0.2724098295426012	0.5917550173165078	0.7984352388599059	0.1110277840338364
109														9.4677233041471	-2.6411837875471886	1.1241657047036933	0.15653684742973467	-0.24931752643342642	0.955686657021996	0.7909282238095376	-0.5478918760294924	-0.2724830948194284	0.59154776660744	0.7985331947978127	0.11142700134055766
110														9.46726261475308	-2.7058645618673327	1.1012365334171108	0.1564696248559077	-0.2495799708243681	0.9556291616839447	0.7909514343454621	-0.5478115793407475	-0.27257714879837547	0.5915345171706443	0.7985063003530424	0.11168976359626348
111														9.4385758366988	-2.7193526558514196	1.0873851714539722	0.1565131536893009	-0.24981549906366407	0.9555604895294711	0.7908754603882862	-0.5478301529025151	-0.2727602055403685	0.591624575958307	0.7984199020555413	0.1118303229172401
112														9.382729229619516	-2.7222183316482425	1.0009913646684165	0.15659644462770345	-0.2499565352316423	0.9555099601913917	0.7907925852385315	-0.547869619901002	-0.2729211730908599	0.5917133095188261	0.7983486770105679	0.11186934009706828
113														9.424766797019785	-2.7875041932091253	0.9753772943899832	0.15668865903132734	-0.2500123546052172	0.9554802387677728	0.7907050352452544	-0.5479362411325328	-0.27304106447813364	0.5918058899409213	0.7982854741245806	0.11183063280214472
114														9.410938089342842	-2.7534770679973706	0.9361907789619143	0.15672471169433216	-0.25011013812318345	0.9554487341308957	0.7906588809863924	-0.5479566472473669	-0.27313375231701237	0.5918580054892177	0.7982408355536739	0.11187345437099178
115														9.382657197128589	-2.7984126612230877	0.9074675076225954	0.1567890185931124	-0.250205730217	0.9554131547216552	0.7906541451872449	-0.547910902609928	-0.2732392093009349	0.5918472998559973	0.7982422786145512	0.11191978504899552
116														9.39565186712524	-2.8025680342259855	0.9612314072053565	0.15682325360187338	-0.2502840954754866	0.9553870098979472	0.7907046635614816	-0.5478071377987485	-0.27330106988240543	0.5917707344502995	0.798288927224198	0.11199190381180485
117														9.452171061329524	-2.7561524041951064	0.9398028552874886	0.15685201859602005	-0.25037296762766165	0.9553590012888724	0.790852509640557	-0.5475711148268856	-0.2733462679505146	0.5915655096923642	0.7984229776807277	0.11212045510902002
118														9.409834520732751	-2.788064231063366	0.9270042402766229	0.15685671150492847	-0.25034017100167516	0.9553668252764025	0.7909603737841003	-0.5474330761061088	-0.27331065527768933	0.5914200361495849	0.7985279118276678	0.11214060314162905
119														9.381990160389627	-2.831626590460865	0.8979835180837633	0.15686475301773295	-0.25027887797924536	0.9553815638257501	0.7910835509878811	-0.5472811538492632	-0.2732584015137022	0.5912531307461215	0.7986512517230967	0.11214238049925945
120														9.353552486102783	-2.7746682429865466	0.9425513261341385	0.15686186577553535	-0.25012042956411334	0.955423532146912	0.7912300219313635	-0.5471296764956285	-0.27313763836623317	0.5910578714981403	0.7988046618619926	0.11207901109322604
121														9.39610425783098	-2.7419049450293826	0.9556438370222567	0.1569237745847067	-0.2499005870530554	0.9554708920530375	0.7913457527757998	-0.5470121466754543	-0.2730377463890564	0.5908864768581117	0.7989539460945482	0.1119185573806189
122														9.410812438325959	-2.7530593409079067	0.9386791427156012	0.15696546037564196	-0.2496606827081459	0.9555267593106775	0.7914293996494665	-0.546951458193314	-0.27291685134980725	0.5907633617782573	0.7990704886866429	0.11173631679334156
123														9.396913605317845	-2.7078392067526056	0.9661733794308259	0.15700481490422225	-0.24941166214314475	0.9555853237068285	0.7915465149827874	-0.5468489122870985	-0.27278266394516415	0.5905959724849926	0.7992184244106303	0.11156301971125954
124														9.369122887322519	-2.7458705536405486	0.9695570611811992	0.15700609012397665	-0.2491346974381191	0.9556573602481165	0.7916318800600753	-0.5468119155570409	-0.27260905244945544	0.5904812055743452	0.7993301142439563	0.11137016802632321
125														9.397855523332487	-2.764113512889714	0.970997302823753	0.15704012309215098	-0.2488538794692161	0.9557249324007002	0.7917803151169553	-0.5466778597966253	-0.272446784164314	0.5902730997872909	0.7995092646625818	0.11118724470999697
126														9.398187180990382	-2.8219268881127957	0.9776423332009833	0.15707150189643992	-0.24861206952882275	0.9557827065691202	0.7919931552436938	-0.5464462534291585	-0.27229273615058963	0.5899791397491403	0.7997427905256991	0.11106792364599632
127														9.328123639998775	-2.8011057160917856	0.973563618669879	0.15722975859032284	-0.24841879866283673	0.9558069383952718	0.7923216754962048	-0.5459945512582651	-0.27224311292514514	0.5894956874757579	0.8001112738033377	0.11098100729532434
128														9.328263559963148	-2.923803593884815	0.9547489696689722	0.15744902360052337	-0.2481832521219562	0.955832034582129	0.7928109344620613	-0.545312107941494	-0.27218656676955605	0.5887789289407659	0.8006495977008761	0.11090353707971001
129														9.313692231549904	-2.9710619044971525	0.9785961896319847	0.15788935591674813	-0.24795864197938866	0.9558176934729405	0.7936742572738278	-0.5440293008123113	-0.2722375675738124	0.5874964890354943	0.8015913121568905	0.11090195510252365
130														9.383920449807443	-2.900398108445092	0.9883145607833403	0.15838681391646015	-0.2476964803304158	0.9558033640918602	0.7947811947636343	-0.5423966833259559	-0.27226584502484524	0.5858638661220565	0.8027778594037873	0.11095602202490157
131														9.439133841514694	-2.7761532226661525	1.0946591447757943	0.15901000141359678	-0.2473588661645882	0.9557873250782402	0.7959813113504894	-0.5406006824557646	-0.2723318822854145	0.5840629858424545	0.8040923413751254	0.11093211938237657
132														9.481269121550005	-2.6218556382720943	1.1260268973001493	0.15957298379720652	-0.24708628189594917	0.9557640044178756	0.7970116905379603	-0.5390355880128496	-0.2724206306458178	0.5825022128609297	0.805226057796491	0.11091513809053721
133														9.466575710898411	-2.7018262062645566	1.1365177565362916	0.16007253038393748	-0.24683301135403596	0.9557459126370264	0.7976875998553152	-0.537974987511256	-0.2725388153077122	0.581438971908102	0.8060126409171031	0.11078061485786672
134														9.494526507555317	-2.786852025858836	1.112636917946349	0.1604350006885884	-0.24662637796768616	0.9557384790017577	0.7980402319990999	-0.5374012869733116	-0.27263830411417234	0.5808548860643906	0.8064584840213221	0.1105997960448184
135														9.480485574461012	-2.90886849293137	1.0406737081589048	0.16078339915022855	-0.24644582611225774	0.955726505517947	0.7981311698732199	-0.5371884393917823	-0.2727915252727406	0.5806335627868106	0.8066554626206095	0.1103251122357311
136														9.522857647655863	-3.0114310147207712	0.9662360342620686	0.16103727564356585	-0.24630158962372584	0.9557209440009801	0.7981780696792055	-0.5370637365946072	-0.27289982029714926	0.5804987208741085	0.8067825418189616	0.11010524637663605
137														9.565322928582795	-2.9212977245852705	0.9693777527222063	0.16120898797245586	-0.2461841752141164	0.9557222473454527	0.7981786068661462	-0.5370283630269066	-0.27296785313633565	0.5804503197846613	0.806841923290298	0.10992514308882234
138														9.5232455258175	-2.8626612781250884	0.9593470838986793	0.1613544744750554	-0.24610362668734592	0.9557184410160846	0.7981957075333668	-0.5369698266839984	-0.2730329974678257	0.5803863765132566	0.8069054530502896	0.10979637423667543
139														9.467328682704196	-2.764289313239896	0.9437614735827452	0.1614777110992725	-0.24599146674514516	0.9557265022519321	0.798227865848144	-0.536908200584846	-0.27306017345680517	0.5803078691536567	0.8069806580292462	0.10965853621596194
140														9.411158089830879	-2.756817669504317	0.9240695230191945	0.16152886120602916	-0.24592037761792318	0.9557361533758895	0.7982456104200023	-0.5368835106813078	-0.2730568464692147	0.5802692241043648	0.8070187506066835	0.10958267986568992
141														9.396745169389932	-2.7716092670810526	0.9603174668394765	0.1616514092846486	-0.24577054900342937	0.9557539741580154	0.7983630009388307	-0.5367143040710486	-0.27304628643780343	0.5800735648245245	0.8071769279706176	0.10945348940844746
142														9.396883605628444	-2.6755796230890234	0.9978300303884384	0.16183731357198616	-0.2455986028745083	0.955766713273638	0.7985352143749322	-0.536449763910796	-0.2730625609695199	0.5797846111608898	0.8074050885807826	0.10930154433892991
143														9.354926068034375	-2.680564671721778	0.9620037519851742	0.16208240800319418	-0.24537003205843627	0.9557838879074749	0.7987899516700907	-0.5360625505925394	-0.2730779283704858	0.5793650888056521	0.8077316938314751	0.10911280700887399
144														9.354895648390217	-2.713161553285115	0.9476398976913369	0.1624008337498299	-0.2451489730773858	0.9557865610043194	0.7990704882273946	-0.5356074169608889	-0.2731502329131679	0.5788888701999663	0.8081006595069626	0.10890821852834998
145														9.325314671603431	-2.8297564397746493	1.049927357307448	0.16274705502459763	-0.24492918461753593	0.9557840188051955	0.799419784720609	-0.5350440106549452	-0.2732323451927437	0.578309090260629	0.808540414070231	0.10872439899610309
146														9.282643388562901	-2.9268536155495872	1.0104066691825166	0.1631552387570014	-0.244741330924733	0.9557625484414716	0.7999397570575666	-0.5342065865736867	-0.27334905878742566	0.5774744610325442	0.8091507917554555	0.10861971762388384
147														9.25399483813657	-2.833899780438229	1.1005749521852186	0.1636773766564425	-0.24444883875651757	0.9557481266533853	0.8006957156203924	-0.5330197330028313	-0.2734526196925862	0.5762777866255239	0.8100214376546961	0.10848586627670287
148														9.254773624719311	-2.6896215146338447	1.060537333490207	0.16431936766326732	-0.2440710441732592	0.95573451899935	0.8015943709472142	-0.5316035695832647	-0.27357651447459946	0.5748439874230953	0.8110653304158093	0.10829321271903569
149														9.241196966787516	-2.5232712742353987	1.102197962545006	0.16520513224147876	-0.24350397368052418	0.955726466664427	0.802472232477812	-0.5301663207763596	-0.273791870618056	0.5733633929569901	0.8121757735344317	0.10781898024279185
150														9.255133688666039	-2.6077216010424076	1.0218117152315025	0.1662613614154373	-0.24279301613105325	0.9557241814552313	0.8032655694420114	-0.5288145219670064	-0.2740795984851996	0.5719454385247662	0.8132691760264821	0.10710584800056577
151														9.282559885262714	-2.775559745188772	0.864848324490386	0.16760356073764276	-0.24193539367788047	0.9557072311717602	0.8041543468385022	-0.5272451076977973	-0.27449659901259227	0.5703024047720692	0.8145427316566436	0.10618524104849908
152														9.308912085811183	-2.9611478178537207	0.7973735532218362	0.16911014905691268	-0.24101323505660432	0.9556748285967868	0.8053206829630986	-0.5252193673424	-0.2749603858018394	0.5682080209551746	0.8161232974839021	0.10527301756007978
153														9.36367629711838	-3.0331822907949295	0.8180142127383583	0.1707977927492022	-0.24004978005052813	0.9556171917089462	0.8069138619864882	-0.5224994325141642	-0.2754711642920656	0.5654362327672771	0.818150625569686	0.1044577453034487
154														9.320755590524064	-2.9631947575886697	0.9053568317204261	0.17255219357015583	-0.23918569793639888	0.955518677157493	0.8088370010426822	-0.5192182805253769	-0.27603456832895273	0.5621462854439293	0.8204892315386894	0.10386998936479946
155														9.280044837805127	-2.699568338585833	1.066208415411239	0.17447156960795196	-0.23834132478541897	0.9553811199192023	0.8107871183587829	-0.5157893166221451	-0.2767410875925758	0.5587342123961972	0.8228941570809651	0.103253504250506
156														9.238849302221894	-2.554518563348702	1.244104044592231	0.17658768254094592	-0.23755427846979987	0.9551883349138597	0.8123802134022151	-0.5127540904780856	-0.2777078169057605	0.5557474059745042	0.8250158831675212	0.10243833888698961
157														9.280712634647696	-2.5212593247608064	1.3138972846894441	0.17902239322091362	-0.23674239452162255	0.9549366582981431	0.8134297781240487	-0.5103710076374789	-0.2790222762149377	0.5534283863215881	0.8267251497319241	0.10120547423044879
158														9.346856032814596	-2.685144097896957	1.2555333951706837	0.1816606098504378	-0.23594272186701293	0.9546362945262203	0.8138881267103866	-0.5087617582225035	-0.2806200109938789	0.5518926888704225	0.8279447477750749	0.09960900864401184
159														9.422930694690228	-2.9948181529672326	1.131530223587051	0.18448397230501645	-0.23512236776404422	0.9542971948714883	0.8139764357201418	-0.5076198294316734	-0.282426044939366	0.5508248596921673	0.8288785079520329	0.09773634431630696
160														9.512180334658561	-3.2074665197864696	0.9357538967811905	0.18729271208267156	-0.23430284564530673	0.9539515797582332	0.8139274249455544	-0.5066803065628527	-0.2842485072306842	0.5499487129925991	0.8296850266600482	0.0958079830384641
161														9.548274206626067	-3.218441844823373	0.7924367035146122	0.19014688886596798	-0.23351932002133596	0.9535789887740637	0.8138860236789316	-0.5056878750646063	-0.2861281417000793	0.5490297816281834	0.8305109873983701	0.0939031346435959
162														9.542904064969555	-3.21674990721846	0.7183711243164936	0.1928093571908761	-0.2328849257302656	0.9531994351379198	0.813677376623245	-0.5049810693696465	-0.28796396710318095	0.5484101371703067	0.8311189631730808	0.09212812004457904
163														9.578699783934237	-3.2479994075897687	0.632652182696715	0.19531674530632587	-0.2323233673158635	0.9528259137964092	0.8133628870332363	-0.5044757068011975	-0.2897327652240783	0.5479892179595347	0.8315828967976978	0.09043065162679553
164														9.573728518676218	-3.2656798314723545	0.6166782615335312	0.19766229736360003	-0.2319117065438639	0.9524424269050895	0.8129379698465351	-0.5041601380612819	-0.2914694021193708	0.5477786718947153	0.8318891245580399	0.08887638077307136
165														9.524239300985997	-3.3464213816634385	0.5792949517391995	0.1998807002328868	-0.2315366736036672	0.9520706247180194	0.8125255825877797	-0.5038672754895275	-0.29312104382174575	0.5475855032000027	0.8321709785058053	0.0874161267609726
166														9.531874403067382	-3.3813812814010404	0.5163415251419688	0.2018895412339985	-0.2311902180474914	0.9517308948539386	0.8122232481832075	-0.503491022319527	-0.29460174058270083	0.5472970018655731	0.8324949690675558	0.08612849833919134
167														9.517731186392243	-3.311590555555522	0.5777297417111569	0.20380326654622033	-0.23082011172023098	0.951412793991415	0.8121451709139204	-0.5028206705113819	-0.2959587719052838	0.5467032558036304	0.8330026706631526	0.08498294394621675
168														9.438837155792475	-3.0947448811231344	0.6522554003496959	0.20551108892971043	-0.23050683157194823	0.9511213344918651	0.8122144673583256	-0.5020005747640239	-0.29715834491129656	0.5459604851459089	0.833583843134721	0.0840542986645702
169														9.40146456534478	-2.9370947526892794	0.7370644640178198	0.20722929413843277	-0.2301845222586853	0.9508265379991385	0.8122779540569451	-0.5011821999159942	-0.2983637508820858	0.5452160535090194	0.8341651444407785	0.0831141792725219
170														9.346468671104033	-2.8166937601792004	0.7240476993714269	0.20889085409250674	-0.22995263730175547	0.950519013841633	0.8122675432213164	-0.5004709093581254	-0.29958355614996235	0.5445971440484331	0.8346560090745277	0.0822392680540871
171														9.319788301338233	-2.7639253406330773	0.7922881799579142	0.21062108297409482	-0.2297494330660403	0.9501862751127556	0.8121239820814405	-0.4999169726792582	-0.30089476259215653	0.5441446472538382	0.8350438422220952	0.08129197027970964
172														9.188678586729488	-2.7784023801113946	0.7527915171578933	0.2123953335242279	-0.22955728706954154	0.9498377094274604	0.8118297375257102	-0.4995650126609684	-0.30227020262338744	0.5438940150121798	0.835307278837147	0.08025615462761843
173														9.181343705237168	-2.909820612956927	0.7637601114846316	0.21433058174875713	-0.22928106371509233	0.9494696390874833	0.8115413754955991	-0.49914745622384654	-0.30373082294027204	0.5435650812790966	0.8356327008721833	0.07908850515157079
174														9.129733009707778	-2.9729535588004268	0.6404178404149597	0.21632834199726542	-0.22890478509332185	0.94910728993623	0.8113464801638235	-0.4985822696626844	-0.30517635803545	0.5430643954214721	0.8360731545381581	0.07786361593276109
175														9.197632492909484	-2.9512722466206225	0.6189852273281147	0.21852707377356612	-0.22844910981983552	0.9487132982363469	0.8112238150702848	-0.4978257169004501	-0.30673356101894944	0.5423668867941469	0.8366484087208188	0.07653496125397441
176														9.208011361971607	-2.9739295258095524	0.62439160131974	0.22080164229466082	-0.22792511537318416	0.948312594317982	0.8111334874698187	-0.4969962548557354	-0.3083134576440387	0.5415801882131861	0.8372842196300452	0.07514010442816949
177														9.253899872940304	-3.0499211720549355	0.5137099170753658	0.22324034030769974	-0.22727476049058615	0.9478976388319836	0.8110786789529824	-0.4960622645730467	-0.30995742645490243	0.540661749162254	0.8380145660491874	0.07359660374096488
178														9.285900535565531	-3.139274677777415	0.4398329670804229	0.22573342336566293	-0.22653156948113473	0.9474850234193849	0.8110305657110273	-0.4951117466746963	-0.3115987480513722	0.5396979183377212	0.8387775666606405	0.07196075742225944
179														9.315642088413806	-3.235114378546985	0.33155295991382955	0.2283074389008704	-0.22570776885250493	0.947064789981208	0.8111341091418374	-0.4939006042778574	-0.3132469474402672	0.5384581416686013	0.8397131630346113	0.07031808798029837
180														9.359191683148332	-3.3386716139128887	0.24148741082791098	0.23093069815065986	-0.22478451692938084	0.9466482628730026	0.8114090934021095	-0.49241737624297977	-0.3148657026707518	0.5369229887013736	0.8408311652899199	0.06867791261519263
181														9.342924901999929	-3.3350766451765903	0.27565896471845613	0.23358840238208073	-0.2236987462520128	0.9462533113272922	0.8119321120751286	-0.4905666153991012	-0.3164026568110513	0.5349791618874595	0.8422014407379915	0.06703752355989423
182														9.38424278662509	-3.314255999067314	0.3035495331127317	0.23624876870693334	-0.22250635471557773	0.945873903538756	0.8126070236929464	-0.48849258853727073	-0.31787547245587955	0.5327817041991494	0.8437214665132936	0.06540445409379969
183														9.386471094157157	-3.232395801511595	0.32160758135710044	0.23902397769242162	-0.22124734358094084	0.9454719197556691	0.8132873834904701	-0.4863506657120202	-0.31941612641928474	0.5305008670523719	0.8452884968576424	0.06368820249331603
184														9.358783781128666	-3.213980955844852	0.36980759185748513	0.24180241197597568	-0.21984288469748908	0.9450929581847949	0.8139344295902877	-0.4842882294633078	-0.3208982005727466	0.5282445815057004	0.8468376567271796	0.061835630979931666
185														9.356704059671952	-3.197107730714444	0.36231906669295777	0.24466792395839504	-0.21841666465818915	0.9446860682710853	0.8143904516512432	-0.48247248323449776	-0.3224724719736895	0.5262183950083593	0.8482419840594604	0.05983090533910462
186														9.314560082186944	-3.197352350450511	0.4120089891432973	0.2475509721353058	-0.21689771209160835	0.9442848609843804	0.8146812668280253	-0.4809279177123213	-0.3240413113236867	0.5244167709697591	0.8495079284234588	0.057648329302198265
187														9.322013434478134	-3.2532325810408405	0.3966917349939287	0.25051395609917254	-0.21527867188667565	0.9438738534519595	0.8147808261806557	-0.4796682828879739	-0.32565402451017056	0.5228527164392569	0.8506311961255665	0.055241334977336576
188														9.281534562291908	-3.371419172780929	0.3603570240382424	0.253407288533143	-0.21362376061527683	0.943477416273897	0.8147157744930287	-0.47871554503910985	-0.32721496562677804	0.5215581970504404	0.8515845911232167	0.05273263933276218
189														9.282991102792778	-3.4663050133028737	0.29800303926113214	0.2563460991603894	-0.21191537361742907	0.9430686888397032	0.814624482508338	-0.4777873791754209	-0.3287950315906625	0.5202630391862121	0.8525321663874434	0.05015252068897419
190														9.29273856730607	-3.4894421517079994	0.29113983681780714	0.2592632320499298	-0.21020736406160317	0.9426534042803305	0.8145296143636933	-0.4768662270846684	-0.3303636008863054	0.5189644340718897	0.8534702487845172	0.04758624389607924
191														9.284612763515241	-3.5372523839813286	0.2558600641242775	0.2620775144071989	-0.20847742169624017	0.9422592748734464	0.8145264738191529	-0.47585002424415546	-0.3318333585921916	0.5175538618249138	0.8544611864032943	0.045100787580633406
192														9.297536356449843	-3.552781209205756	0.28388604191533584	0.26489327289696407	-0.2067642025564484	0.9418493077531728	0.8145955659452844	-0.47469593373898045	-0.3333134177226586	0.5160093196020946	0.855518752005398	0.04268544307969657
193														9.28386143586264	-3.546431265316359	0.31087185051673344	0.26760731224964046	-0.20509374581909112	0.9414472273348184	0.8147229172623847	-0.4734772321763615	-0.3347325480112161	0.5144053795577888	0.8565955089985621	0.040388605391884824
194														9.302616412790636	-3.6148108673309602	0.28022533680315875	0.2702596125166247	-0.20348173166217837	0.9410392801164713	0.814865162098287	-0.4722368926160585	-0.336135515604738	0.5127909022602659	0.8576639797333755	0.038183614640470154
195														9.357830870231625	-3.709904349734253	0.3770671146746133	0.2727631270826501	-0.2019640792580626	0.9406438152635338	0.8151631596936906	-0.47077797508640434	-0.3374568435396497	0.5109885513221336	0.8588239684958658	0.03622280434642361
196														9.338204350275122	-3.741018062742008	0.3655577288048087	0.27505421097545063	-0.20062793123568057	0.9402625241031167	0.8156470052803829	-0.46905494267644227	-0.33868484395960696	0.5089844239284894	0.860079004486734	0.03462603412597737
197														9.406408642996197	-3.719688327088383	0.33764298220798433	0.2771960768164883	-0.19939898509057757	0.9398948769635869	0.8162668407710707	-0.46713807314016864	-0.3398388813548369	0.5068242098155573	0.8614070265372455	0.03327393840677506
198														9.443735116430458	-3.6473884836085793	0.3939738414047895	0.279027919148821	-0.19839529358047014	0.939565180187409	0.8169741192891867	-0.4651651793401725	-0.34084401761081734	0.5046748544827027	0.8627054325866648	0.032289748192247836
199														9.375140467764227	-3.650363797625411	0.44531222544661586	0.28063846736708364	-0.1976209914873725	0.9392486328749181	0.8177129267651311	-0.46317694300155476	-0.3417787133116078	0.5025809586873125	0.8639520028307607	0.03161197193563903
200														9.345499217161704	-3.63667229344115	0.43880821403199255	0.28192458953523697	-0.19697495347283833	0.9389991445788228	0.8184413061666248	-0.46134947422878164	-0.34250619116899983	0.5006719027223885	0.8650766037370329	0.031146677048173255
201														9.3045964059028	-3.520061555647891	0.5207855037335294	0.2830488931698081	-0.19653339672810272	0.9387534010835117	0.8192064760453688	-0.45947411618026235	-0.3431971534929964	0.4987825915974566	0.8661744400124497	0.03094779133385639
202														9.275968557205637	-3.4782150263370744	0.49480969217355014	0.2839096635569706	-0.1961443369423051	0.9385748249470743	0.8198948789512255	-0.4578702923001654	-0.34369635275707633	0.4971596226651188	0.8671114083636685	0.030823936754607872
203														9.289660473149787	-3.464271136532575	0.489319901264368	0.2845777495839972	-0.19590369633026583	0.9384227438664561	0.8205568563685863	-0.45637379115178306	-0.34410668144668916	0.49568331614874067	0.8679543216747578	0.03087629475665754
204														9.330255767788003	-3.4092878326130944	0.580628198055533	0.2850255656989857	-0.19583503141093916	0.9383011602733156	0.8212227029843446	-0.4549427463736322	-0.3444130799274389	0.49432145310623593	0.8687207479934469	0.031153860188520788
205														9.332996708799351	-3.3789094001250173	0.5949011903983797	0.2853008828330354	-0.1959453526308419	0.9381944494810586	0.8218850243555449	-0.45355834427090247	-0.34465901276816174	0.4930602529050348	0.8694194885810955	0.0316439548825771
206														9.297938113407142	-3.285899405360368	0.6013066891331394	0.2854218145612701	-0.19616099197341336	0.9381126014506782	0.8225175794817867	-0.45228356403635983	-0.34482518635678483	0.49193416146469787	0.8700347366229553	0.032254268763221905
207														9.262712427956114	-3.3307411354416776	0.5858080860473321	0.285467297237264	-0.19642799931912708	0.9380428898997832	0.8231110870938034	-0.45110468263949144	-0.3449531904534017	0.4909140052099847	0.8705863577981272	0.03290642953105827
208														9.235527834475173	-3.3090817535296235	0.5913546211790887	0.28530985323051133	-0.1967555350899609	0.9380221463595877	0.823759812683779	-0.4499350772621706	-0.34493216326731624	0.48991637924932663	0.8711174924546908	0.033708391873274235
209														9.182195132576338	-3.2391723798924867	0.5718856967952873	0.2851146528829644	-0.196998843299503	0.9380304315159957	0.8244512984274414	-0.44874216833043346	-0.34483405122378435	0.488865719019787	0.871677648044711	0.034472984589498934
210														9.224471031911564	-3.10306662185624	0.5977238259722653	0.2848536173227839	-0.19726972233021456	0.9380528094675084	0.8251066343194945	-0.4476439104153599	-0.3446940258693235	0.4879113225782751	0.8721809365721117	0.03525556949069297
211														9.228459152895454	-3.068461274821818	0.6148487888444603	0.28456837238897936	-0.19751863121366947	0.9380870064974605	0.8256278099771512	-0.446807439465461	-0.3445313214072887	0.4871956083835538	0.872553438112416	0.03592960909865284
212														9.228752069975597	-3.0661924564169665	0.6217325297629557	0.2841417115096343	-0.19781274068275784	0.9381543622474674	0.8260729500693307	-0.44618241958145516	-0.3442742070213681	0.4866898077257519	0.8728066040538505	0.03662871791172084
213														9.194809047727162	-3.107448528282254	0.6071085039703654	0.2836858141160212	-0.19815647083653087	0.9382197887142125	0.8264533756460561	-0.4456738131485073	-0.34401986884031655	0.48630975391469317	0.8729884680448424	0.03733574571573439
214														9.153467367551388	-3.075757124955311	0.5944038569003504	0.2831738099591797	-0.1985106792708628	0.9382995809274468	0.82679790754759	-0.4452622677534016	-0.34372479251579197	0.48602244128036776	0.8731179892377192	0.03804160145620511
215														9.192092426051971	-3.1096443781014127	0.5875998114073127	0.2827303008121578	-0.19880737406930687	0.9383705051941549	0.8270993273504863	-0.44490380384941475	-0.34346369242860986	0.4857677219608565	0.8732332067300168	0.03864565907022205
216														9.158403175909477	-3.1507230255118794	0.5720442876791386	0.28221000672117835	-0.1991118739820868	0.938462558520996	0.8273337567623804	-0.444713143953821	-0.3431458502097239	0.4856710481672535	0.8732609468160416	0.039229475373393385
217														9.235626049193058	-3.195739164442932	0.5273621868820759	0.2816899809931319	-0.19937842380478565	0.9385621975816033	0.8275461944261394	-0.44457546425382355	-0.3428118327513094	0.485611007596516	0.8732702334928271	0.03976240179466006
218														9.29342383486954	-3.228035441045173	0.5714099544116539	0.2810393950958243	-0.19971694588857924	0.9386852507252423	0.8277576041957893	-0.44449876229345126	-0.34240064108531765	0.4856276424383395	0.8732319232852906	0.04039555737023626
219														9.249161695640968	-3.2026813087762314	0.5243631747036844	0.2803242076548881	-0.2000381041152135	0.9388307065198974	0.8279125994518968	-0.44457169465797663	-0.3419308935702322	0.48577676588270646	0.8731212774929525	0.04098985871666744
220														9.159203945508253	-3.2313875603198974	0.49416166998873995	0.2796068783656642	-0.20032359920859927	0.9389837321118624	0.8279924120335009	-0.44479342581221637	-0.341448933179148	0.48605407022835906	0.8729428755390272	0.04149911878703694
221														9.17234290261997	-3.2164662487116837	0.45935644825995886	0.2789537901465464	-0.20049428212826237	0.9391415366156208	0.8279594084995568	-0.44521658566947264	-0.3409771395883916	0.48648535521631153	0.8726879365951441	0.04180627322985536
222														9.242345016148597	-3.262265563150744	0.48491345185937	0.2782513886986427	-0.20063406762004155	0.9393200389630334	0.8278500476998143	-0.44581861683865365	-0.3404556643727434	0.48707336532671675	0.8723484004629729	0.04204527320639567
223														9.286783841880347	-3.3491259309402084	0.4154573228628751	0.27752361040848417	-0.200791545310553	0.939501676953075	0.8276728149429436	-0.44655026977867573	-0.33992729805800515	0.4877892547712216	0.8719378486408261	0.04226146042606821
224														9.300083639375432	-3.383514422111521	0.42666254109675444	0.2766812312531757	-0.20100003920041543	0.9397055286171613	0.8275390783427343	-0.4472574884229111	-0.33932257936259974	0.48849418633990405	0.8715272361154649	0.0425876346027112
225														9.256423838146231	-3.4070344770175214	0.424063249689325	0.27586167572859743	-0.20121918359640495	0.9398995563447227	0.8274468187673543	-0.44786992640131634	-0.3387392671909542	0.48911358392094917	0.8711620797406623	0.04294802493629879
226														9.247911786861545	-3.4497153985480637	0.3512333796386993	0.27506325314204494	-0.20144827397629622	0.9400844641216481	0.8273809435585979	-0.4484163269633807	-0.3381768353225201	0.4896743622112553	0.8708279914108421	0.0433316093442046
227														9.264655911660336	-3.4765501610530607	0.39674764359139786	0.2743111561921452	-0.20164567717643017	0.9402618839794512	0.8273392972880282	-0.44889978426677574	-0.337636892012993	0.4901663766023531	0.8705331725794834	0.043691174019692525
228														9.251420306629784	-3.464209454048878	0.38288293122519357	0.27355266597988803	-0.201834743996955	0.9404422762992849	0.8273337976247606	-0.44932470657917234	-0.33708470058033446	0.49059935409974675	0.870270098402344	0.044070733868258494
229														9.241489709881703	-3.444300409261721	0.40251073082457356	0.2728418615609168	-0.20201058605633992	0.9406109938232425	0.8273643745782524	-0.4496588589175683	-0.33656366749203354	0.49094348988321584	0.8700566841982911	0.044450602056263
230														9.236504086549285	-3.4795369842890906	0.3629882090656867	0.27208288757869564	-0.20217572451496535	0.9407953436872913	0.8273605193874403	-0.45008720494868537	-0.33600011741132757	0.49137101384369913	0.869796806362457	0.04481118605757123
231														9.226470107640834	-3.459905120677059	0.3824749856288672	0.2714151613898629	-0.20239487393199684	0.940941084858009	0.8273260210987728	-0.45049159566091623	-0.33554280956646276	0.4917981953815901	0.8695364496356284	0.04517629659986222
232														9.182505430824603	-3.4850378703667193	0.37935700362481417	0.27078226285471996	-0.20258322328036826	0.9410828888937544	0.8272370459808064	-0.45098017028730475	-0.33510558897843457	0.4922964918422914	0.8692392787103967	0.045466916178718564
233														9.246132672906644	-3.546392603713175	0.3377799647487158	0.2702115529031171	-0.20269630452097825	0.9412225692211298	0.8271845127373909	-0.4513910137560956	-0.33468184083939995	0.49269818201926724	0.8689996322403037	0.04569617709530821
234														9.235637092114203	-3.528089441629936	0.35639448231066545	0.2696749567400704	-0.2029115979667263	0.9413300702292638	0.8271207976346121	-0.4517629749284559	-0.33433725578235285	0.4930989797469919	0.868756063515174	0.046003242038955616
235														9.236716053244496	-3.524923974856065	0.35973901590990787	0.2691907141942996	-0.20313768533802118	0.9414199064110945	0.8270594251161691	-0.4520935057662425	-0.33404216705455064	0.4934663785082777	0.8685312561097036	0.04630756355527349
236														9.231115781534296	-3.5625567502458115	0.3193955781236475	0.2687360591936723	-0.2033515461523857	0.941503626741018	0.8269885323752518	-0.45242603932509307	-0.33376735349706876	0.49383286424546813	0.8683080257708345	0.04658620582397277
237														9.228514528936959	-3.593195815252877	0.31253650572913466	0.26838538548634855	-0.20359468215057402	0.941551108680432	0.8269537718062332	-0.4526194162762006	-0.33359125184158467	0.49408171809204626	0.8681502573920012	0.04688695380821417
238														9.258926547891207	-3.605867109543111	0.35172404274632674	0.26814476569053236	-0.2038219808599097	0.9415704884665368	0.8269818164374985	-0.4526393796030962	-0.3334946286138059	0.49416541756228316	0.8680865119046992	0.04718419157543702
239														9.238832503500356	-3.5180408660603084	0.37253986723655047	0.268023247367492	-0.20400527054386308	0.941565392556943	0.8270551068273517	-0.4525213172892566	-0.3334730988694509	0.4941086815078065	0.8681050091948104	0.04743736786011571
240														9.226984716914199	-3.4783349403295114	0.36780410528690166	0.2679309556133455	-0.20426239748020952	0.9415359132819929	0.827126771558861	-0.4523617620749181	-0.3335118288503287	0.49403877053803696	0.8681277032718817	0.04774917818300889
241														9.226587653074708	-3.4790659733590097	0.3708378656677026	0.2679275382420293	-0.20444861369704015	0.9414964676561061	0.8271983993767916	-0.45217203500558445	-0.3335914549675742	0.49392068423992985	0.8681827083720728	0.04797022580406074
242														9.20193625315088	-3.476844236788818	0.4276433728740321	0.26809142907445804	-0.20464584354226822	0.9414069600219069	0.8271912305132785	-0.45201260456151404	-0.33382521396599824	0.49384375445958917	0.8682192603475172	0.04810054202259262
243														9.13222073351896	-3.429334031026844	0.4061300429265482	0.2683654184106719	-0.2048091622565819	0.9412933704520725	0.8271480050453293	-0.45185974369022275	-0.33413911740731334	0.4937673338231248	0.8682603175822119	0.04814396079717137
244														9.169601847110195	-3.468945355512802	0.3932779056105981	0.26877179050626965	-0.20489461171414652	0.9411588190728295	0.8271180434031911	-0.4516282044619725	-0.3345260934685539	0.4935964616009021	0.8683606180757877	0.048087109188485466
245														9.105906821550024	-3.3825568587105552	0.4132295846536727	0.2693773220885771	-0.20488571541989575	0.9409876205143533	0.8270732739585709	-0.45133105672626794	-0.335037425876276	0.4933413198261805	0.8685171966352927	0.047877148003347414
246														9.091953137579287	-3.3984872235367805	0.45035319021811404	0.2701015180093241	-0.20483371384951132	0.9407913262991298	0.8270106615850745	-0.45100529363312647	-0.33563013979604844	0.4930502363792927	0.8686986674247372	0.04758245076506379
247														9.047974085204546	-3.376183527160293	0.4265321351586138	0.2710806741628091	-0.20460779001819573	0.9405588340764797	0.8269446945007364	-0.45058572384534906	-0.33635543358751696	0.49262332499844197	0.8689695954005714	0.04705424462093316
248														9.080305550185338	-3.477968399236968	0.4217597472740469	0.27222991445787154	-0.20425132482618097	0.9403043496554776	0.8269427832327285	-0.44999019509607785	-0.3371564289416756	0.49199238503616016	0.8693619617996549	0.04640336671284795
249														9.046670182038698	-3.547723318827833	0.4509291122829338	0.2735124470383917	-0.20382451179873518	0.940024738879291	0.8270983408638142	-0.4490533756962428	-0.33802278076504827	0.49101861049801143	0.8699463398197715	0.04576122789858117
250														9.039448512994367	-3.639651605948621	0.48322876470113796	0.27491623135283266	-0.20334222405184837	0.9397196420509705	0.8274959259648211	-0.447623797222799	-0.33894458053119264	0.48956261933523837	0.8707955420634002	0.04520581458319395
251														9.150084520259812	-3.6696992365327437	0.50920190980157	0.2763374054851629	-0.2029086948329833	0.939396455119405	0.8281550211890893	-0.4456894679688307	-0.3398825665152009	0.48764423426205705	0.8718881577948149	0.04487918323829043
252														9.19117913064058	-3.5608011986695827	0.5836350099885046	0.27767655706784905	-0.20259061411421442	0.9390701639003187	0.8290547013921306	-0.4433208709908086	-0.3407857207154617	0.48534939142287103	0.8731687399447927	0.04485888795626053
253														9.205462712831956	-3.4551438652984725	0.6811044745547862	0.27903343154559174	-0.2024151911287696	0.9387057230464697	0.8299843802706443	-0.4408165858917408	-0.3417699022873494	0.48297647208393735	0.8744763164334718	0.04499888232279131
254														9.197174605122633	-3.4091077395768017	0.7418670241585312	0.28047804786513403	-0.20236322754042052	0.9382863042830731	0.8308354440513182	-0.438332743113221	-0.3428948398895617	0.4806709160889732	0.8757359935815492	0.045187829909437705
255														9.177316521824855	-3.4628135405545653	0.7741036575426758	0.28200018736816684	-0.20234984034138948	0.9378328403495653	0.8316544528659813	-0.4358221472062627	-0.3441074353057607	0.4783584067961013	0.8769912189516706	0.04538321858527411
256														9.179714712707623	-3.458140028840728	0.8435270048537128	0.2836017200147088	-0.2024034125146797	0.937338211643541	0.8324307443307464	-0.43329176361073096	-0.3454233684626196	0.4760557953619081	0.8782318066373567	0.045604533906468014
257														9.160047679921057	-3.3491555702045974	0.8719550494417279	0.2851461447528809	-0.20254201303936636	0.9368395855676306	0.8331181298859945	-0.43091353248490893	-0.3467386756285491	0.4739260045490561	0.8793692401234752	0.045868090616784485
258														9.25534224022853	-3.3258749026768037	0.837613312236945	0.28639936488873247	-0.20281403051497643	0.9363983515671098	0.8334821571287792	-0.4292720021261246	-0.3478980338239719	0.47252819761289133	0.880109093929212	0.04609864687616794
259														9.239252719239804	-3.346478917569437	0.879812249967647	0.28754133170769747	-0.20325953006570768	0.9359516793068064	0.8336487650308613	-0.4280026376356349	-0.34906085248772717	0.47153973228380586	0.8806243839540253	0.04637860781987296
260														9.143242172858661	-3.480203671850226	0.7801508311618016	0.2886311261226405	-0.20375017956280084	0.9355094533789077	0.8336912985394128	-0.4269785576296271	-0.350211550443715	0.4707981433404807	0.8810080451690833	0.04662544985848993
261														9.06559132093074	-3.612216464140394	0.7317984697040784	0.2897621610775105	-0.20416555634772454	0.9350691501749566	0.8338037699677325	-0.4258172728865496	-0.35135583572648815	0.4699033551649616	0.8814738088637044	0.04684827736455366
262														9.084435959577005	-3.6285694217425886	0.6800882010500785	0.29093335797737296	-0.20445548593193058	0.9346420360161145	0.8341378708949763	-0.42425178536214525	-0.3524548693887322	0.46858488404429544	0.8821611966581677	0.047115067184753806
263														9.13381320986716	-3.699024017312569	0.550055126231329	0.29220676231340736	-0.2045813051988945	0.9342171576359708	0.8348057051502591	-0.42203550184363703	-0.3535328412356735	0.46659901704450085	0.8831944999527035	0.04746401317208024
264														9.148826689957968	-3.7472740918191514	0.4921234041089042	0.2933313108513309	-0.20452256794368628	0.933877540834964	0.8359855248104809	-0.41900622152891864	-0.35434727122894993	0.4637725136115596	0.8846492556498189	0.048070262082049064
265														9.088516033817712	-3.808287051978826	0.396118847905322	0.2942645264876879	-0.2042374218867713	0.9336463270168323	0.8377654611957652	-0.415021956902625	-0.35483208326779336	0.4599537155828002	0.8865911407124258	0.04897681831046044
266														9.054579461252679	-3.9372571011375723	0.35657473742077905	0.2949062269167195	-0.20371328170764208	0.9335583624935544	0.8402758611307846	-0.4098753938005433	-0.3548783436020962	0.45493603344499123	0.8891023902862663	0.050300547318944344
267														8.953925723708933	-4.035784693762967	0.32432480264198943	0.2952124974143663	-0.2029566736022138	0.9336263546037555	0.8436317011036968	-0.4033163041238905	-0.35443125104980305	0.4484809185051866	0.8922693245137199	0.05215667041303762
268														8.90826598758718	-4.150472374333485	0.2823155152620208	0.2951127340533877	-0.2019834548360796	0.9338689191594379	0.8479662768520052	-0.3950389837150845	-0.35340825495042205	0.44029724905032486	0.8961846268028901	0.054694123641225334
269														8.795324173006158	-4.282452619855186	0.30112904850351135	0.2947147999652335	-0.20075230382278914	0.9342599740924868	0.8533137677060738	-0.3847732531859217	-0.3518595706755559	0.4301148689881766	0.9009151214973388	0.057906332406037736
270														8.733813353815968	-4.440906415817662	0.2818246627658909	0.29399386027171864	-0.19925865852294722	0.934806716453283	0.8597433237804581	-0.3722027519444636	-0.3497235031562763	0.4176230684929452	0.9065103962165041	0.061885977522644214
271														8.632299802296192	-4.592439144828748	0.28113567046234694	0.2932022207204414	-0.1973326282438163	0.9354636773253091	0.8673038280480572	-0.3567956601704149	-0.34710362535811173	0.40226425098160074	0.9131027821192674	0.06653406396926448
272														8.601558092569825	-4.70118621532573	0.21993905405858227	0.29231648934169635	-0.1950321463767244	0.9362230139975383	0.8759165818191315	-0.3383171470439781	-0.34396460531617623	0.38382445434499807	0.920599788124955	0.07193621029115468
273														8.651927914928768	-4.810741591537543	0.10954150063413151	0.29151162926032886	-0.1920927059025176	0.937081299752075	0.8854267476086822	-0.3165363073425852	-0.3403296060483603	0.3619950892278792	0.9289268854290795	0.07781000515313197
274														8.79113236044903	-4.782145019612994	0.04201522326680074	0.29075349043139037	-0.18875960480895015	0.9379937203384325	0.8957130111811988	-0.2909743075347566	-0.33620254900190716	0.336393533532787	0.9379252443276271	0.08447263847121056
275														8.95296810263087	-4.575987637279488	0.03522433644665232	0.29034797255992	-0.18502574746201456	0.9388628907388272	0.9062770133536284	-0.26178253067714974	-0.331861238621046	0.3071807772260035	0.9472250943721827	0.09167655476968184
276														9.01701615712788	-4.3096768242172	-0.011344662845833624	0.2901097253887515	-0.18106750773799918	0.9397078827361265	0.9167382491249286	-0.22921776877190148	-0.32718526414035265	0.2746403645246351	0.9563857862394137	0.09949320606450907
277														9.043599140463721	-4.101470542487458	-0.07651604784305067	0.2901754297478367	-0.1767639425303476	0.9405066339966911	0.9266177822243788	-0.19367152672392368	-0.3222899709919592	0.2391186016106478	0.9650108021973393	0.1075938939076741
278														9.027706336311452	-3.8485113618000253	-0.01676698747153943	0.29045940880304494	-0.17214477509915332	0.9412754688420637	0.9355369354862537	-0.15554860304058993	-0.31713605035238296	0.20100739831850412	0.9727131172643773	0.11586724007692306
279														9.05533458598085	-3.5529544327338853	-0.007889612402482732	0.2908711768540722	-0.16714901627844242	0.9420483877342376	0.9431527849938741	-0.11538945789241288	-0.3116858950379286	0.1608004435125308	0.9791560035890319	0.12408359279827978
280														9.056976427449573	-3.2880206425890517	0.0629245974429115	0.29123865887313505	-0.16180894137068158	0.9428668570218586	0.9491974392329154	-0.07391056848832084	-0.3058781607428192	0.11918164678948862	0.984050351536055	0.13206301795095027
281														9.158912694034427	-2.923970531884665	0.14857681759002916	0.2915730003645418	-0.15593680045780878	0.9437525627628254	0.9534589785553444	-0.03185544910980856	-0.299835299079698	0.0768190189381408	0.9872532322686993	0.1393911536087841
282														9.372637131395662	-2.668819526496466	0.33654284415302477	0.2916400179817453	-0.1496269341923661	0.944752814484191	0.9559009573686064	0.009829010881970274	-0.2935247012550451	0.03463321546418541	0.9886936689942316	0.14589506255297283
283														9.608852286228984	-2.310725824015526	0.43259827258760813	0.29147114019754095	-0.14299751290680568	0.9458310027348507	0.9565562537889043	0.05048182499387918	-0.28714407304108525	-0.006686386863040628	0.9884347710637029	0.15149916033748326
284														9.801558941383703	-1.9166652299819038	0.5920949934454423	0.29102462902436177	-0.1362485966678646	0.9469640886576802	0.9555926983778416	0.0893383448903638	-0.2808224616002196	-0.04633853804544358	0.9866382214562178	0.15619782281940747
285														9.812596227683077	-1.4733398414802523	0.8405806694122478	0.29044827492052083	-0.12952631541005843	0.9480837163520888	0.9532492319725475	0.1255219397915569	-0.27488205538869476	-0.08340084735446118	0.9835990932525605	0.15992849156200728
286														9.72283974472246	-0.8518146141365089	1.0753139369239226	0.2899392735004167	-0.12277914463426831	0.9491367126631065	0.9498843493230367	0.158008133151133	-0.26972792359940373	-0.11685435632958868	0.9797748269377877	0.16243875124435753
287														9.611661312806232	-0.028105410365392665	1.4797697935487812	0.28946278974673556	-0.11626163817668927	0.950102375978773	0.946115288918018	0.18530181758393635	-0.26557314712836694	-0.14517972801880025	0.9757799280004495	0.16363489445660725
288														9.591412271229563	0.4066898298424618	1.8495101132217624	0.2890213864811573	-0.1103518521533593	0.950941168991454	0.9427528665943818	0.20545177635192483	-0.2626910735482167	-0.16638410586527003	0.9724258513224349	0.16341448220782887
289														9.510480757379796	0.11565255589598258	1.9123116650365586	0.28885256076785204	-0.10514832822655462	0.951581855233177	0.9403317395621631	0.21786500801142386	-0.26136384190660034	-0.17983441747855305	0.9702982362940494	0.1618051758591378
290														9.418967518515442	-0.7176041523267875	1.8230493127258136	0.28895644699818424	-0.10049987086930634	0.9520524920892961	0.9389917318704775	0.22353217444428025	-0.261396049065578	-0.18654409456497878	0.9695014919758842	0.1589596107175268
291														9.31484460294133	-1.6729099351856396	1.5412125218135106	0.28915719146434127	-0.09618343153816955	0.952437329235891	0.9385859452343608	0.2241591623320001	-0.26231487443745577	-0.1882672091283461	0.9697945233090146	0.1550936508270577
292														9.28697425618385	-2.4514013024827483	1.220284747652122	0.28936074270640033	-0.09214212794955745	0.9527749938140313	0.9388168597471894	0.22155787207279407	-0.2636949244430035	-0.18679738872593016	0.9707841869228724	0.1506147336274606
293														9.33303387468966	-3.113902910414163	0.9166446337001231	0.2894657576348381	-0.08848420430364118	0.9530897758058476	0.9394711012088186	0.21695525018063874	-0.26518761172525884	-0.1833129159398741	0.9721630341706108	0.14592946872312226
294														9.401151809549274	-3.5490501043550835	0.6502426488763772	0.2895344156931989	-0.08528991815450043	0.9533600851674028	0.9402939377327584	0.211541401135055	-0.26664123137437373	-0.17893331940201207	0.9736405216849888	0.1414461089629586
295														9.404942798757222	-3.95938118844843	0.5490419306794118	0.28956455157392574	-0.08249790811311436	0.9535965948076535	0.9410489408601712	0.20655402431134265	-0.2678849117564109	-0.17486926939214342	0.9749510398977737	0.13744529247852957
296														9.344323139139492	-4.1497766958086775	0.5926124748079822	0.289480567712043	-0.08007421518340163	0.953828664373155	0.9416469501048209	0.2026393528626288	-0.268771862421841	-0.1717615273435915	0.9759740840484334	0.134061795416962
297														9.303688990875523	-4.184295040051941	0.6102343279558723	0.28922425167501253	-0.07781156393604083	0.9540936498902284	0.9420182794964971	0.2002934679735176	-0.269228690487478	-0.1701496204447419	0.97664112508381	0.13122964397399445
298														9.318660745597072	-4.0443908454842505	0.7422741987666702	0.2886408490224601	-0.07566600138126023	0.9544428304045063	0.9421947290116248	0.1996200183653518	-0.2691113912314528	-0.1701633124333939	0.9769475443967236	0.1289105992496639
299														9.373189209832223	-3.8584986556842074	0.9006989462680133	0.28782148897461357	-0.07350125842254679	0.9548593380675181	0.9421513474799623	0.20057669595913669	-0.26855134980075585	-0.17178366897388203	0.9769168613799326	0.12697959294884237
300														9.42544430107536	-3.706741077917147	0.9711014230954361	0.2866426476754159	-0.07134505364053978	0.9553773473631537	0.9419597148863479	0.2029164210867808	-0.2674636827394752	-0.17477954132236917	0.9765934719085321	0.12536866658292842
301														9.391656161711545	-3.6370078593656388	1.1307214147225464	0.2851036703362398	-0.0691200543034396	0.9560012109060817	0.9415964143629802	0.20666825004065908	-0.2658654300278821	-0.1791984643337764	0.9759665222323056	0.12400507192125276
302														9.301608089629607	-3.68463897824389	1.2136150608652305	0.2831767718439666	-0.0667360486691898	0.9567430249006544	0.9410525835841549	0.21177934277153249	-0.26376039297977527	-0.18501608259180558	0.9750363120331887	0.12277312164761833
303														9.361019305010537	-3.8455556796097246	1.14458097242764	0.2808548671819652	-0.06410421534419558	0.9576070139442936	0.9402401225066932	0.21853737309947951	-0.26113201371600947	-0.19253325844850805	0.9737207331334198	0.12165064018457178
304														9.520546719299853	-3.9954110429087537	1.1573187831206124	0.2781878629002903	-0.06113687791187222	0.9585790499975252	0.9390318447279098	0.22725377204338645	-0.25802115742502824	-0.2020660969135296	0.9719146080038314	0.12062871642726983
305														9.801965849468102	-4.154170650682711	1.1253061218148306	0.2752268424537731	-0.058023551180071686	0.9596267257123365	0.9373047581150533	0.2381774693672543	-0.2544234334739872	-0.2137989139537611	0.969486854265835	0.11993858344139319
306														9.876968367065912	-4.13056148744333	1.0796213380036301	0.27195136931776404	-0.05504219476147909	0.9607355564993068	0.9348898530745117	0.2517432253405833	-0.2502125318872705	-0.22808642078061375	0.9662275639263038	0.11992030422129996
307														9.843149724427597	-3.981072033594651	1.157022446843807	0.26844035809544886	-0.052198244106238856	0.9618810308233621	0.9316678651432261	0.26783881193372056	-0.2454737458087876	-0.24481577401191174	0.962048706736909	0.120530173238032
308														9.838825720388828	-3.617266525047984	1.2317848446454047	0.264756610538911	-0.04950286313312957	0.9630438223245975	0.9276063522342353	0.28600008233154117	-0.24031314612615018	-0.26353442369194224	0.956950061104536	0.1216395827080212
309														9.899910442903293	-2.947048437975499	1.356660132744868	0.2610591307489458	-0.04706424115208413	0.9641748220407877	0.9227807134595436	0.30541360546014895	-0.23494315156422302	-0.28341468755112503	0.9510559851052998	0.12316098438908007
310														9.936479623994243	-2.1784788286666115	1.517783289462472	0.25760603033469587	-0.04502835992421639	0.9652002797024747	0.9174333751891216	0.32489018073663845	-0.22970061504055916	-0.30324105135073076	0.944679213946962	0.12500418997879162
311														9.87930061693915	-1.51289437581204	1.7350913599940505	0.25443071095729586	-0.04340749317554532	0.9661163505799806	0.911980938332015	0.3431852459928767	-0.22475465523958815	-0.3218008412680465	0.938264182663403	0.1269036724848964
312														9.730857491535902	-0.8331750308047868	1.9082116309585266	0.25154517563419454	-0.0421811053943118	0.966925942853369	0.9068943498841002	0.3592061328976207	-0.2202580128781524	-0.3380350022755894	0.9323045148643501	0.1286103759425789
313														9.662372971651653	-0.23007004693734745	2.208503150757901	0.24899021799176466	-0.04129377282640512	0.967625286807954	0.902720691845548	0.3718297068749705	-0.21642093613874153	-0.35085498978681956	0.9273820644216899	0.12985870294537816
314														9.626466214117048	0.06669455305935491	2.260674293686755	0.24677619961243913	-0.04082656861728429	0.9682121144665454	0.8999256043930454	0.380291707859493	-0.213335706085787	-0.35949327373770545	0.9239650470814615	0.1305878168478934
315														9.59397881372823	-0.08094891857943078	2.1951200688814434	0.2449396519854085	-0.040662126645282626	0.9686852731109056	0.8985937599192606	0.38468062701479055	-0.21106887462075896	-0.36405194892959025	0.9221536784377051	0.13076227217502923
316														9.619416674722807	-0.4836507468611373	2.0864648298612143	0.24333549180407457	-0.04070851124564501	0.969087537604644	0.8985737217863902	0.3856215733648841	-0.20943082072738523	-0.3651754440586386	0.9217585471628427	0.1304150136633875
317														9.626749789304478	-0.9575446759721519	1.91647066502153	0.24193932759305672	-0.04092922563062218	0.9694277488565599	0.899469596171655	0.3841640258329554	-0.20826052630927544	-0.36389532468365077	0.9223571974810487	0.12975898014506124
318														9.647168692923868	-1.4290532929780109	1.7256123419054805	0.24069069633057355	-0.041310841949773525	0.9697223329578957	0.9009036588552137	0.3812762491878086	-0.20736687118863523	-0.3611655938225451	0.9235376744576673	0.1289867345742634
319														9.676642463866195	-1.789093773237825	1.5779418437102306	0.23960859660364536	-0.04185714853904465	0.9699668548717588	0.9025103431170843	0.3778561731226279	-0.20663928232503348	-0.3578586327033538	0.924917667443596	0.12831409684981293
320														9.771790856281326	-2.0908539506278156	1.5212244464115385	0.23867360721929948	-0.042552862850449014	0.9701670799816693	0.9040264325443258	0.37458182859093303	-0.2059724810518455	-0.35464224012109374	0.9262168793283267	0.12787170902583866
321														9.733257158842715	-2.270750675964556	1.5164314766008606	0.23782135650073055	-0.04348501996354415	0.9703350222634056	0.9052723907640341	0.37198510823342434	-0.20520472161463255	-0.3520268468633091	0.9272195707012115	0.12783179102296327
322														9.675742232848314	-2.2661276679794837	1.5093486678258083	0.23700630142895437	-0.044496915880861354	0.9704885561200916	0.9061443988821808	0.3703497159182789	-0.20431205616336617	-0.35032890468446926	0.9278260140760997	0.12809584749802921
323														9.59228614899044	-2.3039409605972168	1.5636413951309363	0.23628316369775607	-0.045521220483899394	0.9706173731386822	0.906617148945438	0.36971403758666077	-0.20336389957269985	-0.34959349506394627	0.9280298211248525	0.1286275215960768
324														9.524541885594147	-2.389716073276634	1.6720133568260018	0.23551775553315507	-0.04642119590737853	0.9707607632157129	0.9066929734621068	0.37012521381884234	-0.2022750057965617	-0.34991318738091004	0.9278213182860613	0.1292608317737709
325														9.490721489390172	-2.6985659332086267	1.6292949725154506	0.2347208142003623	-0.047091404457739516	0.970921489620719	0.9061924898306776	0.3720250595041563	-0.20102867077958242	-0.35174040250672917	0.9270273753925101	0.1299959019249363
326														9.509846276605405	-3.11398990660465	1.5527245478674911	0.23377046018009823	-0.04741046666046039	0.9711352220974284	0.9048226967759037	0.37618962743167056	-0.19944235160065982	-0.35587534242535745	0.9253289209053488	0.1308400886188032
327														9.599437485118745	-3.3233253263914238	1.4807967134191447	0.23274484230372158	-0.04733020584269482	0.971385448725635	0.9022817280813178	0.3832438233942238	-0.19751418936564363	-0.3629290861195973	0.9224337501658668	0.1319032031579552
328														9.581429151512618	-3.282989083068836	1.4378400360210608	0.23154526963973915	-0.046899211645935746	0.9716929824046534	0.8984615289701132	0.3933172704000584	-0.19511126509182786	-0.3730330669902424	0.9182058531462522	0.13320789083164813
329														9.581003818036013	-3.0632690468544514	1.2619063781259319	0.23025892911593895	-0.04607348201444589	0.9720380958673616	0.8933419336247062	0.40612183624261444	-0.19236747062483905	-0.38590285719342937	0.9126567199018434	0.1346725526154313
330														9.567883918600565	-2.6857893681067053	1.2477516013273395	0.22896408003789853	-0.04494446877394703	0.9723967527604288	0.8870932705447818	0.4209330385026527	-0.189422560565226	-0.4008004234111552	0.9059775779916144	0.1362484817158957
331														9.563163557204602	-2.1662521566262387	1.1551495980093245	0.22764694308125794	-0.043733322522564566	0.9727611555808009	0.8800664235874008	0.43677071906182385	-0.18631808566078106	-0.41672528046644747	0.8985091738381716	0.13791774776585486
332														9.65529171018521	-1.5584124726295001	1.3362165504685468	0.2263874944946756	-0.04258127624566305	0.9731061284616976	0.8726361983331226	0.45270551254062225	-0.18320421467326603	-0.43272943936730124	0.8906427756562243	0.13964482975118725
333														9.705466436306958	-0.8824026101542545	1.5481300439580394	0.22539251317635853	-0.04172523311802867	0.9733741418002081	0.8654639812405873	0.4673742026284545	-0.180370318768386	-0.4474039697848443	0.8830743794486753	0.1414543324967447
334														9.569814150841593	-0.15343029128009272	1.905022114828672	0.22467008696791524	-0.04123889370800515	0.9735618653519507	0.8594442024657666	0.4792275213477697	-0.17803551789139066	-0.45921565181275353	0.8767213562065277	0.14311061701206884
335														9.484120250982743	0.35162793044860685	2.2239640334736013	0.22419398823166412	-0.041122275756835636	0.9736765448943299	0.855513622126364	0.48679558614053264	-0.1764270378097565	-0.4667263630833493	0.8725474289404989	0.14431731099322612
336														9.437546996916081	0.33458890708470657	2.1278183127042127	0.22389538254984373	-0.041341990351135116	0.9737359485541579	0.8542502916860037	0.48928960861964144	-0.1756477100653912	-0.4691772552322168	0.8711409293166317	0.14486609141589504
337														9.491562716446998	-0.23041710380772282	1.9738264734385396	0.22386452313447103	-0.041897684611247155	0.9737192918423628	0.8553467015885088	0.48735891729166064	-0.17567955435382587	-0.46719021325733545	0.8721960042103591	0.1449394179512556
338														9.532916116524293	-0.9278776343595482	1.754947522728484	0.22402476630878726	-0.042687947812250715	0.973648110557337	0.8582353503436095	0.48201399483885854	-0.17633658780884665	-0.46178456827927417	0.8751229901511351	0.144619378397437
339														9.551593448693495	-1.6776236994997966	1.4159591524166661	0.2243658793981082	-0.04371477092313836	0.9735239960910319	0.8621353917429958	0.47461353388880084	-0.17738252381149555	-0.454293427716124	0.8791080776859704	0.14417513405997978
340														9.553241830157237	-2.258861421835256	1.1830672439989727	0.22477110425701963	-0.04489012120765973	0.9733770223860032	0.8663434956531917	0.466445220424499	-0.17854356298267599	-0.446012217579842	0.8834102859719839	0.1437336717975629
341														9.578406878829169	-2.6462699918699273	1.1210088252244976	0.22526541862497967	-0.046187021672529194	0.9732020603146783	0.8703272302827639	0.45852065009508275	-0.17969230830705069	-0.43793378883119555	0.8874827167136297	0.14348666883912892
342														9.59889620855444	-2.9515623980608434	1.0446557031320873	0.22569884057164855	-0.04750417107709809	0.9730382248888747	0.8737303087002095	0.45163428790919646	-0.18061510912266054	-0.43087745476324363	0.8909376093279663	0.1434391692032481
343														9.597797868423353	-3.0989414531285098	0.9686614743531998	0.22607457511132273	-0.048843555524479165	0.9728846763989872	0.8763539789357031	0.44626940367351786	-0.18123830430801308	-0.4253163412000486	0.893564729848157	0.14369441004991823
344														9.59190716899215	-3.0474477888093903	0.9783490500909056	0.2262476408443629	-0.05019597829164818	0.9727756004216512	0.8780436192295091	0.4428852395504851	-0.18136170300990656	-0.4217243267143885	0.895172066337893	0.14427599906305252
345														9.538260875823298	-2.904012381838254	1.078603643828561	0.2262622067003232	-0.051433288758334916	0.9727075771405314	0.8787679979266079	0.4415690914182597	-0.18106226366671296	-0.42020497336319323	0.8957518374592122	0.14510832522389522
346														9.498444686557173	-2.6974632390682314	1.1208153899581572	0.22611768249739272	-0.05245628603156777	0.9726865536840648	0.8786765019375267	0.44201135186894613	-0.18042607838618785	-0.4204740165632597	0.8954743451795598	0.14603868843699797
347														9.55916866568771	-2.3473339661234953	1.2370652201545151	0.22575652489546505	-0.053236444885330025	0.9727280567574349	0.8779743270867406	0.4437893157383609	-0.17947736406874132	-0.42213158190747746	0.8945484470795586	0.14692856558151657
348														9.543297885429189	-2.0091097543173446	1.330320749950159	0.22517204137414282	-0.053794989827569084	0.972832796966084	0.8769307833617832	0.44632230439565107	-0.17829414401893845	-0.4246056440697551	0.893253883097302	0.14767378696200956
349														9.479869904030068	-1.7801447327226367	1.3892637142291133	0.2245094376001622	-0.05409303814842226	0.9729694011901572	0.8757189154225946	0.4491691594147086	-0.17709728231048433	-0.4274481180208122	0.8918077200016594	0.14821301206678314
350														9.468913789010495	-1.690304573924812	1.437629307789363	0.2238599079395116	-0.05408230410315884	0.9731196462923802	0.8744679345617855	0.4520111874842525	-0.1760446472129193	-0.43034006673857206	0.8903712656931206	0.14848042358328573
351														9.463842260828697	-1.65480661779867	1.4719038740133488	0.22324778182487312	-0.05382805834616572	0.9732743539439203	0.8732448200150835	0.45471342300425366	-0.17515475230943245	-0.43313267277717327	0.8890096979642214	0.14851883617395376
352														9.464740127490892	-1.6737285133495499	1.492776210338234	0.22263575501056088	-0.05337423868671348	0.9734395262344195	0.8721357067527498	0.45712494711133345	-0.17440209785246863	-0.43567491274774933	0.8877995119243275	0.14832193711372121
353														9.501957196265856	-1.704490180525429	1.4727515775334297	0.22213252417388735	-0.05282025969611276	0.9735846968136739	0.8711333744108898	0.4592447094239404	-0.1738417120647901	-0.43793125681051165	0.8867380205177604	0.14802667758417748
354														9.56651342161356	-1.7432497553707926	1.5547593948571743	0.2216718553280505	-0.05228443144384032	0.9737186075987325	0.8703141154075913	0.4609696008226923	-0.17337925954297334	-0.43978964184905706	0.8858743507664968	0.14768786536583173
355														9.532672601285824	-1.760120561659904	1.5247985778260513	0.22127878815221774	-0.051759049696182335	0.9738360738278461	0.8696924728975124	0.46226640632256627	-0.17304557830534023	-0.4412150275084651	0.8852292191066493	0.14730420611963618
356														9.539206585732343	-1.8368818474397373	1.5323425791832412	0.22085770111386188	-0.05129945899742999	0.9739559750652345	0.8692869065271842	0.4631471662367293	-0.17272804215669985	-0.4422240947744698	0.8847954949667516	0.1468835664308376
357														9.511681346423293	-1.8814339841316843	1.469363327619166	0.22043735508323203	-0.05088133192860922	0.9740731299779704	0.8690914472147715	0.463612746076579	-0.17246239605626473	-0.44281760224955313	0.8845757806635361	0.14641809793004523
358														9.559273594468557	-1.905813862822556	1.5147722971213773	0.21995228822721713	-0.05055068792642603	0.9741999891468773	0.8691037384476394	0.46370106721109394	-0.17216274882688548	-0.4430346292559397	0.884548443115162	0.1459259026444395
359														9.548649368268533	-1.7966508417944413	1.5317304804401009	0.2195245952743305	-0.05037633463397956	0.9743054844238981	0.8693052991058148	0.4634185611835348	-0.17190559646833026	-0.44285127189180734	0.884706427047655	0.14552418673327422
360														9.621485969177536	-1.3903159394404254	1.5616020847594705	0.21914594967773604	-0.05031250613972249	0.9743940191040703	0.8698526759767011	0.4624459415478662	-0.171755853588981	-0.44196309216496243	0.885218844620836	0.1451076231358538
361														9.630920976090914	-0.8390224579593584	1.8282031236677363	0.21892487533236404	-0.05053017077713795	0.9744324506100677	0.8712978094227094	0.45965684783209415	-0.17191774060942894	-0.4392175158801123	0.8866579295772954	0.14465714521518436
362														9.708661314851454	-0.4666744451299961	1.831017291330752	0.2188491031000665	-0.05107871962811167	0.9744208713248346	0.8741166341120308	0.4540449045390641	-0.17252053393948968	-0.4336187035183688	0.8895134563699783	0.14401607860160648
363														9.7195101959513	-0.5848946726319192	1.8110240718232629	0.21902401526541698	-0.05192863765887129	0.9743366447629422	0.8783219370094566	0.4453964488800617	-0.17370255695581127	-0.42494594445055095	0.8938262806138138	0.14316258023347117
364														9.724094868897916	-1.1328215454315531	1.7204597630209963	0.21927849317184936	-0.0529581114570139	0.9742239890616482	0.8835355278721423	0.43433894178793564	-0.17525596889758666	-0.4138621913390721	0.8991913712205225	0.14203156164239863
365														9.699739549400725	-1.75497528229084	1.5762582262896723	0.21962200706192775	-0.05412189161453873	0.9740826427270713	0.8891929348973189	0.42189137410873173	-0.177041218311836	-0.4013752590068097	0.9050295516173552	0.1407814339908005
366														9.640329336927055	-2.4218074730712393	1.4076490871536012	0.21989832700843703	-0.055321142480466434	0.9739529233867246	0.894699252307642	0.4093414008314924	-0.17875364467741206	-0.3887903981569471	0.9107025797481678	0.13950927403221303
367														9.604732944791627	-2.8472824707401414	1.286432845628339	0.2200948646363911	-0.05647483070281112	0.9738423096465763	0.8996433526814853	0.39767692608781163	-0.18026341956527492	-0.3770942700926465	0.9157858133616389	0.13833385525190917
368														9.555939181865453	-3.137202758945408	1.2561043559015623	0.2202877856200005	-0.05753996714406778	0.9737363317077661	0.9036688355497104	0.3878584268019645	-0.18151715184779688	-0.36722735078268287	0.9199211884394038	0.1374375490809101
369														9.488419113100932	-3.185352158601013	1.3007604444115686	0.22046440442693985	-0.05841452311303025	0.9736442830264821	0.9067043438468452	0.3802408388812494	-0.1824942116784702	-0.3595590066038358	0.923040978470816	0.13679427193308105
370														9.482739311053471	-3.0836867130621504	1.2638131351102737	0.22063599044030613	-0.05922088201292369	0.9735566993534772	0.9088107506140712	0.3748536055006349	-0.1831605689319163	-0.35409430846981155	0.9251906082406944	0.13652677075394487
371														9.498294322787421	-2.8037559159235985	1.3446250311575478	0.22089737938546045	-0.059892865731462575	0.9734563125354467	0.910106493128204	0.3714459377066472	-0.18366841461479544	-0.35058596513054935	0.9265207822794387	0.13656032021703318
372														9.472528892644961	-2.600383201671483	1.4070018543677756	0.22116943319884524	-0.06047206524292176	0.9733587268544712	0.9107828241243989	0.36962611304167875	-0.18398691213693535	-0.3486527342478269	0.9272106912039766	0.13682691627950366
373														9.48333986282124	-2.513009877076801	1.4208593605502413	0.22141886968744662	-0.060913008407912084	0.973274519112173	0.9109871459134349	0.3690399371543065	-0.1841519610692215	-0.34795991741410104	0.9274152954269428	0.1372033734327578
374														9.50680527323349	-2.4163138358024914	1.4168829233678881	0.22157065077381463	-0.06121831086831969	0.9732208203332366	0.910806956393921	0.3695011577844026	-0.18411839283577375	-0.3483348028838211	0.9272115253869615	0.1376286753895192
375														9.603304670695286	-2.359337547534907	1.352662279350171	0.22161963730115053	-0.061339433853327296	0.9732020397723485	0.910278963010788	0.3709017536438435	-0.18391329110188348	-0.3496812060470379	0.9266441404328174	0.13803510835658495
376														9.649823818950898	-2.2484897325481166	1.3982275315629664	0.2216023653165115	-0.06129491408023974	0.9732087778036245	0.9094188274185455	0.37317289224244826	-0.18357393287742418	-0.35192298592562304	0.925734803279699	0.13843874448250232
377														9.636964561468126	-2.058003262042475	1.4659413387150553	0.2215234449515031	-0.06120318259524965	0.9732325178378649	0.908316552805704	0.37608041163494604	-0.18309714329735294	-0.3548075580310828	0.9245635156249143	0.13890249219980783
378														9.595131588126234	-1.965086309460295	1.5074252648210666	0.2213326541459979	-0.06104407485279606	0.9732859174641615	0.907159023500513	0.3791447552962145	-0.18251509694534757	-0.35787478577050397	0.9233216533022175	0.13929379832920075
379														9.602562490586639	-1.8706507498908396	1.4884017290607243	0.22110010896119353	-0.06087436250938455	0.9733493996538061	0.9059409155936351	0.382351172079679	-0.18187533824755409	-0.36108973852868614	0.9220097034187721	0.13968646151618774
380														9.620658407270358	-1.7427308208901227	1.517720759238428	0.2207820146316287	-0.06078011943004469	0.9734274904158344	0.9047549690281359	0.3854971916678409	-0.1811363056791911	-0.36424407755527993	0.9207049974330965	0.14010196168371744
381														9.603939615378001	-1.6328605836901717	1.5180092839678243	0.22045476619047485	-0.06080938553257276	0.9734998277837823	0.9036539543795711	0.3884255899091207	-0.18037486476201603	-0.36716376019164393	0.9194714676023952	0.14058091430571376
382														9.492054110320703	-1.4918965197490268	1.5298526884836783	0.22010077253699167	-0.060947368312687766	0.9735712959123115	0.9026966759718066	0.39100184317889985	-0.17960030573513724	-0.3697220051850731	0.9183697386817911	0.14107679453215616
383														9.426006877101292	-1.3823183815226328	1.5888488896328725	0.21978946190078996	-0.061141685828147774	0.9736294401318466	0.9019814593910882	0.39295070228078866	-0.17893907480412868	-0.37164773556700686	0.9175246262804759	0.14151509042073618
384														9.336842066063852	-1.3142547369995923	1.6181637291961186	0.21948807179700108	-0.06137291472714412	0.973682880447597	0.9015861451999845	0.394103617903169	-0.17839495827815777	-0.37278332731261893	0.9170145602407455	0.14183401279032187
385														9.332972242518602	-1.3950161012229234	1.557179910145649	0.2191581618322462	-0.0615561721352233	0.9737456227241124	0.9014928818445918	0.39451482185111586	-0.17795684680088852	-0.3732027385829901	0.9168254430434621	0.1419535941859709
386														9.316355068739849	-1.5122767840451166	1.5340356138362183	0.21879232605450655	-0.06162473712054772	0.9738235516942902	0.9016064673235427	0.3944123685893101	-0.17760816868638651	-0.373142996906039	0.91686491659273	0.14185566108332154
387														9.341534434937156	-1.6352360917562314	1.503723019265457	0.21843922105023378	-0.06165684375353214	0.9739007856682935	0.9018693358127663	0.39393009589249484	-0.17734367953431435	-0.3727143783483633	0.917070069933853	0.14165620001931
388														9.354999141151104	-1.7372210176543106	1.472604229759537	0.21803759709261464	-0.06165483150512707	0.973990907558255	0.9022010698341992	0.39329271338160754	-0.17707080840996714	-0.37214625598560735	0.9173437323887962	0.141377653124133
389														9.296150437853312	-1.9081138441171364	1.4913675148480061	0.2176919114376686	-0.061554707096192984	0.9740745606620247	0.9024805651013001	0.3927399724439855	-0.1768732417838717	-0.3716706355216304	0.9175872340431726	0.14104824214412573
390														9.270761594922718	-2.005641494857332	1.586731888522256	0.21734030796142415	-0.061406341187922264	0.974162436042956	0.9027396706674942	0.39223055617898483	-0.17668128877351102	-0.3712469225978553	0.917815042403118	0.14068145009270192
391														9.209752181132329	-2.1795209249175955	1.6922901449535002	0.21703054618831236	-0.06115721574097793	0.9742471642165629	0.9029632849867131	0.3917711480319957	-0.1765578475619149	-0.37088414361793237	0.9180278658801724	0.14024902666432076
392														9.226232463626319	-2.4226222711420458	1.7903985441322008	0.21669064087527837	-0.060786538477141105	0.9743460180536623	0.9031921867254195	0.391289576656878	-0.1764549263631811	-0.3705253567506759	0.9182578417523302	0.13969071574423328
393														9.316532159604376	-2.652088931135412	1.7882574637336148	0.21639977907782584	-0.06044963169331907	0.974431617735801	0.9034873649156111	0.3906270199982317	-0.17641177025682397	-0.36997529248980054	0.9185621227088798	0.13914707927816292
394														9.584056125732575	-2.8393107085557494	1.7919121561509266	0.21620866456973764	-0.060326898578780985	0.9744816461446754	0.9039387639409284	0.38956834063219836	-0.17644041210001227	-0.3689830950191585	0.9190196805754167	0.13875987282042934
395														9.855495529469684	-3.0539803518424646	1.8502907456816136	0.216254026213713	-0.06047957310625551	0.9744621169564495	0.9045176719732207	0.388130303623097	-0.17664271424994782	-0.36753500137334527	0.9196179036134131	0.13863958352205
396														10.027045530110685	-3.2968743894877277	1.8395512716960951	0.2165594706145526	-0.06100533583043494	0.9743615061605013	0.9052503683220514	0.3862475609528355	-0.17701579678315704	-0.36554584711077637	0.9203755595723963	0.1388706700562199
397														10.15283091426905	-3.4285080163543524	1.935412952444146	0.21717621920834979	-0.06191455567843707	0.9741668633275866	0.9060618502768409	0.38407858939861655	-0.17758254598489293	-0.363161690274834	0.9212221365993714	0.13951115280154086
398														10.355931538828534	-3.409267935820395	2.170641697812753	0.2180278165690792	-0.06320842442835889	0.9738935086976421	0.906997216517226	0.38153522067315043	-0.17828887967535906	-0.3603053155757269	0.9221906367271222	0.14051515612452975
399														10.478899902245283	-3.1904765191519306	2.619271427794552	0.21941218373985266	-0.06493350694042316	0.9734690202070773	0.908002059291833	0.3786122758879808	-0.1794017972839574	-0.35691813339798206	0.9232748151137566	0.14203190426224227
400														10.513743990769772	-2.8840653384068484	2.9065856228250957	0.22157572077092247	-0.06707040985087664	0.9728338810337975	0.9091044501129676	0.375094070009766	-0.18120026884170715	-0.35275104358406145	0.9245571906409811	0.14408574698564536
401														10.519488956824201	-2.5236233180483296	3.393235718016093	0.2245456126756727	-0.0696060934251328	0.9719744130306103	0.9104074531165557	0.37065296544154563	-0.18377880323697726	-0.3474730739754291	0.9261594738313056	0.1465984034516949
402														10.544709573927284	-2.1638698339996436	3.8487236393616233	0.22831974693106716	-0.07252890819105506	0.9708808632566347	0.9120017398739808	0.36497386129073306	-0.1872081917047589	-0.34076813176728604	0.928188363453856	0.14947723010775696
403														10.604439132173837	-1.9313629215154513	4.050822578420937	0.23290553767469216	-0.07593093977919657	0.9695305580045996	0.9139888615861078	0.3576767525543978	-0.19155078067883308	-0.33223391069695585	0.9307533685495788	0.15270492957537105
404														10.499712990063289	-1.8295498766688683	4.233208417788868	0.23831404175602028	-0.0798171425680001	0.9679027023695045	0.9162144328221175	0.349025380276767	-0.1968054801348379	-0.3221141576993406	0.9337079348891376	0.15630726705661058
405														10.469137075525241	-1.8187399313165176	4.570860277861651	0.244583839746102	-0.08424484007176375	0.9659614652025903	0.9185860481573258	0.33909393837278956	-0.20301471151011968	-0.3104487356485115	0.9369728426588002	0.16032303220101246
406														10.337541622423304	-1.9282367955378996	4.839418901832188	0.25156171812293515	-0.08935090365716125	0.96370800452766	0.9210476976556728	0.32796886870186454	-0.21001799876582555	-0.29730092602987307	0.9404535273888162	0.16480085619835866
407														10.300823110693429	-2.0571204703686554	5.151972952534689	0.2591705020628147	-0.09504017882712545	0.9611441178455067	0.9234593733953621	0.3159090868024863	-0.21777105997782342	-0.28293716007049025	0.9440173797574533	0.1696400606198861
408														10.504388930745833	-2.305865420999102	5.251738687655978	0.267407958078279	-0.10145665861399661	0.9582272853448128	0.9256853266509126	0.30319849456060555	-0.2262241121529192	-0.2675811278464897	0.9475110655391137	0.17499463049286723
409														10.801066374747196	-2.5746861765565776	5.401963687654387	0.27644628167415586	-0.10874961756048418	0.9548565201269674	0.9275402107533489	0.29019845205396777	-0.23548676366436033	-0.25148878858542884	0.9507672581162698	0.18109392620931272
410														10.933983017002742	-2.985518500449679	5.517278465233866	0.2860571884781343	-0.11721044290474925	0.95101682266617	0.9289539866167972	0.277308915727148	-0.24524325884107967	-0.23498037294366603	0.9536044658726729	0.18820931698231516
411														10.750809884168099	-3.54333737312246	5.5297111164571895	0.2963041420029436	-0.12690853186471973	0.9466245718191777	0.9297586612584131	0.2650967512584709	-0.2554849198821109	-0.2185238825548907	0.9558336345892764	0.1965435721182214
412														10.629818243073768	-3.981996439960461	5.564006569520523	0.3070968300679503	-0.1374775980838806	0.9416960480894585	0.9298372101080462	0.2541205231697845	-0.26613064912257006	-0.2027172899895368	0.9573519048547416	0.20587139337532076
413														10.714127779150255	-4.236917501919003	5.646395260110839	0.3184629294211737	-0.14885203657332152	0.9361754289621464	0.9291552455260939	0.24462675160000685	-0.27717915165641976	-0.18775487289502918	0.9581235951637987	0.21621120251866766
414														10.936170584661541	-4.441426752669344	5.659837467748962	0.3302717803669579	-0.16100109288756187	0.9300533313645251	0.9277883175087895	0.2365769890754357	-0.2885137191438411	-0.17357819271858432	0.9581805551820659	0.22750963646302583
415														11.087306314769878	-4.589524555534943	5.632638167984822	0.34246594018068666	-0.17411161147651555	0.923256316829302	0.9258097740436979	0.2298645160238737	-0.3000642707125701	-0.15997919271366084	0.9575215146523657	0.23991499927375148
416														11.15331119277099	-4.775290418362879	5.639321790285246	0.35484174011025615	-0.18813774135333688	0.9158010317497955	0.9233180316654359	0.22439943689576336	-0.31165478517476475	-0.14687120846847362	0.9561637323174984	0.2533372556961983
417														11.227333449874566	-5.027988542506905	5.604570425237388	0.36736228281655936	-0.2031984522951813	0.9076096860152216	0.9204204044824627	0.2196872154022996	-0.3233632731172847	-0.13368332796630322	0.9541739445057316	0.2677327986075432
418														11.310810813759398	-5.2131832094748525	5.529388300707779	0.37994734541621833	-0.21917698547651182	0.89866649194715	0.9170617564116628	0.21632408937555697	-0.33496510756046166	-0.120986568007876	0.9514017749580166	0.28319059477392716
419														11.460372519971427	-5.252820027396713	5.642485447322185	0.39254985766605455	-0.23627410921718173	0.8888639685351114	0.9133379956855104	0.21389182730156306	-0.3465025134840623	-0.10825116573753268	0.9478527478080261	0.29976132770796104
420														11.533796263747298	-5.255686246522178	5.642193079425194	0.40519905271066625	-0.2542778482840995	0.8781551705446976	0.9091938523436258	0.2127464495765432	-0.35791826867754617	-0.09581370748977158	0.9434414258789909	0.3173925162830413
421														11.45421507579146	-5.047899468586733	5.854834227646179	0.4178088022579347	-0.2732441447244127	0.8664718357394048	0.9047219095131798	0.2124143465001329	-0.36926739884228466	-0.08315089417808746	0.9381992233927426	0.3359585480719889
422														11.396425052836532	-4.930418695305077	6.021433381173244	0.4303658303878759	-0.292806179138589	0.8538441271642124	0.8999285533081816	0.21264118134278498	-0.38067351751571804	-0.07009886571977308	0.9322275845819017	0.35501813977513297
423														11.33746595430525	-4.859488911894101	6.0887107330562635	0.4428101027249777	-0.3130683151412634	0.8401829818434228	0.8948735028528425	0.21269665499929097	-0.39237934049080136	-0.05586257080173079	0.9256070240694607	0.3743407674521951
424														11.303137275646488	-4.863189495229575	6.161977959207208	0.45528956720492353	-0.3336515119012822	0.8254623423272214	0.8893913937125453	0.21329815617568715	-0.40433506570925726	-0.04116258962226221	0.9182486401721712	0.39385920839501587
425														11.321821691113106	-4.877062045846784	6.1878225816593995	0.46763511281802683	-0.354821930430744	0.8095793963195158	0.8835652893159367	0.21364461386015166	-0.4167353578526686	-0.025095433363786834	0.9101963396179679	0.4134160647221353
426														11.149979094259253	-4.827088000883282	6.099294654594624	0.48000960041751317	-0.3762046176566334	0.792502914291705	0.8772224870200507	0.21454424696012334	-0.42947814189161093	-0.00845528079820218	0.9013550087230557	0.4329984485843843
427														11.027296214741206	-4.693130563092745	6.041662423623697	0.49217493490104947	-0.39802080919488086	0.774172635077603	0.870443559015242	0.21523459122130573	-0.442721223018138	0.009583528787777573	0.8917698728874223	0.4523877206405189
428														10.835117242018626	-4.55907670725537	5.893350517035735	0.5042826360130601	-0.4199509904430195	0.7545463462516044	0.8630703740986034	0.21633432101274308	-0.4564087980147314	0.028435055284207533	0.8813856290965278	0.4715409000851376
429														10.611163047065254	-4.492768697607126	5.720347687730147	0.5159749408923265	-0.442196795711824	0.7336428655915332	0.8552061597718024	0.2170200192351834	-0.47066414303569815	0.048910987104407666	0.8702668011094972	0.49014631512143036
430														10.42196768915175	-4.4715932239603635	5.488903258993161	0.5274244295875421	-0.4641645311137523	0.71160013991722	0.8467025178520475	0.21802791510697467	-0.4853438724215129	0.07013071607548133	0.8584958452375044	0.5080025259510861
431														10.25559878095023	-4.479479199876057	5.308260666665202	0.5384724424168492	-0.485842632885996	0.688479749032632	0.8375766438404009	0.21913800693333021	-0.5004437027382178	0.09226480613258214	0.8461297004524133	0.5249302197069874
432														10.086639831444383	-4.49738214151434	5.211051715261013	0.5488514876869999	-0.5072541565140374	0.6644209999413022	0.8279596161335927	0.22045270586184068	-0.5156389032356916	0.11508656965815411	0.8331229352127005	0.5409817522864275
433														9.756479479233267	-4.603598705383704	5.063554890078566	0.5586923785994966	-0.5280950424391795	0.6395142314647878	0.8177492578547181	0.2221010532242615	-0.5309964909815619	0.13837983007972976	0.8196259807423354	0.5559354947467108
434														9.485415263398508	-4.673145487141509	4.990538196506314	0.5678393953602309	-0.5483407379947912	0.6139062274747302	0.8070416097257703	0.22409670047760652	-0.5463190542222442	0.16199463339309977	0.8056693514652136	0.56978472677096
435														9.147333852493311	-4.704581426498527	4.926285015438511	0.5763620006921397	-0.5679516651086338	0.5875693578280645	0.795804598303093	0.2266585228462394	-0.5615344649625822	0.1857468316763617	0.7912375244649934	0.5826159064089327
436														8.697823971513342	-4.820953837657451	4.773204363197365	0.5841674300737143	-0.5870400684594099	0.5604751302816589	0.7840828535027038	0.22978294916849928	-0.5765534451501295	0.20967234553972233	0.7762626838220406	0.5945197668885982
437														8.187596317326104	-4.935307563137226	4.587840183105423	0.5912583535797413	-0.6054675871802812	0.5327499978378811	0.7718976374456011	0.23347954797197704	-0.5913216873958713	0.23363988663769047	0.760852352005887	0.6054057332228009
438														7.824307056848133	-5.038008467747671	4.409067629548478	0.5976446820916247	-0.623101861480907	0.5045442539427332	0.7594205232832651	0.2381442315045737	-0.6054484237466206	0.2571017362519596	0.7450042920816794	0.6155219752341123
439														7.493217239797186	-5.065978587656351	4.438398610088594	0.6032330959170862	-0.639861313471291	0.47611693050455844	0.7467612657385633	0.24347598089734399	-0.6189241138609934	0.2801025597577201	0.7289011910052495	0.6246964140831148
440														7.19229287266373	-5.122305438044063	4.351142211378662	0.6079164943354549	-0.6557983154124816	0.4476227266538668	0.7339709531320706	0.24910577899715222	-0.6318488354255488	0.3028599938474724	0.7126534083075543	0.6327724265123567
441														6.81831557800223	-5.170098410364687	4.4762919846666565	0.6118133549383005	-0.6707797487542669	0.4192122939279154	0.7211467221436317	0.25524761445733174	-0.644046629100206	0.32501049807758237	0.6963499005349287	0.639894516435606
442														6.357422809032271	-5.34278031109487	4.355146399500704	0.61492778364643	-0.6847931796376655	0.39105258216949046	0.7083774022857935	0.2617858181408764	-0.655491907921939	0.34650436769328186	0.6800929984509829	0.6460713866341945
443														5.859364208546596	-5.512327737329907	4.332956558250538	0.6173054742570508	-0.6979444879842469	0.36305294812834843	0.6956786647385522	0.2687729293836554	-0.6661773846792716	0.36737602926683033	0.6638031365720838	0.6514600901031474
444														5.323760461402174	-5.705884599027166	4.185169600213694	0.6189042784096238	-0.7102944916659161	0.33531959274000217	0.6832559794469447	0.2762623801266094	-0.6758996699783016	0.3874516237109598	0.6474263142905444	0.6562929276229496
445														4.881450792666351	-5.63562711841885	4.0937219079364935	0.6198005869541798	-0.7218417584892451	0.30788262067289285	0.6712794451652961	0.2844519841955899	-0.6844493956354729	0.40648633299266834	0.6308974119366366	0.6608610419005099
446														4.597663979417018	-5.343992034926086	3.9727816281184127	0.6200455603170171	-0.7325515239498516	0.28091238472147395	0.6598362840805271	0.29319438472151893	-0.6918476212133501	0.42445209546185236	0.6143332300360441	0.6651579520170549
447														4.235456695097307	-5.047620175356511	3.883463671680532	0.6196885682027659	-0.7424386035903674	0.2545014702071325	0.6486393936186496	0.30190419806358726	-0.6986564193060945	0.4418744340701745	0.5980290754556739	0.6686615058643613
448														3.8559969963977694	-4.850481437049296	3.887854220306227	0.6188098167351703	-0.7515145604621016	0.22869253622634808	0.6375972896093389	0.3104575387091799	-0.7050431284265264	0.4588508548482939	0.582101350343815	0.6712778194852691
449														3.435104156031681	-4.7693007090175135	3.9031582056176957	0.6175476728544314	-0.7596720105910902	0.20379722293634792	0.6266587522976707	0.31863197448040337	-0.7111768226028227	0.47532481517463776	0.5668969052334037	0.6728255486498609
450														3.1804021287976436	-4.7403280315857526	3.569287857293026	0.6158447714564462	-0.7670662149034051	0.17984615487555272	0.6155178719800616	0.32593186943784097	-0.717569624327766	0.4918058221929614	0.5526100238310176	0.6728664019094637
451														2.9622074077362965	-4.757987642921292	3.643324963508288	0.6138433261398168	-0.773677578673925	0.1569056251727725	0.6040694789417242	0.33238128297725394	-0.7243084614564903	0.5082287236714192	0.5393938143728076	0.6713850441078302
452														2.5904623095936175	-5.0034413001185465	3.7892927227696633	0.6114718476941012	-0.7796512230798178	0.1350783099824163	0.5922175906784533	0.33771814524179344	-0.7315905819961398	0.5247670957373085	0.5273427962194864	0.6682283071726633
453														2.02995341551877	-5.316020905979344	3.9308199576047036	0.6086475736044769	-0.7851211296455237	0.1145990529172023	0.5799920909826769	0.3416858795419238	-0.7394997864226901	0.5414400294981202	0.5165612950132817	0.6633303271758921
454														1.3147501563132515	-5.424622107419524	4.410209111654955	0.6057601986141499	-0.7898997065999132	0.09546221916714656	0.5675573152783897	0.34489810642996205	-0.7476121922862231	0.5576139127110546	0.5070539909066856	0.6572389022696925
455														0.6925242018477356	-5.485425948718849	4.690369265681235	0.6032262252537899	-0.7937815870399344	0.07764607679996938	0.5546271027397166	0.34752786110760253	-0.7560510317832537	0.5731552128984011	0.4991344286165179	0.6498907016545556
456														0.7789256432199656	-4.82876595352644	4.012686504144964	0.601171332446826	-0.7968188860171574	0.06060273863848181	0.5409677426007595	0.34997567871109253	-0.7647685439243357	0.5881725346439992	0.4925410512810952	0.6414486591250833
457														1.041091770848579	-4.472353341415939	5.496389796324102	0.5990406663574765	-0.799489248003426	0.04435338067055111	0.5256184346382772	0.3508397547946715	-0.775007566172113	0.6040492870771372	0.48757400339079937	0.6303935675425879
458														0.18114422165392735	-6.116621839150897	4.164261046155375	0.5965814540345384	-0.8020502986279255	0.02838815198092881	0.5086361042950028	0.35049941693629405	-0.7864092268882161	0.6207897245522351	0.48359639907486307	0.6170531911368635
459														-0.3852416785883433	-7.296743999995709	3.5990205053001887	0.5942412994517374	-0.8041794704999821	0.013139910664806076	0.49227626828208715	0.3507464116199076	-0.7966436031388322	0.636035654434697	0.47986699611676453	0.6043064721858438
460														-0.2790358203712613	-7.7008382917532625	3.4151747077704755	0.592209100319631	-0.8057832900352256	-0.0012926711186993511	0.4784089666882009	0.3528958644409439	-0.804107809595708	0.6483928146509195	0.47558153702649875	0.5944820935474608
461														0.11020275644153597	-7.28954531585173	3.276024181908164	0.5902863138553397	-0.8070515169484911	-0.015163003205637848	0.46719949174553643	0.35691277236665087	-0.8089115574858992	0.6582451690576903	0.4704052741123234	0.5877347832989996
462														0.11430129396945775	-6.528925884004973	3.3924590748755623	0.588402782741256	-0.8080626614813647	-0.02858146920644672	0.4581212413052117	0.36229806087310706	-0.8117050223773153	0.6662635315904044	0.46451571578068196	0.5833678567297332
463														-0.13790605749977738	-5.790942930332138	3.388522221572162	0.5866439973852988	-0.8087863077455822	-0.04139479115862599	0.450395665960864	0.3683161544310869	-0.8133184828028721	0.6730472230203968	0.458484371367623	0.5803443088341336
464														-0.4321676232203372	-5.355184438426428	3.4331745302647674	0.5850852904987751	-0.8092270440061492	-0.05316760377366897	0.44345734758635535	0.37413963531680755	-0.8144722918286911	0.6789851130279945	0.45295819292079925	0.5777612757465538
465														-0.5695929237203758	-5.1630044698154895	3.2950791882490087	0.5836965604274232	-0.8094590665399466	-0.06383059565344651	0.43708897578621597	0.3794848282366682	-0.8154412869019715	0.684289085541595	0.4480706247172034	0.5753096233109464
466														-0.7247826991141801	-4.918479312201632	3.2651624304013267	0.5824942601604761	-0.8095086785343333	-0.07345839814274163	0.43115588041749886	0.38432249704845806	-0.8163337706133746	0.6890609868955806	0.44383771543215644	0.5728900755803447
467														-1.0562056826324129	-4.934110103572794	3.2556810854028044	0.5815620467443642	-0.8093310555262445	-0.0822728895036523	0.42527824746667764	0.3886810651117395	-0.8173527034611645	0.6934868405515541	0.4403524408747814	0.5702330486717205
468														-1.203965400549038	-5.146059183051505	3.472482295000574	0.5809748285803342	-0.8089201441831532	-0.09009133638013045	0.4194394151414925	0.3924135223170158	-0.818585490054958	0.6975233512806678	0.4377897073224307	0.5672753710330871
469														-1.1579202076213577	-5.522115305341952	3.4360468332999106	0.5805219669603682	-0.8084573319868467	-0.09690711136534125	0.41356566536860334	0.395279426375541	-0.8201936451304944	0.7013969534469688	0.43606297416879214	0.5638185845237612
470														-1.1045874600105068	-5.966297485453058	3.6036172247782527	0.5801633947870539	-0.8079997793642839	-0.10269757492964549	0.40781050647656913	0.3973067310393515	-0.8220936396044852	0.7050539171981712	0.43506748673980866	0.5600136211070418
471														-1.225828010991153	-6.57178664084077	3.6175038243612248	0.579754660061069	-0.8076739523977763	-0.10745846060515013	0.4024717442325532	0.39854432599405554	-0.8241231190255192	0.7084497365599625	0.43454022464680797	0.5561238746286848
472														-1.4286551836041759	-7.104478944495602	3.685414500193447	0.5792735133485425	-0.8075253660633491	-0.11110796504792314	0.39779597986169735	0.3990280475420298	-0.8261567500666374	0.7114777263827088	0.4343724213610367	0.5523767232806265
473														-1.440833184156695	-7.50720448281873	3.7336771771527597	0.578526919867629	-0.8077194923951936	-0.11355978422542046	0.39419451760702645	0.39875372957635175	-0.8280133727407505	0.7140849286163635	0.434263381778616	0.5490883626240521
474														-1.381631755050886	-7.711033412606311	3.7797765005290676	0.5775269914670789	-0.8082357634143531	-0.11496749481919927	0.39171611738421325	0.39790753972899334	-0.8295951260755193	0.7162548830607871	0.4340789566021802	0.5464013194774886
475														-1.30006329141574	-7.718558317817543	3.941284271245614	0.5763140771155119	-0.8090296017561696	-0.1154694245276604	0.3902723890885167	0.39660225937080235	-0.8308995788764825	0.7180177900537262	0.4337945957987813	0.5443093806119226
476														-1.180975240259533	-7.755429569467738	3.9488730419295894	0.5749817117521899	-0.810016231948798	-0.1151943363624805	0.3897786599384989	0.39498689110518226	-0.8319002056206085	0.7193529227069766	0.433427110174864	0.5428372801847684
477														-1.0921506250019644	-7.75916736977498	3.8127511874126196	0.5735116214606136	-0.811201106730444	-0.11418049084200182	0.39041533033127884	0.39319164553056407	-0.8324519203697506	0.7201807341854793	0.4328430365897896	0.5422053262222659
478														-1.1416280974479016	-7.695477675107398	3.880771986160733	0.5720613725613625	-0.8124880870090181	-0.11228933382844886	0.39242003848865853	0.3913363705551768	-0.8323835404867527	0.720244610820359	0.43210988596551225	0.5427050276486317
